pc_time,ts_ms,gyroX,gyroY,gyroZ,accelX,accelY,accelZ
2011-09-26T14:01:22.701417,0,0.022667,0.291042,-1.065822,-0.004276,0.004677,0.993958
2011-09-26T14:01:22.711417,10,0.046108,0.275154,-1.061774,-0.004450,0.005359,0.994432
2011-09-26T14:01:22.721417,20,0.069548,0.259267,-1.057726,-0.004625,0.006042,0.994906
2011-09-26T14:01:22.731417,30,0.092989,0.243380,-1.053677,-0.004799,0.006724,0.995380
2011-09-26T14:01:22.741417,40,0.116430,0.227492,-1.049629,-0.004973,0.007407,0.995854
2011-09-26T14:01:22.751417,50,0.139870,0.211605,-1.045581,-0.005147,0.008089,0.996328
2011-09-26T14:01:22.761417,60,0.163311,0.195718,-1.041532,-0.005321,0.008771,0.996802
2011-09-26T14:01:22.771417,70,0.186751,0.179831,-1.037484,-0.005496,0.009454,0.997276
2011-09-26T14:01:22.781417,80,0.210192,0.163943,-1.033436,-0.005670,0.010136,0.997751
2011-09-26T14:01:22.791417,90,0.233633,0.148056,-1.029387,-0.005844,0.010818,0.998225
2011-09-26T14:01:22.801417,100,0.257073,0.132169,-1.025339,-0.006018,0.011501,0.998699
2011-09-26T14:01:22.811417,110,0.271603,0.129952,-1.028322,-0.005981,0.010905,0.999121
2011-09-26T14:01:22.821417,120,0.286132,0.127736,-1.031306,-0.005944,0.010309,0.999543
2011-09-26T14:01:22.831417,130,0.300660,0.125521,-1.034290,-0.005906,0.009714,0.999965
2011-09-26T14:01:22.841417,140,0.315189,0.123305,-1.037274,-0.005869,0.009118,1.000387
2011-09-26T14:01:22.851417,150,0.329718,0.121089,-1.040259,-0.005832,0.008522,1.000810
2011-09-26T14:01:22.861417,160,0.344247,0.118874,-1.043243,-0.005795,0.007926,1.001232
2011-09-26T14:01:22.871417,170,0.358776,0.116658,-1.046227,-0.005757,0.007331,1.001654
2011-09-26T14:01:22.881417,180,0.373304,0.114443,-1.049211,-0.005720,0.006735,1.002076
2011-09-26T14:01:22.891417,190,0.387833,0.112227,-1.052195,-0.005683,0.006139,1.002498
2011-09-26T14:01:22.901417,200,0.402362,0.110012,-1.055179,-0.005646,0.005543,1.002920
2011-09-26T14:01:22.911417,210,0.416889,0.107798,-1.058162,-0.005608,0.004948,1.003343
2011-09-26T14:01:22.921417,220,0.410164,0.126283,-1.047984,-0.005939,0.005526,1.002969
2011-09-26T14:01:22.931417,230,0.403439,0.144767,-1.037806,-0.006270,0.006105,1.002595
2011-09-26T14:01:22.941417,240,0.396714,0.163252,-1.027628,-0.006601,0.006683,1.002221
2011-09-26T14:01:22.951417,250,0.389990,0.181736,-1.017451,-0.006932,0.007261,1.001847
2011-09-26T14:01:22.961417,260,0.383265,0.200221,-1.007273,-0.007263,0.007840,1.001473
2011-09-26T14:01:22.971417,270,0.376540,0.218706,-0.997095,-0.007593,0.008418,1.001099
2011-09-26T14:01:22.981417,280,0.369815,0.237190,-0.986918,-0.007924,0.008997,1.000726
2011-09-26T14:01:22.991417,290,0.363091,0.255675,-0.976740,-0.008255,0.009575,1.000352
2011-09-26T14:01:23.001417,300,0.356366,0.274159,-0.966562,-0.008586,0.010154,0.999978
2011-09-26T14:01:23.011417,310,0.349641,0.292644,-0.956384,-0.008917,0.010732,0.999604
2011-09-26T14:01:23.021417,320,0.355464,0.288967,-0.925645,-0.008764,0.011690,0.999359
2011-09-26T14:01:23.031417,330,0.361307,0.285256,-0.894874,-0.008612,0.012648,0.999115
2011-09-26T14:01:23.041417,340,0.367150,0.281544,-0.864102,-0.008459,0.013607,0.998870
2011-09-26T14:01:23.051417,350,0.372994,0.277832,-0.833330,-0.008306,0.014565,0.998626
2011-09-26T14:01:23.061417,360,0.378837,0.274120,-0.802558,-0.008153,0.015523,0.998381
2011-09-26T14:01:23.071417,370,0.384680,0.270409,-0.771787,-0.008000,0.016482,0.998136
2011-09-26T14:01:23.081417,380,0.390523,0.266697,-0.741015,-0.007847,0.017440,0.997892
2011-09-26T14:01:23.091417,390,0.396366,0.262985,-0.710243,-0.007694,0.018399,0.997647
2011-09-26T14:01:23.101417,400,0.402209,0.259273,-0.679471,-0.007541,0.019357,0.997403
2011-09-26T14:01:23.111417,410,0.408052,0.255561,-0.648700,-0.007389,0.020315,0.997158
2011-09-26T14:01:23.121417,420,0.349609,0.231982,-0.619821,-0.007211,0.020496,0.997062
2011-09-26T14:01:23.131417,430,0.290919,0.208327,-0.590949,-0.007033,0.020674,0.996967
2011-09-26T14:01:23.141417,440,0.232229,0.184672,-0.562078,-0.006856,0.020852,0.996872
2011-09-26T14:01:23.151417,450,0.173539,0.161017,-0.533206,-0.006678,0.021030,0.996776
2011-09-26T14:01:23.161417,460,0.114849,0.137361,-0.504334,-0.006501,0.021208,0.996681
2011-09-26T14:01:23.171417,470,0.056160,0.113706,-0.475463,-0.006323,0.021386,0.996586
2011-09-26T14:01:23.181417,480,-0.002530,0.090051,-0.446591,-0.006145,0.021564,0.996490
2011-09-26T14:01:23.191417,490,-0.061220,0.066396,-0.417719,-0.005968,0.021742,0.996395
2011-09-26T14:01:23.201417,500,-0.119910,0.042740,-0.388848,-0.005790,0.021921,0.996300
2011-09-26T14:01:23.211417,510,-0.178599,0.019085,-0.359976,-0.005612,0.022099,0.996204
2011-09-26T14:01:23.221417,520,-0.237289,-0.004570,-0.331104,-0.005435,0.022277,0.996109
2011-09-26T14:01:23.231417,530,-0.195184,-0.009413,-0.308920,-0.005863,0.020511,0.997078
2011-09-26T14:01:23.241417,540,-0.152493,-0.014147,-0.286774,-0.006294,0.018735,0.998054
2011-09-26T14:01:23.251417,550,-0.109802,-0.018881,-0.264629,-0.006726,0.016958,0.999030
2011-09-26T14:01:23.261417,560,-0.067111,-0.023615,-0.242483,-0.007158,0.015182,1.000006
2011-09-26T14:01:23.271417,570,-0.024420,-0.028349,-0.220338,-0.007589,0.013405,1.000982
2011-09-26T14:01:23.281417,580,0.018271,-0.033083,-0.198192,-0.008021,0.011629,1.001957
2011-09-26T14:01:23.291417,590,0.060963,-0.037817,-0.176047,-0.008452,0.009852,1.002933
2011-09-26T14:01:23.301417,600,0.103654,-0.042551,-0.153901,-0.008884,0.008076,1.003909
2011-09-26T14:01:23.311417,610,0.146345,-0.047285,-0.131756,-0.009316,0.006299,1.004885
2011-09-26T14:01:23.321417,620,0.189036,-0.052019,-0.109610,-0.009747,0.004523,1.005861
2011-09-26T14:01:23.331417,630,0.255122,-0.048867,-0.066675,-0.010099,0.006001,1.005205
2011-09-26T14:01:23.341417,640,0.321288,-0.045689,-0.023669,-0.010451,0.007490,1.004544
2011-09-26T14:01:23.351417,650,0.387454,-0.042510,0.019338,-0.010803,0.008978,1.003883
2011-09-26T14:01:23.361417,660,0.453620,-0.039331,0.062344,-0.011155,0.010467,1.003221
2011-09-26T14:01:23.371417,670,0.519786,-0.036152,0.105350,-0.011507,0.011956,1.002560
2011-09-26T14:01:23.381417,680,0.585952,-0.032973,0.148356,-0.011858,0.013445,1.001899
2011-09-26T14:01:23.391417,690,0.652118,-0.029794,0.191362,-0.012210,0.014934,1.001238
2011-09-26T14:01:23.401417,700,0.718284,-0.026615,0.234368,-0.012562,0.016422,1.000577
2011-09-26T14:01:23.411417,710,0.784450,-0.023437,0.277374,-0.012914,0.017911,0.999916
2011-09-26T14:01:23.421417,720,0.850616,-0.020258,0.320381,-0.013266,0.019400,0.999254
2011-09-26T14:01:23.431417,730,0.916781,-0.017079,0.363387,-0.013618,0.020889,0.998593
2011-09-26T14:01:23.441417,740,0.904034,0.015391,0.378755,-0.013893,0.023043,0.998793
2011-09-26T14:01:23.451417,750,0.891066,0.047942,0.394046,-0.014168,0.025198,0.998995
2011-09-26T14:01:23.461417,760,0.878099,0.080493,0.409337,-0.014444,0.027354,0.999196
2011-09-26T14:01:23.471417,770,0.865131,0.113045,0.424628,-0.014719,0.029510,0.999398
2011-09-26T14:01:23.481417,780,0.852164,0.145596,0.439919,-0.014994,0.031666,0.999600
2011-09-26T14:01:23.491417,790,0.839196,0.178147,0.455210,-0.015270,0.033821,0.999802
2011-09-26T14:01:23.501417,800,0.826228,0.210699,0.470501,-0.015545,0.035977,1.000004
2011-09-26T14:01:23.511417,810,0.813261,0.243250,0.485793,-0.015820,0.038133,1.000206
2011-09-26T14:01:23.521417,820,0.800293,0.275801,0.501084,-0.016096,0.040289,1.000408
2011-09-26T14:01:23.531417,830,0.787325,0.308352,0.516375,-0.016371,0.042444,1.000610
2011-09-26T14:01:23.541417,840,0.708942,0.319517,0.533316,-0.016932,0.043162,1.000119
2011-09-26T14:01:23.551417,850,0.628805,0.330108,0.550302,-0.017501,0.043841,0.999610
2011-09-26T14:01:23.561417,860,0.548668,0.340700,0.567288,-0.018071,0.044520,0.999100
2011-09-26T14:01:23.571417,870,0.468532,0.351291,0.584273,-0.018640,0.045199,0.998591
2011-09-26T14:01:23.581417,880,0.388395,0.361882,0.601259,-0.019209,0.045878,0.998082
2011-09-26T14:01:23.591417,890,0.308259,0.372474,0.618245,-0.019778,0.046557,0.997572
2011-09-26T14:01:23.601417,900,0.228122,0.383065,0.635230,-0.020347,0.047237,0.997063
2011-09-26T14:01:23.611417,910,0.147985,0.393656,0.652216,-0.020916,0.047916,0.996554
2011-09-26T14:01:23.621417,920,0.067849,0.404248,0.669202,-0.021486,0.048595,0.996045
2011-09-26T14:01:23.631417,930,-0.012288,0.414839,0.686188,-0.022055,0.049274,0.995535
2011-09-26T14:01:23.641417,940,-0.040301,0.420643,0.681903,-0.022852,0.047909,0.996502
2011-09-26T14:01:23.651417,950,-0.067712,0.426391,0.677373,-0.023651,0.046521,0.997487
2011-09-26T14:01:23.661417,960,-0.095124,0.432139,0.672844,-0.024451,0.045133,0.998471
2011-09-26T14:01:23.671417,970,-0.122535,0.437888,0.668314,-0.025251,0.043745,0.999455
2011-09-26T14:01:23.681417,980,-0.149947,0.443636,0.663784,-0.026050,0.042357,1.000439
2011-09-26T14:01:23.691417,990,-0.177359,0.449384,0.659255,-0.026850,0.040968,1.001423
2011-09-26T14:01:23.701417,1000,-0.204770,0.455133,0.654725,-0.027650,0.039580,1.002407
2011-09-26T14:01:23.711417,1010,-0.232182,0.460881,0.650195,-0.028449,0.038192,1.003392
2011-09-26T14:01:23.721417,1020,-0.259593,0.466629,0.645666,-0.029249,0.036804,1.004376
2011-09-26T14:01:23.731417,1030,-0.287005,0.472378,0.641136,-0.030049,0.035416,1.005360
2011-09-26T14:01:23.741417,1040,-0.296338,0.472884,0.645583,-0.030572,0.034767,1.004157
2011-09-26T14:01:23.751417,1050,-0.305588,0.473367,0.650072,-0.031094,0.034122,1.002943
2011-09-26T14:01:23.761417,1060,-0.314838,0.473850,0.654560,-0.031616,0.033477,1.001730
2011-09-26T14:01:23.771417,1070,-0.324088,0.474333,0.659049,-0.032138,0.032832,1.000517
2011-09-26T14:01:23.781417,1080,-0.333338,0.474815,0.663537,-0.032660,0.032187,0.999304
2011-09-26T14:01:23.791417,1090,-0.342588,0.475298,0.668026,-0.033182,0.031542,0.998090
2011-09-26T14:01:23.801417,1100,-0.351838,0.475781,0.672514,-0.033704,0.030897,0.996877
2011-09-26T14:01:23.811417,1110,-0.361087,0.476264,0.677003,-0.034226,0.030251,0.995664
2011-09-26T14:01:23.821417,1120,-0.370337,0.476746,0.681491,-0.034748,0.029606,0.994450
2011-09-26T14:01:23.831417,1130,-0.379587,0.477229,0.685979,-0.035270,0.028961,0.993237
2011-09-26T14:01:23.841417,1140,-0.388837,0.477712,0.690468,-0.035792,0.028316,0.992024
2011-09-26T14:01:23.851417,1150,-0.350223,0.460528,0.698801,-0.035012,0.028924,0.991271
2011-09-26T14:01:23.861417,1160,-0.311373,0.443258,0.707152,-0.034225,0.029538,0.990521
2011-09-26T14:01:23.871417,1170,-0.272523,0.425987,0.715504,-0.033439,0.030152,0.989771
2011-09-26T14:01:23.881417,1180,-0.233673,0.408716,0.723855,-0.032653,0.030765,0.989020
2011-09-26T14:01:23.891417,1190,-0.194823,0.391446,0.732207,-0.031867,0.031379,0.988270
2011-09-26T14:01:23.901417,1200,-0.155973,0.374175,0.740558,-0.031080,0.031993,0.987520
2011-09-26T14:01:23.911417,1210,-0.117123,0.356905,0.748910,-0.030294,0.032607,0.986770
2011-09-26T14:01:23.921417,1220,-0.078273,0.339634,0.757262,-0.029508,0.033221,0.986019
2011-09-26T14:01:23.931417,1230,-0.039423,0.322363,0.765613,-0.028722,0.033835,0.985269
2011-09-26T14:01:23.941417,1240,-0.000573,0.305093,0.773965,-0.027935,0.034449,0.984519
2011-09-26T14:01:23.951417,1250,0.012086,0.295067,0.768975,-0.027893,0.035766,0.985753
2011-09-26T14:01:23.961417,1260,0.024631,0.285073,0.763927,-0.027853,0.037087,0.986996
2011-09-26T14:01:23.971417,1270,0.037177,0.275079,0.758880,-0.027813,0.038408,0.988239
2011-09-26T14:01:23.981417,1280,0.049723,0.265085,0.753832,-0.027774,0.039729,0.989482
2011-09-26T14:01:23.991417,1290,0.062269,0.255091,0.748785,-0.027734,0.041050,0.990725
2011-09-26T14:01:24.001417,1300,0.074814,0.245097,0.743737,-0.027695,0.042371,0.991968
2011-09-26T14:01:24.011417,1310,0.087360,0.235103,0.738690,-0.027655,0.043692,0.993211
2011-09-26T14:01:24.021417,1320,0.099906,0.225109,0.733642,-0.027615,0.045012,0.994454
2011-09-26T14:01:24.031417,1330,0.112452,0.215115,0.728595,-0.027576,0.046333,0.995697
2011-09-26T14:01:24.041417,1340,0.124997,0.205121,0.723547,-0.027536,0.047654,0.996940
2011-09-26T14:01:24.051417,1350,0.070468,0.207387,0.721110,-0.027060,0.047161,0.996597
2011-09-26T14:01:24.061417,1360,0.014388,0.209937,0.718733,-0.026573,0.046626,0.996216
2011-09-26T14:01:24.071417,1370,-0.041691,0.212487,0.716356,-0.026086,0.046091,0.995836
2011-09-26T14:01:24.081417,1380,-0.097770,0.215037,0.713979,-0.025599,0.045556,0.995456
2011-09-26T14:01:24.091417,1390,-0.153850,0.217587,0.711602,-0.025113,0.045021,0.995076
2011-09-26T14:01:24.101417,1400,-0.209929,0.220137,0.709225,-0.024626,0.044486,0.994696
2011-09-26T14:01:24.111417,1410,-0.266009,0.222687,0.706848,-0.024139,0.043951,0.994315
2011-09-26T14:01:24.121417,1420,-0.322088,0.225237,0.704471,-0.023652,0.043416,0.993935
2011-09-26T14:01:24.131417,1430,-0.378167,0.227787,0.702094,-0.023166,0.042881,0.993555
2011-09-26T14:01:24.141417,1440,-0.434247,0.230337,0.699717,-0.022679,0.042346,0.993175
2011-09-26T14:01:24.151417,1450,-0.490326,0.232887,0.697340,-0.022192,0.041810,0.992795
2011-09-26T14:01:24.161417,1460,-0.520467,0.215994,0.697898,-0.022318,0.041027,0.994077
2011-09-26T14:01:24.171417,1470,-0.550417,0.198958,0.698477,-0.022448,0.040241,0.995372
2011-09-26T14:01:24.181417,1480,-0.580367,0.181922,0.699057,-0.022578,0.039456,0.996666
2011-09-26T14:01:24.191417,1490,-0.610317,0.164886,0.699636,-0.022708,0.038671,0.997961
2011-09-26T14:01:24.201417,1500,-0.640267,0.147850,0.700215,-0.022838,0.037885,0.999256
2011-09-26T14:01:24.211417,1510,-0.670217,0.130814,0.700795,-0.022968,0.037100,1.000550
2011-09-26T14:01:24.221417,1520,-0.700167,0.113778,0.701374,-0.023098,0.036314,1.001845
2011-09-26T14:01:24.231417,1530,-0.730117,0.096742,0.701953,-0.023228,0.035529,1.003140
2011-09-26T14:01:24.241417,1540,-0.760067,0.079706,0.702533,-0.023358,0.034743,1.004434
2011-09-26T14:01:24.251417,1550,-0.790017,0.062671,0.703112,-0.023489,0.033958,1.005729
2011-09-26T14:01:24.261417,1560,-0.803559,0.065044,0.706264,-0.023555,0.034210,1.005276
2011-09-26T14:01:24.271417,1570,-0.816906,0.067647,0.709447,-0.023622,0.034474,1.004803
2011-09-26T14:01:24.281417,1580,-0.830253,0.070250,0.712630,-0.023688,0.034739,1.004329
2011-09-26T14:01:24.291417,1590,-0.843600,0.072853,0.715812,-0.023754,0.035003,1.003856
2011-09-26T14:01:24.301417,1600,-0.856947,0.075456,0.718995,-0.023820,0.035268,1.003382
2011-09-26T14:01:24.311417,1610,-0.870294,0.078059,0.722178,-0.023886,0.035532,1.002909
2011-09-26T14:01:24.321417,1620,-0.883641,0.080662,0.725360,-0.023952,0.035796,1.002436
2011-09-26T14:01:24.331417,1630,-0.896988,0.083266,0.728543,-0.024018,0.036061,1.001962
2011-09-26T14:01:24.341417,1640,-0.910335,0.085869,0.731726,-0.024084,0.036325,1.001489
2011-09-26T14:01:24.351417,1650,-0.923682,0.088472,0.734908,-0.024151,0.036589,1.001015
2011-09-26T14:01:24.361417,1660,-0.909658,0.078775,0.724922,-0.023847,0.035475,0.999933
2011-09-26T14:01:24.371417,1670,-0.895398,0.068972,0.714822,-0.023540,0.034349,0.998845
2011-09-26T14:01:24.381417,1680,-0.881137,0.059169,0.704721,-0.023233,0.033222,0.997757
2011-09-26T14:01:24.391417,1690,-0.866877,0.049365,0.694621,-0.022927,0.032096,0.996669
2011-09-26T14:01:24.401417,1700,-0.852616,0.039562,0.684520,-0.022620,0.030969,0.995582
2011-09-26T14:01:24.411417,1710,-0.838355,0.029759,0.674420,-0.022313,0.029843,0.994494
2011-09-26T14:01:24.421417,1720,-0.824095,0.019956,0.664319,-0.022006,0.028717,0.993406
2011-09-26T14:01:24.431417,1730,-0.809834,0.010152,0.654219,-0.021699,0.027590,0.992318
2011-09-26T14:01:24.441417,1740,-0.795574,0.000349,0.644118,-0.021393,0.026464,0.991230
2011-09-26T14:01:24.451417,1750,-0.781313,-0.009454,0.634018,-0.021086,0.025337,0.990142
2011-09-26T14:01:24.461417,1760,-0.767053,-0.019257,0.623917,-0.020779,0.024211,0.989055
2011-09-26T14:01:24.471417,1770,-0.704991,-0.064047,0.636549,-0.020734,0.023786,0.989766
2011-09-26T14:01:24.481417,1780,-0.642573,-0.109099,0.649352,-0.020691,0.023367,0.990490
2011-09-26T14:01:24.491417,1790,-0.580154,-0.154150,0.662154,-0.020648,0.022947,0.991215
2011-09-26T14:01:24.501417,1800,-0.517736,-0.199202,0.674957,-0.020605,0.022528,0.991940
2011-09-26T14:01:24.511417,1810,-0.455317,-0.244253,0.687759,-0.020562,0.022108,0.992664
2011-09-26T14:01:24.521417,1820,-0.392899,-0.289305,0.700561,-0.020518,0.021689,0.993389
2011-09-26T14:01:24.531417,1830,-0.330480,-0.334357,0.713364,-0.020475,0.021269,0.994113
2011-09-26T14:01:24.541417,1840,-0.268062,-0.379408,0.726166,-0.020432,0.020850,0.994838
2011-09-26T14:01:24.551417,1850,-0.205643,-0.424460,0.738968,-0.020389,0.020430,0.995563
2011-09-26T14:01:24.561417,1860,-0.143225,-0.469511,0.751771,-0.020346,0.020011,0.996287
2011-09-26T14:01:24.571417,1870,-0.090825,-0.503429,0.737759,-0.019439,0.020297,0.996631
2011-09-26T14:01:24.581417,1880,-0.038647,-0.537099,0.723153,-0.018514,0.020599,0.996965
2011-09-26T14:01:24.591417,1890,0.013531,-0.570770,0.708547,-0.017588,0.020900,0.997300
2011-09-26T14:01:24.601417,1900,0.065708,-0.604440,0.693941,-0.016662,0.021202,0.997635
2011-09-26T14:01:24.611417,1910,0.117886,-0.638110,0.679335,-0.015737,0.021504,0.997970
2011-09-26T14:01:24.621417,1920,0.170064,-0.671781,0.664729,-0.014811,0.021805,0.998305
2011-09-26T14:01:24.631417,1930,0.222242,-0.705451,0.650122,-0.013885,0.022107,0.998640
2011-09-26T14:01:24.641417,1940,0.274419,-0.739122,0.635516,-0.012959,0.022409,0.998974
2011-09-26T14:01:24.651417,1950,0.326597,-0.772792,0.620910,-0.012034,0.022711,0.999309
2011-09-26T14:01:24.661417,1960,0.378775,-0.806463,0.606304,-0.011108,0.023012,0.999644
2011-09-26T14:01:24.671417,1970,0.322162,-0.792059,0.603540,-0.011343,0.024424,1.000139
2011-09-26T14:01:24.681417,1980,0.264563,-0.777220,0.600884,-0.011589,0.025846,1.000635
2011-09-26T14:01:24.691417,1990,0.206964,-0.762380,0.598228,-0.011835,0.027268,1.001131
2011-09-26T14:01:24.701417,2000,0.149364,-0.747541,0.595572,-0.012080,0.028690,1.001627
2011-09-26T14:01:24.711417,2010,0.091765,-0.732701,0.592916,-0.012326,0.030112,1.002123
2011-09-26T14:01:24.721417,2020,0.034166,-0.717861,0.590259,-0.012572,0.031534,1.002619
2011-09-26T14:01:24.731417,2030,-0.023433,-0.703022,0.587603,-0.012817,0.032956,1.003115
2011-09-26T14:01:24.741417,2040,-0.081032,-0.688182,0.584947,-0.013063,0.034378,1.003611
2011-09-26T14:01:24.751417,2050,-0.138632,-0.673343,0.582291,-0.013309,0.035800,1.004107
2011-09-26T14:01:24.761417,2060,-0.196231,-0.658503,0.579635,-0.013554,0.037222,1.004603
2011-09-26T14:01:24.771417,2070,-0.253830,-0.643664,0.576978,-0.013800,0.038644,1.005099
2011-09-26T14:01:24.781417,2080,-0.265772,-0.612883,0.569870,-0.013780,0.037656,1.005727
2011-09-26T14:01:24.791417,2090,-0.277252,-0.581942,0.562717,-0.013757,0.036643,1.006358
2011-09-26T14:01:24.801417,2100,-0.288732,-0.551000,0.555563,-0.013734,0.035630,1.006988
2011-09-26T14:01:24.811417,2110,-0.300212,-0.520059,0.548410,-0.013711,0.034618,1.007618
2011-09-26T14:01:24.821417,2120,-0.311693,-0.489117,0.541257,-0.013688,0.033605,1.008248
2011-09-26T14:01:24.831417,2130,-0.323173,-0.458176,0.534103,-0.013665,0.032593,1.008878
2011-09-26T14:01:24.841417,2140,-0.334653,-0.427234,0.526950,-0.013642,0.031580,1.009509
2011-09-26T14:01:24.851417,2150,-0.346133,-0.396293,0.519797,-0.013619,0.030567,1.010139
2011-09-26T14:01:24.861417,2160,-0.357613,-0.365351,0.512643,-0.013596,0.029555,1.010769
2011-09-26T14:01:24.871417,2170,-0.369094,-0.334410,0.505490,-0.013573,0.028542,1.011399
2011-09-26T14:01:24.881417,2180,-0.345354,-0.294922,0.507860,-0.013627,0.027059,1.012076
2011-09-26T14:01:24.891417,2190,-0.321280,-0.255353,0.510321,-0.013682,0.025572,1.012754
2011-09-26T14:01:24.901417,2200,-0.297206,-0.215784,0.512781,-0.013737,0.024084,1.013432
2011-09-26T14:01:24.911417,2210,-0.273132,-0.176215,0.515242,-0.013791,0.022597,1.014110
2011-09-26T14:01:24.921417,2220,-0.249058,-0.136646,0.517703,-0.013846,0.021109,1.014788
2011-09-26T14:01:24.931417,2230,-0.224984,-0.097078,0.520163,-0.013901,0.019622,1.015466
2011-09-26T14:01:24.941417,2240,-0.200910,-0.057509,0.522624,-0.013956,0.018134,1.016143
2011-09-26T14:01:24.951417,2250,-0.176836,-0.017940,0.525085,-0.014011,0.016647,1.016821
2011-09-26T14:01:24.961417,2260,-0.152762,0.021629,0.527545,-0.014066,0.015159,1.017499
2011-09-26T14:01:24.971417,2270,-0.128688,0.061198,0.530006,-0.014121,0.013672,1.018177
2011-09-26T14:01:24.981417,2280,-0.110736,0.106859,0.528291,-0.014110,0.014361,1.017028
2011-09-26T14:01:24.991417,2290,-0.092871,0.152606,0.526517,-0.014097,0.015080,1.015854
2011-09-26T14:01:25.001417,2300,-0.075005,0.198352,0.524744,-0.014085,0.015800,1.014681
2011-09-26T14:01:25.011417,2310,-0.057139,0.244099,0.522970,-0.014073,0.016519,1.013507
2011-09-26T14:01:25.021417,2320,-0.039274,0.289845,0.521196,-0.014061,0.017238,1.012333
2011-09-26T14:01:25.031417,2330,-0.021408,0.335591,0.519423,-0.014048,0.017958,1.011159
2011-09-26T14:01:25.041417,2340,-0.003542,0.381338,0.517649,-0.014036,0.018677,1.009985
2011-09-26T14:01:25.051417,2350,0.014323,0.427084,0.515876,-0.014024,0.019397,1.008811
2011-09-26T14:01:25.061417,2360,0.032189,0.472831,0.514102,-0.014012,0.020116,1.007637
2011-09-26T14:01:25.071417,2370,0.050054,0.518577,0.512328,-0.014000,0.020835,1.006463
2011-09-26T14:01:25.081417,2380,0.067920,0.564323,0.510555,-0.013987,0.021555,1.005289
2011-09-26T14:01:25.091417,2390,0.063742,0.551556,0.512875,-0.014365,0.022866,1.004239
2011-09-26T14:01:25.101417,2400,0.059119,0.537606,0.515278,-0.014751,0.024190,1.003192
2011-09-26T14:01:25.111417,2410,0.054496,0.523657,0.517681,-0.015137,0.025514,1.002144
2011-09-26T14:01:25.121417,2420,0.049873,0.509707,0.520084,-0.015522,0.026837,1.001097
2011-09-26T14:01:25.131417,2430,0.045250,0.495758,0.522488,-0.015908,0.028161,1.000050
2011-09-26T14:01:25.141417,2440,0.040627,0.481808,0.524891,-0.016294,0.029484,0.999002
2011-09-26T14:01:25.151417,2450,0.036004,0.467859,0.527294,-0.016679,0.030808,0.997955
2011-09-26T14:01:25.161417,2460,0.031381,0.453909,0.529697,-0.017065,0.032132,0.996908
2011-09-26T14:01:25.171417,2470,0.026758,0.439960,0.532100,-0.017451,0.033455,0.995860
2011-09-26T14:01:25.181417,2480,0.022135,0.426010,0.534503,-0.017837,0.034779,0.994813
2011-09-26T14:01:25.191417,2490,0.019417,0.402112,0.522426,-0.018026,0.034659,0.993962
2011-09-26T14:01:25.201417,2500,0.016718,0.378112,0.510202,-0.018213,0.034524,0.993114
2011-09-26T14:01:25.211417,2510,0.014019,0.354112,0.497978,-0.018400,0.034390,0.992265
2011-09-26T14:01:25.221417,2520,0.011320,0.330112,0.485754,-0.018588,0.034255,0.991417
2011-09-26T14:01:25.231417,2530,0.008621,0.306111,0.473529,-0.018775,0.034120,0.990568
2011-09-26T14:01:25.241417,2540,0.005922,0.282111,0.461305,-0.018962,0.033986,0.989719
2011-09-26T14:01:25.251417,2550,0.003223,0.258111,0.449081,-0.019150,0.033851,0.988871
2011-09-26T14:01:25.261417,2560,0.000524,0.234111,0.436856,-0.019337,0.033717,0.988022
2011-09-26T14:01:25.271417,2570,-0.002175,0.210111,0.424632,-0.019524,0.033582,0.987173
2011-09-26T14:01:25.281417,2580,-0.004874,0.186111,0.412408,-0.019711,0.033447,0.986325
2011-09-26T14:01:25.291417,2590,-0.007573,0.162111,0.400183,-0.019899,0.033313,0.985476
2011-09-26T14:01:25.301417,2600,-0.056305,0.133114,0.410878,-0.019786,0.031697,0.985783
2011-09-26T14:01:25.311417,2610,-0.105578,0.104058,0.421842,-0.019670,0.030064,0.986104
2011-09-26T14:01:25.321417,2620,-0.154850,0.075002,0.432805,-0.019554,0.028431,0.986425
2011-09-26T14:01:25.331417,2630,-0.204122,0.045947,0.443769,-0.019439,0.026798,0.986746
2011-09-26T14:01:25.341417,2640,-0.253395,0.016891,0.454733,-0.019323,0.025165,0.987066
2011-09-26T14:01:25.351417,2650,-0.302667,-0.012164,0.465696,-0.019207,0.023532,0.987387
2011-09-26T14:01:25.361417,2660,-0.351940,-0.041220,0.476660,-0.019091,0.021899,0.987708
2011-09-26T14:01:25.371417,2670,-0.401212,-0.070276,0.487623,-0.018975,0.020266,0.988028
2011-09-26T14:01:25.381417,2680,-0.450484,-0.099331,0.498587,-0.018859,0.018633,0.988349
2011-09-26T14:01:25.391417,2690,-0.499757,-0.128387,0.509551,-0.018743,0.017000,0.988670
2011-09-26T14:01:25.401417,2700,-0.440335,-0.149987,0.511338,-0.018295,0.017544,0.989782
2011-09-26T14:01:25.411417,2710,-0.379760,-0.171508,0.513028,-0.017843,0.018111,0.990903
2011-09-26T14:01:25.421417,2720,-0.319185,-0.193029,0.514718,-0.017392,0.018678,0.992024
2011-09-26T14:01:25.431417,2730,-0.258610,-0.214551,0.516407,-0.016940,0.019244,0.993145
2011-09-26T14:01:25.441417,2740,-0.198035,-0.236072,0.518097,-0.016488,0.019811,0.994266
2011-09-26T14:01:25.451417,2750,-0.137460,-0.257593,0.519787,-0.016036,0.020378,0.995387
2011-09-26T14:01:25.461417,2760,-0.076885,-0.279114,0.521477,-0.015585,0.020945,0.996508
2011-09-26T14:01:25.471417,2770,-0.016310,-0.300635,0.523167,-0.015133,0.021512,0.997629
2011-09-26T14:01:25.481417,2780,0.044264,-0.322156,0.524857,-0.014681,0.022078,0.998750
2011-09-26T14:01:25.491417,2790,0.104839,-0.343677,0.526547,-0.014229,0.022645,0.999871
2011-09-26T14:01:25.501417,2800,0.061820,-0.322872,0.516988,-0.013731,0.023774,1.000107
2011-09-26T14:01:25.511417,2810,0.017554,-0.301558,0.507294,-0.013233,0.024910,1.000332
2011-09-26T14:01:25.521417,2820,-0.026712,-0.280243,0.497599,-0.012734,0.026046,1.000558
2011-09-26T14:01:25.531417,2830,-0.070978,-0.258929,0.487905,-0.012235,0.027181,1.000783
2011-09-26T14:01:25.541417,2840,-0.115244,-0.237615,0.478211,-0.011736,0.028317,1.001009
2011-09-26T14:01:25.551417,2850,-0.159511,-0.216300,0.468517,-0.011238,0.029453,1.001234
2011-09-26T14:01:25.561417,2860,-0.203777,-0.194986,0.458823,-0.010739,0.030588,1.001460
2011-09-26T14:01:25.571417,2870,-0.248043,-0.173672,0.449129,-0.010240,0.031724,1.001686
2011-09-26T14:01:25.581417,2880,-0.292309,-0.152357,0.439435,-0.009742,0.032860,1.001911
2011-09-26T14:01:25.591417,2890,-0.336575,-0.131043,0.429740,-0.009243,0.033995,1.002137
2011-09-26T14:01:25.601417,2900,-0.380841,-0.109729,0.420046,-0.008744,0.035131,1.002362
2011-09-26T14:01:25.611417,2910,-0.377564,-0.094667,0.388774,-0.009607,0.033903,1.002425
2011-09-26T14:01:25.621417,2920,-0.373513,-0.079707,0.357151,-0.010491,0.032636,1.002486
2011-09-26T14:01:25.631417,2930,-0.369462,-0.064748,0.325528,-0.011375,0.031369,1.002546
2011-09-26T14:01:25.641417,2940,-0.365412,-0.049788,0.293904,-0.012260,0.030102,1.002607
2011-09-26T14:01:25.651417,2950,-0.361361,-0.034828,0.262281,-0.013144,0.028836,1.002668
2011-09-26T14:01:25.661417,2960,-0.357310,-0.019869,0.230658,-0.014028,0.027569,1.002728
2011-09-26T14:01:25.671417,2970,-0.353260,-0.004909,0.199034,-0.014913,0.026302,1.002789
2011-09-26T14:01:25.681417,2980,-0.349209,0.010051,0.167411,-0.015797,0.025035,1.002849
2011-09-26T14:01:25.691417,2990,-0.345158,0.025010,0.135788,-0.016681,0.023768,1.002910
2011-09-26T14:01:25.701417,3000,-0.341107,0.039970,0.104164,-0.017566,0.022502,1.002970
2011-09-26T14:01:25.711417,3010,-0.325729,0.027582,0.095979,-0.017698,0.021742,1.003867
2011-09-26T14:01:25.721417,3020,-0.310135,0.014673,0.088240,-0.017816,0.020993,1.004779
2011-09-26T14:01:25.731417,3030,-0.294541,0.001764,0.080501,-0.017934,0.020243,1.005692
2011-09-26T14:01:25.741417,3040,-0.278947,-0.011145,0.072762,-0.018051,0.019493,1.006605
2011-09-26T14:01:25.751417,3050,-0.263353,-0.024054,0.065023,-0.018169,0.018743,1.007517
2011-09-26T14:01:25.761417,3060,-0.247760,-0.036963,0.057283,-0.018287,0.017994,1.008430
2011-09-26T14:01:25.771417,3070,-0.232166,-0.049872,0.049544,-0.018405,0.017244,1.009343
2011-09-26T14:01:25.781417,3080,-0.216572,-0.062781,0.041805,-0.018522,0.016494,1.010255
2011-09-26T14:01:25.791417,3090,-0.200978,-0.075690,0.034066,-0.018640,0.015745,1.011168
2011-09-26T14:01:25.801417,3100,-0.185384,-0.088599,0.026327,-0.018758,0.014995,1.012081
2011-09-26T14:01:25.811417,3110,-0.169502,-0.083540,0.011095,-0.019256,0.014617,1.010934
2011-09-26T14:01:25.821417,3120,-0.153616,-0.078256,-0.004231,-0.019759,0.014243,1.009761
2011-09-26T14:01:25.831417,3130,-0.137731,-0.072971,-0.019558,-0.020262,0.013869,1.008588
2011-09-26T14:01:25.841417,3140,-0.121845,-0.067686,-0.034884,-0.020765,0.013496,1.007416
2011-09-26T14:01:25.851417,3150,-0.105960,-0.062402,-0.050211,-0.021268,0.013122,1.006243
2011-09-26T14:01:25.861417,3160,-0.090074,-0.057117,-0.065537,-0.021771,0.012748,1.005070
2011-09-26T14:01:25.871417,3170,-0.074189,-0.051832,-0.080863,-0.022273,0.012375,1.003898
2011-09-26T14:01:25.881417,3180,-0.058303,-0.046547,-0.096190,-0.022776,0.012001,1.002725
2011-09-26T14:01:25.891417,3190,-0.042418,-0.041263,-0.111516,-0.023279,0.011627,1.001552
2011-09-26T14:01:25.901417,3200,-0.026532,-0.035978,-0.126843,-0.023782,0.011254,1.000380
2011-09-26T14:01:25.911417,3210,-0.010647,-0.030693,-0.142169,-0.024285,0.010880,0.999207
2011-09-26T14:01:25.921417,3220,-0.017195,-0.032625,-0.154780,-0.025141,0.010925,0.998488
2011-09-26T14:01:25.931417,3230,-0.024145,-0.034687,-0.167341,-0.026004,0.010977,0.997778
2011-09-26T14:01:25.941417,3240,-0.031096,-0.036748,-0.179903,-0.026867,0.011029,0.997067
2011-09-26T14:01:25.951417,3250,-0.038046,-0.038810,-0.192465,-0.027730,0.011081,0.996356
2011-09-26T14:01:25.961417,3260,-0.044996,-0.040871,-0.205027,-0.028592,0.011133,0.995646
2011-09-26T14:01:25.971417,3270,-0.051946,-0.042933,-0.217588,-0.029455,0.011185,0.994935
2011-09-26T14:01:25.981417,3280,-0.058897,-0.044994,-0.230150,-0.030318,0.011237,0.994224
2011-09-26T14:01:25.991417,3290,-0.065847,-0.047056,-0.242712,-0.031181,0.011289,0.993514
2011-09-26T14:01:26.001417,3300,-0.072797,-0.049117,-0.255274,-0.032043,0.011341,0.992803
2011-09-26T14:01:26.011417,3310,-0.079747,-0.051178,-0.267836,-0.032906,0.011393,0.992092
2011-09-26T14:01:26.021417,3320,-0.047424,-0.075037,-0.279396,-0.033257,0.011887,0.993671
2011-09-26T14:01:26.031417,3330,-0.014471,-0.099246,-0.290940,-0.033601,0.012388,0.995286
2011-09-26T14:01:26.041417,3340,0.018483,-0.123454,-0.302485,-0.033944,0.012889,0.996901
2011-09-26T14:01:26.051417,3350,0.051436,-0.147663,-0.314029,-0.034287,0.013390,0.998516
2011-09-26T14:01:26.061417,3360,0.084389,-0.171872,-0.325573,-0.034630,0.013891,1.000131
2011-09-26T14:01:26.071417,3370,0.117343,-0.196080,-0.337118,-0.034974,0.014392,1.001747
2011-09-26T14:01:26.081417,3380,0.150296,-0.220289,-0.348662,-0.035317,0.014893,1.003362
2011-09-26T14:01:26.091417,3390,0.183250,-0.244498,-0.360206,-0.035660,0.015394,1.004977
2011-09-26T14:01:26.101417,3400,0.216203,-0.268706,-0.371751,-0.036003,0.015895,1.006592
2011-09-26T14:01:26.111417,3410,0.249156,-0.292915,-0.383295,-0.036347,0.016395,1.008207
2011-09-26T14:01:26.121417,3420,0.219986,-0.280931,-0.401474,-0.035843,0.016435,1.007394
2011-09-26T14:01:26.131417,3430,0.189682,-0.268287,-0.419775,-0.035324,0.016466,1.006537
2011-09-26T14:01:26.141417,3440,0.159377,-0.255642,-0.438075,-0.034805,0.016496,1.005679
2011-09-26T14:01:26.151417,3450,0.129073,-0.242998,-0.456375,-0.034286,0.016527,1.004822
2011-09-26T14:01:26.161417,3460,0.098769,-0.230354,-0.474675,-0.033767,0.016558,1.003964
2011-09-26T14:01:26.171417,3470,0.068465,-0.217709,-0.492976,-0.033248,0.016589,1.003107
2011-09-26T14:01:26.181417,3480,0.038161,-0.205065,-0.511276,-0.032729,0.016620,1.002250
2011-09-26T14:01:26.191417,3490,0.007856,-0.192421,-0.529576,-0.032210,0.016651,1.001392
2011-09-26T14:01:26.201417,3500,-0.022448,-0.179777,-0.547877,-0.031690,0.016682,1.000535
2011-09-26T14:01:26.211417,3510,-0.052752,-0.167132,-0.566177,-0.031171,0.016712,0.999677
2011-09-26T14:01:26.221417,3520,-0.083056,-0.154488,-0.584477,-0.030652,0.016743,0.998820
2011-09-26T14:01:26.231417,3530,-0.084397,-0.154854,-0.591901,-0.030838,0.015537,0.999361
2011-09-26T14:01:26.241417,3540,-0.085157,-0.155481,-0.599106,-0.031038,0.014306,0.999930
2011-09-26T14:01:26.251417,3550,-0.085917,-0.156108,-0.606312,-0.031239,0.013075,1.000499
2011-09-26T14:01:26.261417,3560,-0.086676,-0.156735,-0.613517,-0.031439,0.011844,1.001068
2011-09-26T14:01:26.271417,3570,-0.087436,-0.157362,-0.620723,-0.031639,0.010613,1.001637
2011-09-26T14:01:26.281417,3580,-0.088195,-0.157989,-0.627928,-0.031839,0.009381,1.002206
2011-09-26T14:01:26.291417,3590,-0.088955,-0.158617,-0.635134,-0.032039,0.008150,1.002776
2011-09-26T14:01:26.301417,3600,-0.089715,-0.159244,-0.642339,-0.032239,0.006919,1.003345
2011-09-26T14:01:26.311417,3610,-0.090474,-0.159871,-0.649545,-0.032439,0.005688,1.003914
2011-09-26T14:01:26.321417,3620,-0.091234,-0.160498,-0.656750,-0.032640,0.004457,1.004483
2011-09-26T14:01:26.331417,3630,-0.068040,-0.155944,-0.652929,-0.032697,0.004900,1.004701
2011-09-26T14:01:26.341417,3640,-0.044365,-0.151286,-0.648887,-0.032751,0.005376,1.004912
2011-09-26T14:01:26.351417,3650,-0.020690,-0.146629,-0.644845,-0.032806,0.005852,1.005124
2011-09-26T14:01:26.361417,3660,0.002985,-0.141971,-0.640803,-0.032860,0.006328,1.005335
2011-09-26T14:01:26.371417,3670,0.026660,-0.137313,-0.636761,-0.032915,0.006804,1.005546
2011-09-26T14:01:26.381417,3680,0.050335,-0.132655,-0.632718,-0.032969,0.007280,1.005757
2011-09-26T14:01:26.391417,3690,0.074010,-0.127997,-0.628676,-0.033024,0.007756,1.005968
2011-09-26T14:01:26.401417,3700,0.097685,-0.123340,-0.624634,-0.033078,0.008232,1.006180
2011-09-26T14:01:26.411417,3710,0.121360,-0.118682,-0.620592,-0.033133,0.008708,1.006391
2011-09-26T14:01:26.421417,3720,0.145035,-0.114024,-0.616550,-0.033187,0.009184,1.006602
2011-09-26T14:01:26.431417,3730,0.120661,-0.098165,-0.635452,-0.032980,0.009462,1.005905
2011-09-26T14:01:26.441417,3740,0.095327,-0.082082,-0.654813,-0.032768,0.009737,1.005189
2011-09-26T14:01:26.451417,3750,0.069992,-0.065999,-0.674174,-0.032556,0.010011,1.004474
2011-09-26T14:01:26.461417,3760,0.044657,-0.049916,-0.693536,-0.032344,0.010285,1.003759
2011-09-26T14:01:26.471417,3770,0.019322,-0.033833,-0.712897,-0.032132,0.010559,1.003043
2011-09-26T14:01:26.481417,3780,-0.006013,-0.017750,-0.732258,-0.031920,0.010834,1.002328
2011-09-26T14:01:26.491417,3790,-0.031347,-0.001667,-0.751619,-0.031708,0.011108,1.001612
2011-09-26T14:01:26.501417,3800,-0.056682,0.014416,-0.770980,-0.031496,0.011382,1.000897
2011-09-26T14:01:26.511417,3810,-0.082017,0.030500,-0.790342,-0.031284,0.011656,1.000182
2011-09-26T14:01:26.521417,3820,-0.107352,0.046583,-0.809703,-0.031072,0.011930,0.999466
2011-09-26T14:01:26.531417,3830,-0.132687,0.062666,-0.829064,-0.030860,0.012205,0.998751
2011-09-26T14:01:26.541417,3840,-0.100656,0.068636,-0.834863,-0.031165,0.010958,0.999113
2011-09-26T14:01:26.551417,3850,-0.066438,0.074221,-0.840146,-0.031489,0.009653,0.999516
2011-09-26T14:01:26.561417,3860,-0.032221,0.079807,-0.845428,-0.031814,0.008348,0.999919
2011-09-26T14:01:26.571417,3870,0.001997,0.085392,-0.850710,-0.032139,0.007042,1.000322
2011-09-26T14:01:26.581417,3880,0.036214,0.090977,-0.855992,-0.032463,0.005737,1.000725
2011-09-26T14:01:26.591417,3890,0.070432,0.096562,-0.861275,-0.032788,0.004432,1.001129
2011-09-26T14:01:26.601417,3900,0.104649,0.102147,-0.866557,-0.033113,0.003127,1.001532
2011-09-26T14:01:26.611417,3910,0.138867,0.107732,-0.871839,-0.033437,0.001822,1.001935
2011-09-26T14:01:26.621417,3920,0.173085,0.113318,-0.877122,-0.033762,0.000517,1.002338
2011-09-26T14:01:26.631417,3930,0.207302,0.118903,-0.882404,-0.034087,-0.000788,1.002741
2011-09-26T14:01:26.641417,3940,0.232261,0.136551,-0.877519,-0.034135,-0.000147,1.002775
2011-09-26T14:01:26.651417,3950,0.257029,0.154450,-0.872423,-0.034178,0.000535,1.002802
2011-09-26T14:01:26.661417,3960,0.281797,0.172348,-0.867328,-0.034221,0.001216,1.002828
2011-09-26T14:01:26.671417,3970,0.306565,0.190246,-0.862233,-0.034265,0.001898,1.002855
2011-09-26T14:01:26.681417,3980,0.331332,0.208145,-0.857137,-0.034308,0.002580,1.002881
2011-09-26T14:01:26.691417,3990,0.356100,0.226043,-0.852042,-0.034351,0.003261,1.002907
2011-09-26T14:01:26.701417,4000,0.380868,0.243941,-0.846946,-0.034394,0.003943,1.002934
2011-09-26T14:01:26.711417,4010,0.405635,0.261840,-0.841851,-0.034437,0.004624,1.002960
2011-09-26T14:01:26.721417,4020,0.430403,0.279738,-0.836756,-0.034480,0.005306,1.002987
2011-09-26T14:01:26.731417,4030,0.455171,0.297637,-0.831660,-0.034523,0.005987,1.003013
2011-09-26T14:01:26.741417,4040,0.411736,0.306048,-0.881092,-0.034263,0.007211,1.002176
2011-09-26T14:01:26.751417,4050,0.366944,0.314271,-0.931609,-0.033997,0.008446,1.001321
2011-09-26T14:01:26.761417,4060,0.322152,0.322494,-0.982125,-0.033731,0.009680,1.000466
2011-09-26T14:01:26.771417,4070,0.277360,0.330717,-1.032642,-0.033465,0.010915,0.999611
2011-09-26T14:01:26.781417,4080,0.232568,0.338940,-1.083159,-0.033199,0.012149,0.998757
2011-09-26T14:01:26.791417,4090,0.187776,0.347163,-1.133675,-0.032933,0.013384,0.997902
2011-09-26T14:01:26.801417,4100,0.142984,0.355386,-1.184192,-0.032667,0.014618,0.997047
2011-09-26T14:01:26.811417,4110,0.098192,0.363609,-1.234708,-0.032401,0.015853,0.996193
2011-09-26T14:01:26.821417,4120,0.053401,0.371831,-1.285225,-0.032135,0.017087,0.995338
2011-09-26T14:01:26.831417,4130,0.008609,0.380054,-1.335742,-0.031869,0.018322,0.994483
2011-09-26T14:01:26.841417,4140,-0.036183,0.388277,-1.386258,-0.031603,0.019556,0.993628
2011-09-26T14:01:26.851417,4150,-0.079132,0.393601,-1.451807,-0.031660,0.018510,0.993973
2011-09-26T14:01:26.861417,4160,-0.122047,0.398872,-1.517633,-0.031722,0.017422,0.994340
2011-09-26T14:01:26.871417,4170,-0.164961,0.404142,-1.583460,-0.031785,0.016334,0.994707
2011-09-26T14:01:26.881417,4180,-0.207876,0.409413,-1.649287,-0.031848,0.015246,0.995073
2011-09-26T14:01:26.891417,4190,-0.250791,0.414683,-1.715113,-0.031911,0.014158,0.995440
2011-09-26T14:01:26.901417,4200,-0.293705,0.419953,-1.780940,-0.031974,0.013070,0.995807
2011-09-26T14:01:26.911417,4210,-0.336620,0.425224,-1.846767,-0.032037,0.011982,0.996174
2011-09-26T14:01:26.921417,4220,-0.379534,0.430494,-1.912593,-0.032100,0.010894,0.996541
2011-09-26T14:01:26.931417,4230,-0.422449,0.435765,-1.978420,-0.032163,0.009806,0.996907
2011-09-26T14:01:26.941417,4240,-0.465364,0.441035,-2.044247,-0.032226,0.008718,0.997274
2011-09-26T14:01:26.951417,4250,-0.453475,0.447942,-2.091721,-0.032469,0.006042,0.997758
2011-09-26T14:01:26.961417,4260,-0.440654,0.454877,-2.138883,-0.032715,0.003338,0.998243
2011-09-26T14:01:26.971417,4270,-0.427834,0.461812,-2.186045,-0.032961,0.000634,0.998729
2011-09-26T14:01:26.981417,4280,-0.415013,0.468747,-2.233207,-0.033207,-0.002070,0.999215
2011-09-26T14:01:26.991417,4290,-0.402192,0.475682,-2.280369,-0.033453,-0.004774,0.999700
2011-09-26T14:01:27.001417,4300,-0.389371,0.482617,-2.327531,-0.033699,-0.007477,1.000186
2011-09-26T14:01:27.011417,4310,-0.376551,0.489552,-2.374693,-0.033945,-0.010181,1.000672
2011-09-26T14:01:27.021417,4320,-0.363730,0.496487,-2.421855,-0.034192,-0.012885,1.001157
2011-09-26T14:01:27.031417,4330,-0.350909,0.503422,-2.469017,-0.034438,-0.015589,1.001643
2011-09-26T14:01:27.041417,4340,-0.338089,0.510357,-2.516179,-0.034684,-0.018293,1.002129
2011-09-26T14:01:27.051417,4350,-0.281235,0.502558,-2.537182,-0.034768,-0.018699,1.001029
2011-09-26T14:01:27.061417,4360,-0.223179,0.494356,-2.557471,-0.034847,-0.019042,0.999885
2011-09-26T14:01:27.071417,4370,-0.165123,0.486154,-2.577761,-0.034927,-0.019386,0.998742
2011-09-26T14:01:27.081417,4380,-0.107067,0.477952,-2.598050,-0.035007,-0.019729,0.997599
2011-09-26T14:01:27.091417,4390,-0.049011,0.469751,-2.618339,-0.035086,-0.020073,0.996456
2011-09-26T14:01:27.101417,4400,0.009045,0.461549,-2.638629,-0.035166,-0.020416,0.995313
2011-09-26T14:01:27.111417,4410,0.067101,0.453347,-2.658918,-0.035246,-0.020759,0.994169
2011-09-26T14:01:27.121417,4420,0.125157,0.445146,-2.679207,-0.035325,-0.021103,0.993026
2011-09-26T14:01:27.131417,4430,0.183214,0.436944,-2.699496,-0.035405,-0.021446,0.991883
2011-09-26T14:01:27.141417,4440,0.241270,0.428742,-2.719786,-0.035485,-0.021789,0.990740
2011-09-26T14:01:27.151417,4450,0.299326,0.420541,-2.740075,-0.035564,-0.022133,0.989597
2011-09-26T14:01:27.161417,4460,0.305126,0.404171,-2.718678,-0.036075,-0.021088,0.989960
2011-09-26T14:01:27.171417,4470,0.310018,0.387659,-2.696557,-0.036593,-0.020018,0.990349
2011-09-26T14:01:27.181417,4480,0.314909,0.371147,-2.674435,-0.037110,-0.018949,0.990738
2011-09-26T14:01:27.191417,4490,0.319801,0.354635,-2.652314,-0.037628,-0.017880,0.991127
2011-09-26T14:01:27.201417,4500,0.324692,0.338123,-2.630192,-0.038146,-0.016811,0.991517
2011-09-26T14:01:27.211417,4510,0.329584,0.321611,-2.608071,-0.038664,-0.015741,0.991906
2011-09-26T14:01:27.221417,4520,0.334475,0.305099,-2.585949,-0.039182,-0.014672,0.992295
2011-09-26T14:01:27.231417,4530,0.339367,0.288587,-2.563828,-0.039699,-0.013603,0.992684
2011-09-26T14:01:27.241417,4540,0.344259,0.272075,-2.541706,-0.040217,-0.012533,0.993073
2011-09-26T14:01:27.251417,4550,0.349150,0.255563,-2.519585,-0.040735,-0.011464,0.993463
2011-09-26T14:01:27.261417,4560,0.356069,0.226323,-2.500157,-0.040873,-0.010334,0.993634
2011-09-26T14:01:27.271417,4570,0.363030,0.196815,-2.480786,-0.041003,-0.009203,0.993802
2011-09-26T14:01:27.281417,4580,0.369991,0.167307,-2.461415,-0.041133,-0.008072,0.993969
2011-09-26T14:01:27.291417,4590,0.376952,0.137800,-2.442044,-0.041263,-0.006941,0.994136
2011-09-26T14:01:27.301417,4600,0.383913,0.108292,-2.422673,-0.041393,-0.005810,0.994303
2011-09-26T14:01:27.311417,4610,0.390875,0.078785,-2.403303,-0.041524,-0.004680,0.994470
2011-09-26T14:01:27.321417,4620,0.397836,0.049277,-2.383932,-0.041654,-0.003549,0.994638
2011-09-26T14:01:27.331417,4630,0.404797,0.019770,-2.364561,-0.041784,-0.002418,0.994805
2011-09-26T14:01:27.341417,4640,0.411758,-0.009738,-2.345190,-0.041914,-0.001287,0.994972
2011-09-26T14:01:27.351417,4650,0.418719,-0.039245,-2.325819,-0.042044,-0.000156,0.995139
2011-09-26T14:01:27.361417,4660,0.418117,-0.067851,-2.322015,-0.042367,-0.000606,0.995007
2011-09-26T14:01:27.371417,4670,0.417358,-0.096438,-2.318533,-0.042693,-0.001089,0.994868
2011-09-26T14:01:27.381417,4680,0.416600,-0.125025,-2.315051,-0.043020,-0.001571,0.994729
2011-09-26T14:01:27.391417,4690,0.415842,-0.153612,-2.311568,-0.043346,-0.002054,0.994591
2011-09-26T14:01:27.401417,4700,0.415083,-0.182199,-2.308086,-0.043673,-0.002537,0.994452
2011-09-26T14:01:27.411417,4710,0.414325,-0.210786,-2.304603,-0.044000,-0.003020,0.994313
2011-09-26T14:01:27.421417,4720,0.413567,-0.239373,-2.301121,-0.044326,-0.003503,0.994174
2011-09-26T14:01:27.431417,4730,0.412808,-0.267960,-2.297639,-0.044653,-0.003986,0.994036
2011-09-26T14:01:27.441417,4740,0.412050,-0.296548,-2.294156,-0.044980,-0.004468,0.993897
2011-09-26T14:01:27.451417,4750,0.411292,-0.325135,-2.290674,-0.045306,-0.004951,0.993758
2011-09-26T14:01:27.461417,4760,0.410533,-0.353722,-2.287191,-0.045633,-0.005434,0.993620
2011-09-26T14:01:27.471417,4770,0.425932,-0.384543,-2.282062,-0.046123,-0.005607,0.993468
2011-09-26T14:01:27.481417,4780,0.441607,-0.415403,-2.276904,-0.046616,-0.005775,0.993316
2011-09-26T14:01:27.491417,4790,0.457283,-0.446263,-2.271747,-0.047109,-0.005943,0.993164
2011-09-26T14:01:27.501417,4800,0.472959,-0.477124,-2.266589,-0.047602,-0.006111,0.993013
2011-09-26T14:01:27.511417,4810,0.488635,-0.507984,-2.261431,-0.048095,-0.006279,0.992861
2011-09-26T14:01:27.521417,4820,0.504310,-0.538844,-2.256273,-0.048588,-0.006447,0.992709
2011-09-26T14:01:27.531417,4830,0.519986,-0.569704,-2.251116,-0.049081,-0.006615,0.992557
2011-09-26T14:01:27.541417,4840,0.535662,-0.600564,-2.245958,-0.049574,-0.006783,0.992406
2011-09-26T14:01:27.551417,4850,0.551338,-0.631424,-2.240800,-0.050068,-0.006951,0.992254
2011-09-26T14:01:27.561417,4860,0.567013,-0.662284,-2.235642,-0.050561,-0.007119,0.992102
2011-09-26T14:01:27.571417,4870,0.529727,-0.673044,-2.221913,-0.050839,-0.005844,0.993693
2011-09-26T14:01:27.581417,4880,0.491033,-0.683271,-2.207956,-0.051111,-0.004531,0.995331
2011-09-26T14:01:27.591417,4890,0.452338,-0.693497,-2.193999,-0.051384,-0.003218,0.996969
2011-09-26T14:01:27.601417,4900,0.413644,-0.703723,-2.180042,-0.051656,-0.001905,0.998607
2011-09-26T14:01:27.611417,4910,0.374949,-0.713950,-2.166085,-0.051929,-0.000591,1.000244
2011-09-26T14:01:27.621417,4920,0.336255,-0.724176,-2.152128,-0.052201,0.000722,1.001882
2011-09-26T14:01:27.631417,4930,0.297560,-0.734402,-2.138171,-0.052474,0.002035,1.003520
2011-09-26T14:01:27.641417,4940,0.258866,-0.744628,-2.124214,-0.052746,0.003348,1.005157
2011-09-26T14:01:27.651417,4950,0.220171,-0.754855,-2.110256,-0.053019,0.004661,1.006795
2011-09-26T14:01:27.661417,4960,0.181477,-0.765081,-2.096299,-0.053291,0.005974,1.008433
2011-09-26T14:01:27.671417,4970,0.185991,-0.723690,-2.114276,-0.054292,0.005513,1.007933
2011-09-26T14:01:27.681417,4980,0.191388,-0.681246,-2.132905,-0.055308,0.005015,1.007389
2011-09-26T14:01:27.691417,4990,0.196784,-0.638802,-2.151533,-0.056324,0.004517,1.006846
2011-09-26T14:01:27.701417,5000,0.202180,-0.596358,-2.170162,-0.057340,0.004020,1.006302
2011-09-26T14:01:27.711417,5010,0.207576,-0.553914,-2.188791,-0.058357,0.003522,1.005759
2011-09-26T14:01:27.721417,5020,0.212973,-0.511470,-2.207419,-0.059373,0.003024,1.005215
2011-09-26T14:01:27.731417,5030,0.218369,-0.469025,-2.226048,-0.060389,0.002526,1.004672
2011-09-26T14:01:27.741417,5040,0.223765,-0.426581,-2.244676,-0.061405,0.002028,1.004128
2011-09-26T14:01:27.751417,5050,0.229161,-0.384137,-2.263305,-0.062421,0.001531,1.003585
2011-09-26T14:01:27.761417,5060,0.234558,-0.341693,-2.281933,-0.063437,0.001033,1.003041
2011-09-26T14:01:27.771417,5070,0.239954,-0.299249,-2.300562,-0.064453,0.000535,1.002498
2011-09-26T14:01:27.781417,5080,0.208822,-0.293920,-2.289431,-0.065638,-0.000107,1.003077
2011-09-26T14:01:27.791417,5090,0.176876,-0.289419,-2.277636,-0.066827,-0.000752,1.003681
2011-09-26T14:01:27.801417,5100,0.144930,-0.284917,-2.265842,-0.068016,-0.001397,1.004285
2011-09-26T14:01:27.811417,5110,0.112984,-0.280416,-2.254047,-0.069205,-0.002042,1.004889
2011-09-26T14:01:27.821417,5120,0.081038,-0.275915,-2.242253,-0.070394,-0.002688,1.005493
2011-09-26T14:01:27.831417,5130,0.049093,-0.271413,-2.230459,-0.071583,-0.003333,1.006097
2011-09-26T14:01:27.841417,5140,0.017147,-0.266912,-2.218664,-0.072772,-0.003978,1.006702
2011-09-26T14:01:27.851417,5150,-0.014799,-0.262410,-2.206870,-0.073961,-0.004623,1.007306
2011-09-26T14:01:27.861417,5160,-0.046745,-0.257909,-2.195075,-0.075150,-0.005268,1.007910
2011-09-26T14:01:27.871417,5170,-0.078691,-0.253407,-2.183281,-0.076339,-0.005914,1.008514
2011-09-26T14:01:27.881417,5180,-0.034770,-0.252243,-2.162696,-0.077464,-0.006316,1.009116
2011-09-26T14:01:27.891417,5190,0.010794,-0.251151,-2.141921,-0.078587,-0.006713,1.009719
2011-09-26T14:01:27.901417,5200,0.056357,-0.250058,-2.121146,-0.079710,-0.007111,1.010321
2011-09-26T14:01:27.911417,5210,0.101921,-0.248966,-2.100370,-0.080832,-0.007508,1.010924
2011-09-26T14:01:27.921417,5220,0.147485,-0.247874,-2.079595,-0.081955,-0.007905,1.011526
2011-09-26T14:01:27.931417,5230,0.193049,-0.246782,-2.058820,-0.083078,-0.008302,1.012128
2011-09-26T14:01:27.941417,5240,0.238612,-0.245689,-2.038044,-0.084201,-0.008700,1.012731
2011-09-26T14:01:27.951417,5250,0.284176,-0.244597,-2.017269,-0.085324,-0.009097,1.013333
2011-09-26T14:01:27.961417,5260,0.329740,-0.243505,-1.996494,-0.086447,-0.009494,1.013936
2011-09-26T14:01:27.971417,5270,0.375303,-0.242413,-1.975719,-0.087570,-0.009892,1.014538
2011-09-26T14:01:27.981417,5280,0.420867,-0.241320,-1.954943,-0.088693,-0.010289,1.015140
2011-09-26T14:01:27.991417,5290,0.411321,-0.248791,-1.961295,-0.089190,-0.008580,1.013780
2011-09-26T14:01:28.001417,5300,0.400581,-0.256448,-1.968234,-0.089674,-0.006827,1.012377
2011-09-26T14:01:28.011417,5310,0.389841,-0.264104,-1.975172,-0.090158,-0.005073,1.010974
2011-09-26T14:01:28.021417,5320,0.379101,-0.271761,-1.982111,-0.090642,-0.003319,1.009570
2011-09-26T14:01:28.031417,5330,0.368361,-0.279417,-1.989050,-0.091126,-0.001565,1.008167
2011-09-26T14:01:28.041417,5340,0.357621,-0.287074,-1.995988,-0.091610,0.000189,1.006764
2011-09-26T14:01:28.051417,5350,0.346881,-0.294730,-2.002927,-0.092093,0.001943,1.005361
2011-09-26T14:01:28.061417,5360,0.336142,-0.302387,-2.009866,-0.092577,0.003697,1.003958
2011-09-26T14:01:28.071417,5370,0.325402,-0.310043,-2.016805,-0.093061,0.005451,1.002555
2011-09-26T14:01:28.081417,5380,0.314662,-0.317699,-2.023743,-0.093545,0.007205,1.001151
2011-09-26T14:01:28.091417,5390,0.339699,-0.312355,-2.049864,-0.094236,0.006243,0.999894
2011-09-26T14:01:28.101417,5400,0.365770,-0.306635,-2.076539,-0.094934,0.005202,0.998640
2011-09-26T14:01:28.111417,5410,0.391842,-0.300914,-2.103214,-0.095631,0.004161,0.997387
2011-09-26T14:01:28.121417,5420,0.417913,-0.295194,-2.129889,-0.096329,0.003121,0.996133
2011-09-26T14:01:28.131417,5430,0.443985,-0.289473,-2.156564,-0.097026,0.002080,0.994880
2011-09-26T14:01:28.141417,5440,0.470056,-0.283753,-2.183240,-0.097724,0.001039,0.993626
2011-09-26T14:01:28.151417,5450,0.496128,-0.278033,-2.209915,-0.098421,-0.000002,0.992373
2011-09-26T14:01:28.161417,5460,0.522200,-0.272312,-2.236590,-0.099118,-0.001042,0.991119
2011-09-26T14:01:28.171417,5470,0.548271,-0.266592,-2.263265,-0.099816,-0.002083,0.989866
2011-09-26T14:01:28.181417,5480,0.574343,-0.260872,-2.289940,-0.100513,-0.003124,0.988612
2011-09-26T14:01:28.191417,5490,0.567827,-0.277577,-2.296579,-0.100895,-0.002930,0.990354
2011-09-26T14:01:28.201417,5500,0.560615,-0.294762,-2.302790,-0.101269,-0.002709,0.992160
2011-09-26T14:01:28.211417,5510,0.553404,-0.311946,-2.309001,-0.101644,-0.002489,0.993965
2011-09-26T14:01:28.221417,5520,0.546193,-0.329131,-2.315213,-0.102019,-0.002269,0.995771
2011-09-26T14:01:28.231417,5530,0.538982,-0.346315,-2.321424,-0.102394,-0.002048,0.997577
2011-09-26T14:01:28.241417,5540,0.531770,-0.363500,-2.327635,-0.102769,-0.001828,0.999383
2011-09-26T14:01:28.251417,5550,0.524559,-0.380684,-2.333846,-0.103143,-0.001607,1.001188
2011-09-26T14:01:28.261417,5560,0.517348,-0.397868,-2.340057,-0.103518,-0.001387,1.002994
2011-09-26T14:01:28.271417,5570,0.510136,-0.415053,-2.346268,-0.103893,-0.001167,1.004800
2011-09-26T14:01:28.281417,5580,0.502925,-0.432237,-2.352479,-0.104268,-0.000946,1.006605
2011-09-26T14:01:28.291417,5590,0.495714,-0.449422,-2.358691,-0.104643,-0.000726,1.008411
2011-09-26T14:01:28.301417,5600,0.505206,-0.428756,-2.406430,-0.105448,0.000041,1.008267
2011-09-26T14:01:28.311417,5610,0.515062,-0.407266,-2.455074,-0.106263,0.000820,1.008081
2011-09-26T14:01:28.321417,5620,0.524918,-0.385775,-2.503717,-0.107078,0.001599,1.007894
2011-09-26T14:01:28.331417,5630,0.534774,-0.364285,-2.552361,-0.107893,0.002378,1.007708
2011-09-26T14:01:28.341417,5640,0.544630,-0.342795,-2.601005,-0.108707,0.003157,1.007521
2011-09-26T14:01:28.351417,5650,0.554486,-0.321305,-2.649648,-0.109522,0.003936,1.007335
2011-09-26T14:01:28.361417,5660,0.564342,-0.299815,-2.698292,-0.110337,0.004715,1.007148
2011-09-26T14:01:28.371417,5670,0.574198,-0.278324,-2.746936,-0.111152,0.005494,1.006962
2011-09-26T14:01:28.381417,5680,0.584054,-0.256834,-2.795579,-0.111967,0.006273,1.006775
2011-09-26T14:01:28.391417,5690,0.593910,-0.235344,-2.844223,-0.112782,0.007052,1.006589
2011-09-26T14:01:28.401417,5700,0.542518,-0.237067,-2.868405,-0.113510,0.006597,1.006905
2011-09-26T14:01:28.411417,5710,0.489490,-0.239409,-2.891934,-0.114237,0.006109,1.007236
2011-09-26T14:01:28.421417,5720,0.436463,-0.241751,-2.915463,-0.114963,0.005622,1.007566
2011-09-26T14:01:28.431417,5730,0.383436,-0.244093,-2.938993,-0.115689,0.005134,1.007896
2011-09-26T14:01:28.441417,5740,0.330409,-0.246435,-2.962522,-0.116416,0.004646,1.008226
2011-09-26T14:01:28.451417,5750,0.277382,-0.248777,-2.986051,-0.117142,0.004158,1.008556
2011-09-26T14:01:28.461417,5760,0.224355,-0.251119,-3.009580,-0.117869,0.003670,1.008886
2011-09-26T14:01:28.471417,5770,0.171328,-0.253462,-3.033109,-0.118595,0.003182,1.009216
2011-09-26T14:01:28.481417,5780,0.118301,-0.255804,-3.056639,-0.119321,0.002694,1.009546
2011-09-26T14:01:28.491417,5790,0.065274,-0.258146,-3.080168,-0.120048,0.002206,1.009876
2011-09-26T14:01:28.501417,5800,0.068290,-0.232980,-3.096440,-0.120990,0.001411,1.009343
2011-09-26T14:01:28.511417,5810,0.072773,-0.207095,-3.112522,-0.121938,0.000608,1.008787
2011-09-26T14:01:28.521417,5820,0.077256,-0.181209,-3.128604,-0.122886,-0.000195,1.008232
2011-09-26T14:01:28.531417,5830,0.081739,-0.155323,-3.144686,-0.123835,-0.000999,1.007676
2011-09-26T14:01:28.541417,5840,0.086222,-0.129438,-3.160768,-0.124783,-0.001802,1.007121
2011-09-26T14:01:28.551417,5850,0.090705,-0.103552,-3.176851,-0.125731,-0.002605,1.006566
2011-09-26T14:01:28.561417,5860,0.095188,-0.077666,-3.192933,-0.126679,-0.003408,1.006010
2011-09-26T14:01:28.571417,5870,0.099671,-0.051781,-3.209015,-0.127627,-0.004212,1.005455
2011-09-26T14:01:28.581417,5880,0.104154,-0.025895,-3.225097,-0.128575,-0.005015,1.004899
2011-09-26T14:01:28.591417,5890,0.108637,-0.000009,-3.241179,-0.129523,-0.005818,1.004344
2011-09-26T14:01:28.601417,5900,0.113120,0.025876,-3.257261,-0.130471,-0.006621,1.003788
2011-09-26T14:01:28.611417,5910,0.125971,0.013077,-3.263261,-0.131271,-0.006411,1.003689
2011-09-26T14:01:28.621417,5920,0.139059,-0.000826,-3.268973,-0.132067,-0.006172,1.003602
2011-09-26T14:01:28.631417,5930,0.152148,-0.014728,-3.274685,-0.132862,-0.005933,1.003515
2011-09-26T14:01:28.641417,5940,0.165237,-0.028630,-3.280398,-0.133658,-0.005693,1.003428
2011-09-26T14:01:28.651417,5950,0.178326,-0.042533,-3.286110,-0.134453,-0.005454,1.003341
2011-09-26T14:01:28.661417,5960,0.191415,-0.056435,-3.291822,-0.135249,-0.005215,1.003254
2011-09-26T14:01:28.671417,5970,0.204504,-0.070337,-3.297534,-0.136045,-0.004976,1.003167
2011-09-26T14:01:28.681417,5980,0.217592,-0.084239,-3.303246,-0.136840,-0.004736,1.003080
2011-09-26T14:01:28.691417,5990,0.230681,-0.098142,-3.308959,-0.137636,-0.004497,1.002994
2011-09-26T14:01:28.701417,6000,0.243770,-0.112044,-3.314671,-0.138431,-0.004258,1.002907
2011-09-26T14:01:28.711417,6010,0.284766,-0.111397,-3.331858,-0.138844,-0.004803,1.002259
2011-09-26T14:01:28.721417,6020,0.326568,-0.110328,-3.349377,-0.139246,-0.005371,1.001594
2011-09-26T14:01:28.731417,6030,0.368371,-0.109260,-3.366896,-0.139648,-0.005940,1.000930
2011-09-26T14:01:28.741417,6040,0.410173,-0.108192,-3.384415,-0.140050,-0.006508,1.000265
2011-09-26T14:01:28.751417,6050,0.451976,-0.107124,-3.401933,-0.140451,-0.007076,0.999601
2011-09-26T14:01:28.761417,6060,0.493778,-0.106056,-3.419452,-0.140853,-0.007644,0.998936
2011-09-26T14:01:28.771417,6070,0.535581,-0.104988,-3.436971,-0.141255,-0.008212,0.998272
2011-09-26T14:01:28.781417,6080,0.577383,-0.103920,-3.454490,-0.141657,-0.008780,0.997607
2011-09-26T14:01:28.791417,6090,0.619186,-0.102852,-3.472009,-0.142059,-0.009348,0.996943
2011-09-26T14:01:28.801417,6100,0.660988,-0.101783,-3.489528,-0.142461,-0.009916,0.996279
2011-09-26T14:01:28.811417,6110,0.652630,-0.088240,-3.491211,-0.143261,-0.008828,0.996346
2011-09-26T14:01:28.821417,6120,0.642996,-0.074379,-3.492491,-0.144071,-0.007697,0.996431
2011-09-26T14:01:28.831417,6130,0.633362,-0.060518,-3.493771,-0.144881,-0.006566,0.996517
2011-09-26T14:01:28.841417,6140,0.623728,-0.046657,-3.495051,-0.145692,-0.005436,0.996603
2011-09-26T14:01:28.851417,6150,0.614094,-0.032796,-3.496331,-0.146502,-0.004305,0.996688
2011-09-26T14:01:28.861417,6160,0.604459,-0.018935,-3.497611,-0.147312,-0.003174,0.996774
2011-09-26T14:01:28.871417,6170,0.594825,-0.005074,-3.498892,-0.148122,-0.002043,0.996860
2011-09-26T14:01:28.881417,6180,0.585191,0.008787,-3.500172,-0.148933,-0.000913,0.996946
2011-09-26T14:01:28.891417,6190,0.575557,0.022648,-3.501452,-0.149743,0.000218,0.997031
2011-09-26T14:01:28.901417,6200,0.565923,0.036509,-3.502732,-0.150553,0.001349,0.997117
2011-09-26T14:01:28.911417,6210,0.556289,0.050370,-3.504012,-0.151363,0.002479,0.997203
2011-09-26T14:01:28.921417,6220,0.544574,0.052868,-3.505960,-0.152035,0.002425,0.997198
2011-09-26T14:01:28.931417,6230,0.532792,0.055004,-3.507928,-0.152702,0.002333,0.997191
2011-09-26T14:01:28.941417,6240,0.521011,0.057140,-3.509897,-0.153370,0.002241,0.997184
2011-09-26T14:01:28.951417,6250,0.509230,0.059277,-3.511866,-0.154037,0.002148,0.997177
2011-09-26T14:01:28.961417,6260,0.497448,0.061413,-3.513834,-0.154704,0.002056,0.997170
2011-09-26T14:01:28.971417,6270,0.485667,0.063549,-3.515803,-0.155371,0.001964,0.997163
2011-09-26T14:01:28.981417,6280,0.473885,0.065686,-3.517771,-0.156039,0.001872,0.997156
2011-09-26T14:01:28.991417,6290,0.462104,0.067822,-3.519740,-0.156706,0.001779,0.997149
2011-09-26T14:01:29.001417,6300,0.450323,0.069958,-3.521709,-0.157373,0.001687,0.997142
2011-09-26T14:01:29.011417,6310,0.438541,0.072095,-3.523677,-0.158040,0.001595,0.997135
2011-09-26T14:01:29.021417,6320,0.442242,0.057517,-3.514893,-0.158665,0.001676,0.997946
2011-09-26T14:01:29.031417,6330,0.446459,0.042382,-3.505752,-0.159289,0.001763,0.998785
2011-09-26T14:01:29.041417,6340,0.450675,0.027248,-3.496610,-0.159913,0.001851,0.999624
2011-09-26T14:01:29.051417,6350,0.454891,0.012114,-3.487468,-0.160536,0.001938,1.000463
2011-09-26T14:01:29.061417,6360,0.459108,-0.003020,-3.478327,-0.161160,0.002025,1.001303
2011-09-26T14:01:29.071417,6370,0.463324,-0.018155,-3.469185,-0.161784,0.002112,1.002142
2011-09-26T14:01:29.081417,6380,0.467540,-0.033289,-3.460043,-0.162407,0.002199,1.002981
2011-09-26T14:01:29.091417,6390,0.471757,-0.048423,-3.450902,-0.163031,0.002286,1.003820
2011-09-26T14:01:29.101417,6400,0.475973,-0.063557,-3.441760,-0.163654,0.002373,1.004659
2011-09-26T14:01:29.111417,6410,0.480189,-0.078691,-3.432618,-0.164278,0.002461,1.005498
2011-09-26T14:01:29.121417,6420,0.457424,-0.070725,-3.430617,-0.164333,0.003112,1.004600
2011-09-26T14:01:29.131417,6430,0.433747,-0.061979,-3.428857,-0.164369,0.003783,1.003644
2011-09-26T14:01:29.141417,6440,0.410069,-0.053232,-3.427097,-0.164405,0.004454,1.002687
2011-09-26T14:01:29.151417,6450,0.386392,-0.044486,-3.425337,-0.164441,0.005125,1.001731
2011-09-26T14:01:29.161417,6460,0.362714,-0.035739,-3.423577,-0.164477,0.005796,1.000775
2011-09-26T14:01:29.171417,6470,0.339037,-0.026992,-3.421818,-0.164513,0.006467,0.999818
2011-09-26T14:01:29.181417,6480,0.315360,-0.018246,-3.420058,-0.164549,0.007138,0.998862
2011-09-26T14:01:29.191417,6490,0.291682,-0.009499,-3.418298,-0.164585,0.007809,0.997906
2011-09-26T14:01:29.201417,6500,0.268005,-0.000752,-3.416538,-0.164621,0.008480,0.996949
2011-09-26T14:01:29.211417,6510,0.244328,0.007994,-3.414778,-0.164657,0.009151,0.995993
2011-09-26T14:01:29.221417,6520,0.220650,0.016741,-3.413018,-0.164693,0.009822,0.995037
2011-09-26T14:01:29.231417,6530,0.190287,0.017781,-3.408403,-0.163818,0.009507,0.995155
2011-09-26T14:01:29.241417,6540,0.159729,0.018597,-3.403705,-0.162916,0.009163,0.995305
2011-09-26T14:01:29.251417,6550,0.129172,0.019413,-3.399006,-0.162015,0.008820,0.995455
2011-09-26T14:01:29.261417,6560,0.098614,0.020230,-3.394308,-0.161113,0.008476,0.995605
2011-09-26T14:01:29.271417,6570,0.068057,0.021046,-3.389610,-0.160212,0.008133,0.995755
2011-09-26T14:01:29.281417,6580,0.037499,0.021862,-3.384912,-0.159310,0.007789,0.995905
2011-09-26T14:01:29.291417,6590,0.006942,0.022679,-3.380213,-0.158409,0.007445,0.996055
2011-09-26T14:01:29.301417,6600,-0.023616,0.023495,-3.375515,-0.157508,0.007102,0.996205
2011-09-26T14:01:29.311417,6610,-0.054174,0.024311,-3.370817,-0.156606,0.006758,0.996354
2011-09-26T14:01:29.321417,6620,-0.084731,0.025127,-3.366119,-0.155705,0.006415,0.996504
2011-09-26T14:01:29.331417,6630,-0.073773,-0.014194,-3.353559,-0.153515,0.005859,0.995462
2011-09-26T14:01:29.341417,6640,-0.061677,-0.054616,-3.340784,-0.151290,0.005298,0.994387
2011-09-26T14:01:29.351417,6650,-0.049580,-0.095038,-3.328008,-0.149065,0.004737,0.993312
2011-09-26T14:01:29.361417,6660,-0.037484,-0.135460,-3.315233,-0.146840,0.004175,0.992237
2011-09-26T14:01:29.371417,6670,-0.025388,-0.175882,-3.302458,-0.144616,0.003614,0.991162
2011-09-26T14:01:29.381417,6680,-0.013291,-0.216304,-3.289682,-0.142391,0.003053,0.990087
2011-09-26T14:01:29.391417,6690,-0.001195,-0.256725,-3.276907,-0.140166,0.002492,0.989012
2011-09-26T14:01:29.401417,6700,0.010902,-0.297147,-3.264131,-0.137941,0.001930,0.987937
2011-09-26T14:01:29.411417,6710,0.022998,-0.337569,-3.251356,-0.135716,0.001369,0.986862
2011-09-26T14:01:29.421417,6720,0.035094,-0.377991,-3.238581,-0.133491,0.000808,0.985787
2011-09-26T14:01:29.431417,6730,0.047191,-0.418413,-3.225805,-0.131266,0.000246,0.984712
2011-09-26T14:01:29.441417,6740,0.064889,-0.432242,-3.206347,-0.129772,0.001495,0.986765
2011-09-26T14:01:29.451417,6750,0.082756,-0.445277,-3.186689,-0.128299,0.002798,0.988912
2011-09-26T14:01:29.461417,6760,0.100622,-0.458313,-3.167031,-0.126826,0.004101,0.991058
2011-09-26T14:01:29.471417,6770,0.118488,-0.471348,-3.147373,-0.125353,0.005403,0.993205
2011-09-26T14:01:29.481417,6780,0.136354,-0.484383,-3.127715,-0.123880,0.006706,0.995351
2011-09-26T14:01:29.491417,6790,0.154220,-0.497419,-3.108057,-0.122407,0.008009,0.997497
2011-09-26T14:01:29.501417,6800,0.172086,-0.510454,-3.088400,-0.120935,0.009312,0.999644
2011-09-26T14:01:29.511417,6810,0.189952,-0.523489,-3.068742,-0.119462,0.010614,1.001790
2011-09-26T14:01:29.521417,6820,0.207818,-0.536525,-3.049084,-0.117989,0.011917,1.003937
2011-09-26T14:01:29.531417,6830,0.225684,-0.549560,-3.029426,-0.116516,0.013220,1.006083
2011-09-26T14:01:29.541417,6840,0.229910,-0.512805,-3.000744,-0.116461,0.013057,1.006440
2011-09-26T14:01:29.551417,6850,0.233566,-0.473970,-2.971685,-0.116465,0.012833,1.006722
2011-09-26T14:01:29.561417,6860,0.237223,-0.435135,-2.942626,-0.116469,0.012609,1.007005
2011-09-26T14:01:29.571417,6870,0.240879,-0.396301,-2.913567,-0.116473,0.012385,1.007287
2011-09-26T14:01:29.581417,6880,0.244535,-0.357466,-2.884508,-0.116477,0.012161,1.007569
2011-09-26T14:01:29.591417,6890,0.248191,-0.318632,-2.855449,-0.116481,0.011937,1.007851
2011-09-26T14:01:29.601417,6900,0.251848,-0.279797,-2.826390,-0.116485,0.011712,1.008133
2011-09-26T14:01:29.611417,6910,0.255504,-0.240962,-2.797331,-0.116488,0.011488,1.008416
2011-09-26T14:01:29.621417,6920,0.259160,-0.202128,-2.768273,-0.116492,0.011264,1.008698
2011-09-26T14:01:29.631417,6930,0.262817,-0.163293,-2.739214,-0.116496,0.011040,1.008980
2011-09-26T14:01:29.641417,6940,0.246126,-0.152320,-2.708453,-0.117093,0.011117,1.008360
2011-09-26T14:01:29.651417,6950,0.228694,-0.142361,-2.677630,-0.117710,0.011205,1.007708
2011-09-26T14:01:29.661417,6960,0.211263,-0.132402,-2.646807,-0.118328,0.011293,1.007056
2011-09-26T14:01:29.671417,6970,0.193832,-0.122443,-2.615985,-0.118946,0.011381,1.006404
2011-09-26T14:01:29.681417,6980,0.176400,-0.112484,-2.585162,-0.119564,0.011469,1.005751
2011-09-26T14:01:29.691417,6990,0.158969,-0.102525,-2.554339,-0.120182,0.011557,1.005099
2011-09-26T14:01:29.701417,7000,0.141538,-0.092566,-2.523517,-0.120800,0.011644,1.004447
2011-09-26T14:01:29.711417,7010,0.124106,-0.082607,-2.492694,-0.121417,0.011732,1.003795
2011-09-26T14:01:29.721417,7020,0.106675,-0.072648,-2.461871,-0.122035,0.011820,1.003142
2011-09-26T14:01:29.731417,7030,0.089244,-0.062689,-2.431048,-0.122653,0.011908,1.002490
2011-09-26T14:01:29.741417,7040,0.071812,-0.052730,-2.400226,-0.123271,0.011996,1.001838
2011-09-26T14:01:29.751417,7050,0.079903,-0.033081,-2.346824,-0.124228,0.012198,1.001888
2011-09-26T14:01:29.761417,7060,0.088773,-0.013137,-2.292733,-0.125196,0.012404,1.001959
2011-09-26T14:01:29.771417,7070,0.097643,0.006808,-2.238641,-0.126164,0.012611,1.002030
2011-09-26T14:01:29.781417,7080,0.106513,0.026753,-2.184550,-0.127132,0.012817,1.002102
2011-09-26T14:01:29.791417,7090,0.115382,0.046697,-2.130459,-0.128099,0.013023,1.002173
2011-09-26T14:01:29.801417,7100,0.124252,0.066642,-2.076368,-0.129067,0.013229,1.002244
2011-09-26T14:01:29.811417,7110,0.133122,0.086587,-2.022277,-0.130035,0.013435,1.002316
2011-09-26T14:01:29.821417,7120,0.141992,0.106531,-1.968186,-0.131003,0.013641,1.002387
2011-09-26T14:01:29.831417,7130,0.150862,0.126476,-1.914095,-0.131971,0.013847,1.002458
2011-09-26T14:01:29.841417,7140,0.159731,0.146421,-1.860004,-0.132938,0.014053,1.002530
2011-09-26T14:01:29.851417,7150,0.168633,0.153913,-1.796027,-0.134038,0.014762,1.001550
2011-09-26T14:01:29.861417,7160,0.177536,0.161047,-1.731766,-0.135141,0.015487,1.000540
2011-09-26T14:01:29.871417,7170,0.186438,0.168181,-1.667505,-0.136245,0.016211,0.999530
2011-09-26T14:01:29.881417,7180,0.195341,0.175314,-1.603244,-0.137348,0.016935,0.998520
2011-09-26T14:01:29.891417,7190,0.204244,0.182448,-1.538982,-0.138451,0.017660,0.997510
2011-09-26T14:01:29.901417,7200,0.213146,0.189582,-1.474721,-0.139555,0.018384,0.996500
2011-09-26T14:01:29.911417,7210,0.222049,0.196715,-1.410460,-0.140658,0.019109,0.995489
2011-09-26T14:01:29.921417,7220,0.230952,0.203849,-1.346198,-0.141761,0.019833,0.994479
2011-09-26T14:01:29.931417,7230,0.239854,0.210983,-1.281937,-0.142865,0.020557,0.993469
2011-09-26T14:01:29.941417,7240,0.248757,0.218116,-1.217676,-0.143968,0.021282,0.992459
2011-09-26T14:01:29.951417,7250,0.255360,0.217491,-1.126923,-0.145484,0.021802,0.993657
2011-09-26T14:01:29.961417,7260,0.261883,0.216601,-1.035264,-0.147014,0.022315,0.994931
2011-09-26T14:01:29.971417,7270,0.268407,0.215710,-0.943604,-0.148545,0.022829,0.996204
2011-09-26T14:01:29.981417,7280,0.274931,0.214819,-0.851945,-0.150075,0.023342,0.997478
2011-09-26T14:01:29.991417,7290,0.281455,0.213929,-0.760286,-0.151605,0.023856,0.998752
2011-09-26T14:01:30.001417,7300,0.287979,0.213038,-0.668627,-0.153136,0.024369,1.000025
2011-09-26T14:01:30.011417,7310,0.294503,0.212147,-0.576968,-0.154666,0.024882,1.001299
2011-09-26T14:01:30.021417,7320,0.301027,0.211257,-0.485308,-0.156196,0.025396,1.002572
2011-09-26T14:01:30.031417,7330,0.307551,0.210366,-0.393649,-0.157726,0.025909,1.003846
2011-09-26T14:01:30.041417,7340,0.314075,0.209475,-0.301990,-0.159257,0.026423,1.005119
2011-09-26T14:01:30.051417,7350,0.300378,0.212378,-0.219557,-0.159593,0.027614,1.004662
2011-09-26T14:01:30.061417,7360,0.285652,0.215474,-0.137593,-0.159869,0.028840,1.004116
2011-09-26T14:01:30.071417,7370,0.270926,0.218570,-0.055629,-0.160145,0.030066,1.003570
2011-09-26T14:01:30.081417,7380,0.256200,0.221666,0.026335,-0.160421,0.031292,1.003024
2011-09-26T14:01:30.091417,7390,0.241474,0.224762,0.108299,-0.160697,0.032518,1.002479
2011-09-26T14:01:30.101417,7400,0.226748,0.227858,0.190263,-0.160973,0.033744,1.001933
2011-09-26T14:01:30.111417,7410,0.212022,0.230953,0.272227,-0.161249,0.034970,1.001387
2011-09-26T14:01:30.121417,7420,0.197296,0.234049,0.354191,-0.161524,0.036196,1.000841
2011-09-26T14:01:30.131417,7430,0.182571,0.237145,0.436154,-0.161800,0.037422,1.000296
2011-09-26T14:01:30.141417,7440,0.167845,0.240241,0.518118,-0.162076,0.038649,0.999750
2011-09-26T14:01:30.151417,7450,0.153119,0.243337,0.600082,-0.162352,0.039875,0.999204
2011-09-26T14:01:30.161417,7460,0.146990,0.254645,0.675589,-0.162966,0.040188,0.999198
2011-09-26T14:01:30.171417,7470,0.141187,0.266264,0.750852,-0.163593,0.040467,0.999213
2011-09-26T14:01:30.181417,7480,0.135384,0.277883,0.826114,-0.164220,0.040747,0.999228
2011-09-26T14:01:30.191417,7490,0.129581,0.289502,0.901376,-0.164847,0.041026,0.999243
2011-09-26T14:01:30.201417,7500,0.123778,0.301121,0.976639,-0.165473,0.041305,0.999258
2011-09-26T14:01:30.211417,7510,0.117975,0.312740,1.051901,-0.166100,0.041584,0.999273
2011-09-26T14:01:30.221417,7520,0.112172,0.324359,1.127163,-0.166727,0.041863,0.999288
2011-09-26T14:01:30.231417,7530,0.106369,0.335978,1.202426,-0.167354,0.042142,0.999303
2011-09-26T14:01:30.241417,7540,0.100566,0.347597,1.277688,-0.167981,0.042421,0.999318
2011-09-26T14:01:30.251417,7550,0.094763,0.359216,1.352951,-0.168608,0.042701,0.999333
2011-09-26T14:01:30.261417,7560,0.086117,0.349953,1.441517,-0.168958,0.042304,0.998798
2011-09-26T14:01:30.271417,7570,0.077358,0.339866,1.530608,-0.169298,0.041880,0.998242
2011-09-26T14:01:30.281417,7580,0.068599,0.329778,1.619700,-0.169638,0.041456,0.997686
2011-09-26T14:01:30.291417,7590,0.059840,0.319691,1.708791,-0.169978,0.041033,0.997129
2011-09-26T14:01:30.301417,7600,0.051081,0.309604,1.797882,-0.170318,0.040609,0.996573
2011-09-26T14:01:30.311417,7610,0.042323,0.299516,1.886974,-0.170658,0.040186,0.996017
2011-09-26T14:01:30.321417,7620,0.033564,0.289429,1.976065,-0.170998,0.039762,0.995461
2011-09-26T14:01:30.331417,7630,0.024805,0.279341,2.065157,-0.171338,0.039338,0.994904
2011-09-26T14:01:30.341417,7640,0.016046,0.269254,2.154248,-0.171678,0.038915,0.994348
2011-09-26T14:01:30.351417,7650,0.007287,0.259166,2.243340,-0.172018,0.038491,0.993792
2011-09-26T14:01:30.361417,7660,-0.001472,0.249079,2.332431,-0.172358,0.038067,0.993235
2011-09-26T14:01:30.371417,7670,0.002816,0.255581,2.419283,-0.172832,0.039022,0.993231
2011-09-26T14:01:30.381417,7680,0.007562,0.262666,2.506057,-0.173312,0.040025,0.993246
2011-09-26T14:01:30.391417,7690,0.012307,0.269751,2.592831,-0.173791,0.041028,0.993262
2011-09-26T14:01:30.401417,7700,0.017053,0.276835,2.679605,-0.174270,0.042031,0.993277
2011-09-26T14:01:30.411417,7710,0.021798,0.283920,2.766379,-0.174749,0.043034,0.993292
2011-09-26T14:01:30.421417,7720,0.026544,0.291005,2.853153,-0.175229,0.044037,0.993307
2011-09-26T14:01:30.431417,7730,0.031289,0.298089,2.939926,-0.175708,0.045040,0.993322
2011-09-26T14:01:30.441417,7740,0.036035,0.305174,3.026700,-0.176187,0.046043,0.993337
2011-09-26T14:01:30.451417,7750,0.040780,0.312259,3.113474,-0.176666,0.047045,0.993353
2011-09-26T14:01:30.461417,7760,0.045526,0.319344,3.200248,-0.177146,0.048048,0.993368
2011-09-26T14:01:30.471417,7770,0.035476,0.326397,3.277593,-0.178312,0.048492,0.993275
2011-09-26T14:01:30.481417,7780,0.024927,0.333450,3.354621,-0.179501,0.048916,0.993179
2011-09-26T14:01:30.491417,7790,0.014379,0.340503,3.431649,-0.180691,0.049341,0.993083
2011-09-26T14:01:30.501417,7800,0.003830,0.347555,3.508677,-0.181880,0.049766,0.992987
2011-09-26T14:01:30.511417,7810,-0.006718,0.354608,3.585705,-0.183069,0.050190,0.992891
2011-09-26T14:01:30.521417,7820,-0.017267,0.361660,3.662733,-0.184259,0.050615,0.992795
2011-09-26T14:01:30.531417,7830,-0.027816,0.368713,3.739760,-0.185448,0.051039,0.992699
2011-09-26T14:01:30.541417,7840,-0.038364,0.375766,3.816788,-0.186637,0.051464,0.992603
2011-09-26T14:01:30.551417,7850,-0.048913,0.382818,3.893816,-0.187827,0.051888,0.992507
2011-09-26T14:01:30.561417,7860,-0.059462,0.389871,3.970844,-0.189016,0.052313,0.992411
2011-09-26T14:01:30.571417,7870,-0.081660,0.368502,4.018838,-0.189589,0.052556,0.992781
2011-09-26T14:01:30.581417,7880,-0.104370,0.345884,4.065556,-0.190135,0.052792,0.993172
2011-09-26T14:01:30.591417,7890,-0.127080,0.323266,4.112275,-0.190681,0.053027,0.993564
2011-09-26T14:01:30.601417,7900,-0.149789,0.300649,4.158993,-0.191227,0.053263,0.993955
2011-09-26T14:01:30.611417,7910,-0.172499,0.278031,4.205712,-0.191773,0.053498,0.994346
2011-09-26T14:01:30.621417,7920,-0.195209,0.255413,4.252430,-0.192320,0.053734,0.994737
2011-09-26T14:01:30.631417,7930,-0.217919,0.232795,4.299148,-0.192866,0.053970,0.995128
2011-09-26T14:01:30.641417,7940,-0.240629,0.210178,4.345867,-0.193412,0.054205,0.995519
2011-09-26T14:01:30.651417,7950,-0.263339,0.187560,4.392585,-0.193958,0.054441,0.995910
2011-09-26T14:01:30.661417,7960,-0.286049,0.164942,4.439304,-0.194504,0.054676,0.996301
2011-09-26T14:01:30.671417,7970,-0.308759,0.142324,4.486022,-0.195050,0.054912,0.996693
2011-09-26T14:01:30.681417,7980,-0.328008,0.143781,4.506205,-0.195232,0.054703,0.996563
2011-09-26T14:01:30.691417,7990,-0.347136,0.146077,4.525462,-0.195401,0.054478,0.996415
2011-09-26T14:01:30.701417,8000,-0.366264,0.148372,4.544720,-0.195571,0.054254,0.996267
2011-09-26T14:01:30.711417,8010,-0.385392,0.150668,4.563977,-0.195740,0.054030,0.996119
2011-09-26T14:01:30.721417,8020,-0.404520,0.152964,4.583235,-0.195909,0.053805,0.995971
2011-09-26T14:01:30.731417,8030,-0.423649,0.155260,4.602493,-0.196079,0.053581,0.995823
2011-09-26T14:01:30.741417,8040,-0.442777,0.157556,4.621750,-0.196248,0.053357,0.995675
2011-09-26T14:01:30.751417,8050,-0.461905,0.159851,4.641008,-0.196417,0.053132,0.995527
2011-09-26T14:01:30.761417,8060,-0.481033,0.162147,4.660265,-0.196586,0.052908,0.995380
2011-09-26T14:01:30.771417,8070,-0.500161,0.164443,4.679523,-0.196756,0.052683,0.995232
2011-09-26T14:01:30.781417,8080,-0.503982,0.156848,4.672159,-0.196533,0.052448,0.995086
2011-09-26T14:01:30.791417,8090,-0.507238,0.148890,4.663816,-0.196296,0.052212,0.994940
2011-09-26T14:01:30.801417,8100,-0.510495,0.140931,4.655473,-0.196059,0.051976,0.994794
2011-09-26T14:01:30.811417,8110,-0.513752,0.132972,4.647130,-0.195821,0.051740,0.994648
2011-09-26T14:01:30.821417,8120,-0.517009,0.125013,4.638787,-0.195584,0.051503,0.994503
2011-09-26T14:01:30.831417,8130,-0.520266,0.117055,4.630444,-0.195347,0.051267,0.994357
2011-09-26T14:01:30.841417,8140,-0.523523,0.109096,4.622101,-0.195110,0.051031,0.994211
2011-09-26T14:01:30.851417,8150,-0.526780,0.101137,4.613758,-0.194873,0.050795,0.994065
2011-09-26T14:01:30.861417,8160,-0.530037,0.093178,4.605415,-0.194635,0.050559,0.993919
2011-09-26T14:01:30.871417,8170,-0.533293,0.085220,4.597072,-0.194398,0.050323,0.993773
2011-09-26T14:01:30.881417,8180,-0.534373,0.086640,4.580770,-0.194365,0.049796,0.993764
2011-09-26T14:01:30.891417,8190,-0.535376,0.088390,4.564189,-0.194339,0.049259,0.993760
2011-09-26T14:01:30.901417,8200,-0.536378,0.090139,4.547607,-0.194313,0.048722,0.993756
2011-09-26T14:01:30.911417,8210,-0.537381,0.091889,4.531026,-0.194287,0.048184,0.993751
2011-09-26T14:01:30.921417,8220,-0.538384,0.093639,4.514445,-0.194261,0.047647,0.993747
2011-09-26T14:01:30.931417,8230,-0.539387,0.095389,4.497863,-0.194235,0.047110,0.993742
2011-09-26T14:01:30.941417,8240,-0.540390,0.097138,4.481282,-0.194209,0.046573,0.993738
2011-09-26T14:01:30.951417,8250,-0.541393,0.098888,4.464700,-0.194183,0.046035,0.993734
2011-09-26T14:01:30.961417,8260,-0.542396,0.100638,4.448119,-0.194157,0.045498,0.993729
2011-09-26T14:01:30.971417,8270,-0.543398,0.102387,4.431537,-0.194131,0.044961,0.993725
2011-09-26T14:01:30.981417,8280,-0.544401,0.104137,4.414956,-0.194105,0.044424,0.993721
2011-09-26T14:01:30.991417,8290,-0.534240,0.095974,4.410965,-0.193716,0.043959,0.994273
2011-09-26T14:01:31.001417,8300,-0.523651,0.087430,4.407456,-0.193312,0.043498,0.994847
2011-09-26T14:01:31.011417,8310,-0.513062,0.078887,4.403947,-0.192909,0.043036,0.995421
2011-09-26T14:01:31.021417,8320,-0.502473,0.070344,4.400438,-0.192505,0.042574,0.995995
2011-09-26T14:01:31.031417,8330,-0.491884,0.061801,4.396929,-0.192102,0.042112,0.996569
2011-09-26T14:01:31.041417,8340,-0.481295,0.053257,4.393420,-0.191698,0.041651,0.997143
2011-09-26T14:01:31.051417,8350,-0.470706,0.044714,4.389911,-0.191294,0.041189,0.997717
2011-09-26T14:01:31.061417,8360,-0.460117,0.036171,4.386402,-0.190891,0.040727,0.998291
2011-09-26T14:01:31.071417,8370,-0.449528,0.027627,4.382893,-0.190487,0.040266,0.998865
2011-09-26T14:01:31.081417,8380,-0.438939,0.019084,4.379384,-0.190084,0.039804,0.999439
2011-09-26T14:01:31.091417,8390,-0.414538,-0.007672,4.395779,-0.183596,0.039112,0.998343
2011-09-26T14:01:31.101417,8400,-0.389373,-0.035434,4.413275,-0.176772,0.038407,0.997154
2011-09-26T14:01:31.111417,8410,-0.364207,-0.063197,4.430772,-0.169947,0.037702,0.995965
2011-09-26T14:01:31.121417,8420,-0.339042,-0.090960,4.448268,-0.163123,0.036997,0.994777
2011-09-26T14:01:31.131417,8430,-0.313877,-0.118722,4.465764,-0.156299,0.036292,0.993588
2011-09-26T14:01:31.141417,8440,-0.288711,-0.146485,4.483260,-0.149475,0.035588,0.992399
2011-09-26T14:01:31.151417,8450,-0.263546,-0.174248,4.500756,-0.142651,0.034883,0.991210
2011-09-26T14:01:31.161417,8460,-0.238381,-0.202010,4.518252,-0.135826,0.034178,0.990022
2011-09-26T14:01:31.171417,8470,-0.213215,-0.229773,4.535749,-0.129002,0.033473,0.988833
2011-09-26T14:01:31.181417,8480,-0.188050,-0.257536,4.553245,-0.122178,0.032768,0.987644
2011-09-26T14:01:31.191417,8490,-0.192303,-0.323805,4.603326,-0.114697,0.033493,0.988074
2011-09-26T14:01:31.201417,8500,-0.197652,-0.391509,4.654622,-0.107191,0.034272,0.988563
2011-09-26T14:01:31.211417,8510,-0.203001,-0.459213,4.705917,-0.099686,0.035050,0.989053
2011-09-26T14:01:31.221417,8520,-0.208350,-0.526917,4.757212,-0.092180,0.035829,0.989543
2011-09-26T14:01:31.231417,8530,-0.213699,-0.594621,4.808508,-0.084675,0.036607,0.990032
2011-09-26T14:01:31.241417,8540,-0.219047,-0.662325,4.859803,-0.077169,0.037386,0.990522
2011-09-26T14:01:31.251417,8550,-0.224396,-0.730029,4.911099,-0.069664,0.038164,0.991012
2011-09-26T14:01:31.261417,8560,-0.229745,-0.797733,4.962394,-0.062158,0.038943,0.991501
2011-09-26T14:01:31.271417,8570,-0.235094,-0.865437,5.013689,-0.054653,0.039721,0.991991
2011-09-26T14:01:31.281417,8580,-0.240443,-0.933141,5.064985,-0.047147,0.040500,0.992481
2011-09-26T14:01:31.291417,8590,-0.245792,-1.000845,5.116280,-0.039642,0.041278,0.992971
2011-09-26T14:01:31.301417,8600,-0.254058,-1.009227,5.136602,-0.037278,0.041696,0.994168
2011-09-26T14:01:31.311417,8610,-0.262440,-1.015246,5.155691,-0.035120,0.042099,0.995395
2011-09-26T14:01:31.321417,8620,-0.270822,-1.021266,5.174779,-0.032962,0.042503,0.996621
2011-09-26T14:01:31.331417,8630,-0.279204,-1.027285,5.193867,-0.030803,0.042906,0.997847
2011-09-26T14:01:31.341417,8640,-0.287586,-1.033304,5.212955,-0.028645,0.043310,0.999073
2011-09-26T14:01:31.351417,8650,-0.295969,-1.039324,5.232044,-0.026486,0.043713,1.000299
2011-09-26T14:01:31.361417,8660,-0.304351,-1.045343,5.251132,-0.024328,0.044116,1.001525
2011-09-26T14:01:31.371417,8670,-0.312733,-1.051362,5.270220,-0.022170,0.044520,1.002751
2011-09-26T14:01:31.381417,8680,-0.321115,-1.057382,5.289309,-0.020011,0.044923,1.003977
2011-09-26T14:01:31.391417,8690,-0.329497,-1.063401,5.308397,-0.017853,0.045327,1.005204
2011-09-26T14:01:31.401417,8700,-0.311187,-1.010136,5.348787,-0.017420,0.044036,1.005707
2011-09-26T14:01:31.411417,8710,-0.291872,-0.954638,5.389979,-0.017052,0.042681,1.006184
2011-09-26T14:01:31.421417,8720,-0.272557,-0.899141,5.431171,-0.016684,0.041326,1.006660
2011-09-26T14:01:31.431417,8730,-0.253242,-0.843644,5.472363,-0.016317,0.039971,1.007137
2011-09-26T14:01:31.441417,8740,-0.233927,-0.788147,5.513556,-0.015949,0.038617,1.007613
2011-09-26T14:01:31.451417,8750,-0.214612,-0.732650,5.554748,-0.015581,0.037262,1.008090
2011-09-26T14:01:31.461417,8760,-0.195297,-0.677153,5.595940,-0.015213,0.035907,1.008566
2011-09-26T14:01:31.471417,8770,-0.175982,-0.621656,5.637132,-0.014845,0.034552,1.009043
2011-09-26T14:01:31.481417,8780,-0.156667,-0.566158,5.678324,-0.014477,0.033198,1.009519
2011-09-26T14:01:31.491417,8790,-0.137352,-0.510661,5.719516,-0.014110,0.031843,1.009996
2011-09-26T14:01:31.501417,8800,-0.107494,-0.440460,5.785286,-0.013699,0.032177,1.009465
2011-09-26T14:01:31.511417,8810,-0.077219,-0.369677,5.852030,-0.013288,0.032578,1.008894
2011-09-26T14:01:31.521417,8820,-0.046943,-0.298894,5.918773,-0.012876,0.032980,1.008323
2011-09-26T14:01:31.531417,8830,-0.016667,-0.228110,5.985517,-0.012464,0.033381,1.007752
2011-09-26T14:01:31.541417,8840,0.013609,-0.157327,6.052261,-0.012052,0.033782,1.007182
2011-09-26T14:01:31.551417,8850,0.043884,-0.086544,6.119004,-0.011640,0.034183,1.006611
2011-09-26T14:01:31.561417,8860,0.074160,-0.015760,6.185748,-0.011228,0.034584,1.006040
2011-09-26T14:01:31.571417,8870,0.104436,0.055023,6.252491,-0.010816,0.034985,1.005469
2011-09-26T14:01:31.581417,8880,0.134711,0.125806,6.319235,-0.010404,0.035387,1.004898
2011-09-26T14:01:31.591417,8890,0.164987,0.196590,6.385978,-0.009993,0.035788,1.004328
2011-09-26T14:01:31.601417,8900,0.195263,0.267373,6.452722,-0.009581,0.036189,1.003757
2011-09-26T14:01:31.611417,8910,0.204195,0.266616,6.499504,-0.009263,0.037353,1.002920
2011-09-26T14:01:31.621417,8920,0.212232,0.262863,6.545449,-0.008949,0.038548,1.002072
2011-09-26T14:01:31.631417,8930,0.220270,0.259109,6.591395,-0.008635,0.039744,1.001224
2011-09-26T14:01:31.641417,8940,0.228308,0.255355,6.637341,-0.008321,0.040939,1.000375
2011-09-26T14:01:31.651417,8950,0.236346,0.251601,6.683287,-0.008007,0.042135,0.999527
2011-09-26T14:01:31.661417,8960,0.244384,0.247847,6.729233,-0.007693,0.043330,0.998679
2011-09-26T14:01:31.671417,8970,0.252421,0.244093,6.775178,-0.007379,0.044526,0.997831
2011-09-26T14:01:31.681417,8980,0.260459,0.240340,6.821124,-0.007065,0.045722,0.996983
2011-09-26T14:01:31.691417,8990,0.268497,0.236586,6.867070,-0.006752,0.046917,0.996135
2011-09-26T14:01:31.701417,9000,0.276535,0.232832,6.913016,-0.006438,0.048113,0.995286
2011-09-26T14:01:31.711417,9010,0.263358,0.220874,6.950528,-0.006768,0.048192,0.995926
2011-09-26T14:01:31.721417,9020,0.249295,0.208573,6.987688,-0.007126,0.048224,0.996627
2011-09-26T14:01:31.731417,9030,0.235233,0.196272,7.024848,-0.007483,0.048256,0.997329
2011-09-26T14:01:31.741417,9040,0.221170,0.183972,7.062008,-0.007841,0.048288,0.998030
2011-09-26T14:01:31.751417,9050,0.207107,0.171671,7.099168,-0.008198,0.048321,0.998732
2011-09-26T14:01:31.761417,9060,0.193045,0.159370,7.136328,-0.008556,0.048353,0.999434
2011-09-26T14:01:31.771417,9070,0.178982,0.147070,7.173488,-0.008913,0.048385,1.000135
2011-09-26T14:01:31.781417,9080,0.164919,0.134769,7.210648,-0.009271,0.048418,1.000837
2011-09-26T14:01:31.791417,9090,0.150857,0.122468,7.247808,-0.009628,0.048450,1.001538
2011-09-26T14:01:31.801417,9100,0.136794,0.110168,7.284968,-0.009986,0.048482,1.002240
2011-09-26T14:01:31.811417,9110,0.111139,0.127214,7.350100,-0.009876,0.048568,1.001882
2011-09-26T14:01:31.821417,9120,0.085004,0.145474,7.416390,-0.009747,0.048655,1.001480
2011-09-26T14:01:31.831417,9130,0.058870,0.163734,7.482679,-0.009618,0.048742,1.001078
2011-09-26T14:01:31.841417,9140,0.032735,0.181994,7.548968,-0.009488,0.048830,1.000677
2011-09-26T14:01:31.851417,9150,0.006601,0.200254,7.615257,-0.009359,0.048917,1.000275
2011-09-26T14:01:31.861417,9160,-0.019534,0.218514,7.681546,-0.009230,0.049005,0.999873
2011-09-26T14:01:31.871417,9170,-0.045668,0.236773,7.747835,-0.009101,0.049092,0.999472
2011-09-26T14:01:31.881417,9180,-0.071803,0.255033,7.814124,-0.008972,0.049180,0.999070
2011-09-26T14:01:31.891417,9190,-0.097937,0.273293,7.880413,-0.008843,0.049267,0.998668
2011-09-26T14:01:31.901417,9200,-0.124071,0.291553,7.946702,-0.008714,0.049355,0.998266
2011-09-26T14:01:31.911417,9210,-0.150206,0.309813,8.012992,-0.008585,0.049442,0.997865
2011-09-26T14:01:31.921417,9220,-0.156294,0.306476,8.051245,-0.008002,0.049801,0.997401
2011-09-26T14:01:31.931417,9230,-0.161517,0.302206,8.088289,-0.007399,0.050173,0.996934
2011-09-26T14:01:31.941417,9240,-0.166740,0.297937,8.125332,-0.006796,0.050544,0.996468
2011-09-26T14:01:31.951417,9250,-0.171963,0.293667,8.162375,-0.006194,0.050915,0.996002
2011-09-26T14:01:31.961417,9260,-0.177186,0.289398,8.199419,-0.005591,0.051286,0.995535
2011-09-26T14:01:31.971417,9270,-0.182409,0.285128,8.236462,-0.004988,0.051657,0.995069
2011-09-26T14:01:31.981417,9280,-0.187632,0.280859,8.273505,-0.004386,0.052028,0.994602
2011-09-26T14:01:31.991417,9290,-0.192855,0.276590,8.310549,-0.003783,0.052399,0.994136
2011-09-26T14:01:32.001417,9300,-0.198078,0.272320,8.347592,-0.003180,0.052770,0.993669
2011-09-26T14:01:32.011417,9310,-0.203301,0.268051,8.384635,-0.002578,0.053141,0.993203
2011-09-26T14:01:32.021417,9320,-0.207892,0.244960,8.414105,-0.001689,0.052697,0.993175
2011-09-26T14:01:32.031417,9330,-0.212455,0.221062,8.443251,-0.000788,0.052218,0.993166
2011-09-26T14:01:32.041417,9340,-0.217019,0.197164,8.472396,0.000113,0.051738,0.993157
2011-09-26T14:01:32.051417,9350,-0.221583,0.173267,8.501542,0.001014,0.051259,0.993148
2011-09-26T14:01:32.061417,9360,-0.226147,0.149369,8.530688,0.001915,0.050779,0.993139
2011-09-26T14:01:32.071417,9370,-0.230711,0.125471,8.559833,0.002816,0.050300,0.993129
2011-09-26T14:01:32.081417,9380,-0.235275,0.101574,8.588979,0.003717,0.049820,0.993120
2011-09-26T14:01:32.091417,9390,-0.239838,0.077676,8.618124,0.004618,0.049341,0.993111
2011-09-26T14:01:32.101417,9400,-0.244402,0.053778,8.647270,0.005519,0.048862,0.993102
2011-09-26T14:01:32.111417,9410,-0.248966,0.029881,8.676415,0.006420,0.048382,0.993093
2011-09-26T14:01:32.121417,9420,-0.261276,0.011745,8.726772,0.008023,0.048368,0.993238
2011-09-26T14:01:32.131417,9430,-0.273943,-0.006125,8.778108,0.009658,0.048376,0.993389
2011-09-26T14:01:32.141417,9440,-0.286610,-0.023995,8.829443,0.011294,0.048383,0.993541
2011-09-26T14:01:32.151417,9450,-0.299276,-0.041865,8.880778,0.012929,0.048391,0.993693
2011-09-26T14:01:32.161417,9460,-0.311943,-0.059735,8.932113,0.014565,0.048398,0.993844
2011-09-26T14:01:32.171417,9470,-0.324610,-0.077604,8.983449,0.016200,0.048406,0.993996
2011-09-26T14:01:32.181417,9480,-0.337277,-0.095474,9.034784,0.017835,0.048414,0.994148
2011-09-26T14:01:32.191417,9490,-0.349944,-0.113344,9.086119,0.019471,0.048421,0.994299
2011-09-26T14:01:32.201417,9500,-0.362611,-0.131214,9.137454,0.021106,0.048429,0.994451
2011-09-26T14:01:32.211417,9510,-0.375278,-0.149084,9.188790,0.022741,0.048436,0.994603
2011-09-26T14:01:32.221417,9520,-0.387945,-0.166954,9.240125,0.024377,0.048444,0.994754
2011-09-26T14:01:32.231417,9530,-0.385794,-0.174361,9.288572,0.026783,0.048385,0.995084
2011-09-26T14:01:32.241417,9540,-0.383010,-0.181321,9.336896,0.029222,0.048323,0.995421
2011-09-26T14:01:32.251417,9550,-0.380226,-0.188281,9.385219,0.031661,0.048261,0.995758
2011-09-26T14:01:32.261417,9560,-0.377442,-0.195241,9.433543,0.034100,0.048199,0.996096
2011-09-26T14:01:32.271417,9570,-0.374658,-0.202200,9.481866,0.036539,0.048137,0.996433
2011-09-26T14:01:32.281417,9580,-0.371874,-0.209160,9.530190,0.038979,0.048075,0.996770
2011-09-26T14:01:32.291417,9590,-0.369090,-0.216120,9.578514,0.041418,0.048013,0.997107
2011-09-26T14:01:32.301417,9600,-0.366306,-0.223080,9.626837,0.043857,0.047951,0.997444
2011-09-26T14:01:32.311417,9610,-0.363522,-0.230039,9.675161,0.046296,0.047889,0.997782
2011-09-26T14:01:32.321417,9620,-0.360738,-0.236999,9.723484,0.048735,0.047827,0.998119
2011-09-26T14:01:32.331417,9630,-0.332181,-0.247067,9.767761,0.051239,0.047890,0.998387
2011-09-26T14:01:32.341417,9640,-0.302125,-0.257317,9.811801,0.053747,0.047960,0.998651
2011-09-26T14:01:32.351417,9650,-0.272069,-0.267566,9.855842,0.056254,0.048031,0.998915
2011-09-26T14:01:32.361417,9660,-0.242013,-0.277815,9.899883,0.058762,0.048101,0.999180
2011-09-26T14:01:32.371417,9670,-0.211957,-0.288064,9.943924,0.061270,0.048172,0.999444
2011-09-26T14:01:32.381417,9680,-0.181901,-0.298313,9.987964,0.063778,0.048242,0.999708
2011-09-26T14:01:32.391417,9690,-0.151845,-0.308562,10.032005,0.066285,0.048312,0.999972
2011-09-26T14:01:32.401417,9700,-0.121789,-0.318811,10.076046,0.068793,0.048383,1.000236
2011-09-26T14:01:32.411417,9710,-0.091733,-0.329060,10.120087,0.071301,0.048453,1.000500
2011-09-26T14:01:32.421417,9720,-0.061677,-0.339309,10.164127,0.073808,0.048524,1.000765
2011-09-26T14:01:32.431417,9730,-0.055377,-0.341368,10.210223,0.075402,0.049086,1.001370
2011-09-26T14:01:32.441417,9740,-0.050367,-0.342982,10.256431,0.076945,0.049675,1.001994
2011-09-26T14:01:32.451417,9750,-0.045357,-0.344596,10.302638,0.078489,0.050265,1.002618
2011-09-26T14:01:32.461417,9760,-0.040347,-0.346211,10.348846,0.080032,0.050854,1.003242
2011-09-26T14:01:32.471417,9770,-0.035337,-0.347825,10.395053,0.081576,0.051443,1.003865
2011-09-26T14:01:32.481417,9780,-0.030327,-0.349439,10.441261,0.083120,0.052032,1.004489
2011-09-26T14:01:32.491417,9790,-0.025317,-0.351053,10.487468,0.084663,0.052622,1.005113
2011-09-26T14:01:32.501417,9800,-0.020306,-0.352667,10.533676,0.086207,0.053211,1.005737
2011-09-26T14:01:32.511417,9810,-0.015296,-0.354282,10.579883,0.087750,0.053800,1.006361
2011-09-26T14:01:32.521417,9820,-0.010286,-0.355896,10.626091,0.089294,0.054389,1.006985
2011-09-26T14:01:32.531417,9830,-0.005276,-0.357510,10.672298,0.090838,0.054979,1.007609
2011-09-26T14:01:32.541417,9840,-0.005338,-0.335156,10.729796,0.091916,0.055460,1.007276
2011-09-26T14:01:32.551417,9850,-0.005720,-0.311287,10.788006,0.092964,0.055935,1.006883
2011-09-26T14:01:32.561417,9860,-0.006102,-0.287419,10.846216,0.094012,0.056410,1.006490
2011-09-26T14:01:32.571417,9870,-0.006485,-0.263551,10.904427,0.095061,0.056885,1.006098
2011-09-26T14:01:32.581417,9880,-0.006867,-0.239683,10.962637,0.096109,0.057359,1.005705
2011-09-26T14:01:32.591417,9890,-0.007249,-0.215815,11.020847,0.097157,0.057834,1.005312
2011-09-26T14:01:32.601417,9900,-0.007631,-0.191947,11.079058,0.098206,0.058309,1.004919
2011-09-26T14:01:32.611417,9910,-0.008013,-0.168079,11.137268,0.099254,0.058784,1.004526
2011-09-26T14:01:32.621417,9920,-0.008396,-0.144211,11.195478,0.100303,0.059259,1.004133
2011-09-26T14:01:32.631417,9930,-0.008778,-0.120343,11.253689,0.101351,0.059734,1.003740
2011-09-26T14:01:32.641417,9940,-0.019937,-0.097130,11.307565,0.101818,0.059978,1.003964
2011-09-26T14:01:32.651417,9950,-0.031645,-0.073951,11.361220,0.102255,0.060210,1.004218
2011-09-26T14:01:32.661417,9960,-0.043353,-0.050772,11.414876,0.102692,0.060442,1.004473
2011-09-26T14:01:32.671417,9970,-0.055060,-0.027593,11.468532,0.103129,0.060674,1.004727
2011-09-26T14:01:32.681417,9980,-0.066768,-0.004414,11.522187,0.103567,0.060906,1.004982
2011-09-26T14:01:32.691417,9990,-0.078476,0.018765,11.575843,0.104004,0.061139,1.005236
2011-09-26T14:01:32.701417,10000,-0.090184,0.041944,11.629499,0.104441,0.061371,1.005491
2011-09-26T14:01:32.711417,10010,-0.101891,0.065123,11.683154,0.104878,0.061603,1.005745
2011-09-26T14:01:32.721417,10020,-0.113599,0.088302,11.736810,0.105316,0.061835,1.006000
2011-09-26T14:01:32.731417,10030,-0.125307,0.111481,11.790466,0.105753,0.062068,1.006254
2011-09-26T14:01:32.741417,10040,-0.137015,0.134660,11.844121,0.106190,0.062300,1.006509
2011-09-26T14:01:32.751417,10050,-0.088854,0.126123,11.889659,0.106384,0.061769,1.005722
2011-09-26T14:01:32.761417,10060,-0.038160,0.116245,11.934852,0.106568,0.061206,1.004890
2011-09-26T14:01:32.771417,10070,0.012535,0.106366,11.980046,0.106752,0.060642,1.004059
2011-09-26T14:01:32.781417,10080,0.063229,0.096488,12.025240,0.106936,0.060079,1.003227
2011-09-26T14:01:32.791417,10090,0.113923,0.086610,12.070434,0.107120,0.059516,1.002396
2011-09-26T14:01:32.801417,10100,0.164618,0.076731,12.115628,0.107303,0.058952,1.001564
2011-09-26T14:01:32.811417,10110,0.215312,0.066853,12.160822,0.107487,0.058389,1.000733
2011-09-26T14:01:32.821417,10120,0.266006,0.056974,12.206015,0.107671,0.057826,0.999901
2011-09-26T14:01:32.831417,10130,0.316701,0.047096,12.251209,0.107855,0.057262,0.999070
2011-09-26T14:01:32.841417,10140,0.367395,0.037218,12.296403,0.108039,0.056699,0.998238
2011-09-26T14:01:32.851417,10150,0.366105,0.015836,12.354344,0.108558,0.058012,0.997857
2011-09-26T14:01:32.861417,10160,0.362405,-0.006079,12.412877,0.109092,0.059412,0.997496
2011-09-26T14:01:32.871417,10170,0.358705,-0.027994,12.471409,0.109626,0.060812,0.997136
2011-09-26T14:01:32.881417,10180,0.355005,-0.049910,12.529941,0.110160,0.062212,0.996776
2011-09-26T14:01:32.891417,10190,0.351305,-0.071825,12.588474,0.110695,0.063612,0.996415
2011-09-26T14:01:32.901417,10200,0.347605,-0.093740,12.647006,0.111229,0.065012,0.996055
2011-09-26T14:01:32.911417,10210,0.343905,-0.115655,12.705538,0.111763,0.066412,0.995694
2011-09-26T14:01:32.921417,10220,0.340204,-0.137570,12.764070,0.112297,0.067812,0.995334
2011-09-26T14:01:32.931417,10230,0.336504,-0.159485,12.822603,0.112832,0.069212,0.994974
2011-09-26T14:01:32.941417,10240,0.332804,-0.181400,12.881135,0.113366,0.070612,0.994613
2011-09-26T14:01:32.951417,10250,0.308961,-0.165966,12.956572,0.114117,0.071779,0.994446
2011-09-26T14:01:32.961417,10260,0.284149,-0.148735,13.032823,0.114878,0.072935,0.994287
2011-09-26T14:01:32.971417,10270,0.259337,-0.131504,13.109074,0.115639,0.074090,0.994129
2011-09-26T14:01:32.981417,10280,0.234525,-0.114273,13.185325,0.116400,0.075246,0.993971
2011-09-26T14:01:32.991417,10290,0.209713,-0.097042,13.261575,0.117161,0.076402,0.993813
2011-09-26T14:01:33.001417,10300,0.184901,-0.079811,13.337826,0.117922,0.077557,0.993654
2011-09-26T14:01:33.011417,10310,0.160089,-0.062580,13.414077,0.118684,0.078713,0.993496
2011-09-26T14:01:33.021417,10320,0.135277,-0.045349,13.490328,0.119445,0.079869,0.993338
2011-09-26T14:01:33.031417,10330,0.110465,-0.028118,13.566578,0.120206,0.081024,0.993179
2011-09-26T14:01:33.041417,10340,0.085653,-0.010887,13.642829,0.120967,0.082180,0.993021
2011-09-26T14:01:33.051417,10350,0.060841,0.006344,13.719080,0.121728,0.083335,0.992863
2011-09-26T14:01:33.061417,10360,0.016552,0.011697,13.792498,0.123057,0.083862,0.992846
2011-09-26T14:01:33.071417,10370,-0.029061,0.016241,13.865724,0.124424,0.084346,0.992840
2011-09-26T14:01:33.081417,10380,-0.074675,0.020786,13.938949,0.125791,0.084831,0.992833
2011-09-26T14:01:33.091417,10390,-0.120288,0.025330,14.012175,0.127158,0.085315,0.992826
2011-09-26T14:01:33.101417,10400,-0.165902,0.029875,14.085401,0.128526,0.085799,0.992820
2011-09-26T14:01:33.111417,10410,-0.211516,0.034420,14.158626,0.129893,0.086283,0.992813
2011-09-26T14:01:33.121417,10420,-0.257129,0.038964,14.231852,0.131260,0.086767,0.992806
2011-09-26T14:01:33.131417,10430,-0.302743,0.043509,14.305077,0.132627,0.087251,0.992800
2011-09-26T14:01:33.141417,10440,-0.348356,0.048053,14.378303,0.133995,0.087735,0.992793
2011-09-26T14:01:33.151417,10450,-0.393970,0.052598,14.451529,0.135362,0.088219,0.992786
2011-09-26T14:01:33.161417,10460,-0.449264,0.030028,14.538481,0.136437,0.088951,0.992889
2011-09-26T14:01:33.171417,10470,-0.505040,0.006112,14.626115,0.137499,0.089695,0.992997
2011-09-26T14:01:33.181417,10480,-0.560815,-0.017805,14.713749,0.138560,0.090440,0.993105
2011-09-26T14:01:33.191417,10490,-0.616591,-0.041721,14.801383,0.139621,0.091184,0.993214
2011-09-26T14:01:33.201417,10500,-0.672366,-0.065637,14.889017,0.140682,0.091928,0.993322
2011-09-26T14:01:33.211417,10510,-0.728142,-0.089554,14.976651,0.141743,0.092673,0.993430
2011-09-26T14:01:33.221417,10520,-0.783917,-0.113470,15.064285,0.142804,0.093417,0.993538
2011-09-26T14:01:33.231417,10530,-0.839692,-0.137386,15.151919,0.143866,0.094161,0.993646
2011-09-26T14:01:33.241417,10540,-0.895468,-0.161302,15.239553,0.144927,0.094906,0.993754
2011-09-26T14:01:33.251417,10550,-0.951243,-0.185219,15.327187,0.145988,0.095650,0.993863
2011-09-26T14:01:33.261417,10560,-0.945142,-0.208338,15.434874,0.147935,0.095041,0.994852
2011-09-26T14:01:33.271417,10570,-0.935570,-0.231413,15.543685,0.149932,0.094357,0.995892
2011-09-26T14:01:33.281417,10580,-0.925999,-0.254488,15.652496,0.151929,0.093673,0.996931
2011-09-26T14:01:33.291417,10590,-0.916427,-0.277563,15.761307,0.153926,0.092988,0.997970
2011-09-26T14:01:33.301417,10600,-0.906856,-0.300638,15.870118,0.155923,0.092304,0.999009
2011-09-26T14:01:33.311417,10610,-0.897284,-0.323713,15.978929,0.157920,0.091619,1.000048
2011-09-26T14:01:33.321417,10620,-0.887713,-0.346788,16.087740,0.159916,0.090935,1.001088
2011-09-26T14:01:33.331417,10630,-0.878141,-0.369863,16.196552,0.161913,0.090250,1.002127
2011-09-26T14:01:33.341417,10640,-0.868570,-0.392938,16.305363,0.163910,0.089566,1.003166
2011-09-26T14:01:33.351417,10650,-0.858999,-0.416012,16.414174,0.165907,0.088881,1.004205
2011-09-26T14:01:33.361417,10660,-0.849427,-0.439087,16.522985,0.167904,0.088197,1.005244
2011-09-26T14:01:33.371417,10670,-0.796606,-0.414338,16.631708,0.169486,0.087758,1.005343
2011-09-26T14:01:33.381417,10680,-0.741628,-0.387203,16.740426,0.171047,0.087332,1.005395
2011-09-26T14:01:33.391417,10690,-0.686650,-0.360068,16.849144,0.172608,0.086906,1.005447
2011-09-26T14:01:33.401417,10700,-0.631671,-0.332933,16.957863,0.174169,0.086479,1.005499
2011-09-26T14:01:33.411417,10710,-0.576693,-0.305798,17.066581,0.175730,0.086053,1.005551
2011-09-26T14:01:33.421417,10720,-0.521715,-0.278663,17.175299,0.177291,0.085627,1.005602
2011-09-26T14:01:33.431417,10730,-0.466736,-0.251528,17.284018,0.178852,0.085200,1.005654
2011-09-26T14:01:33.441417,10740,-0.411758,-0.224393,17.392736,0.180413,0.084774,1.005706
2011-09-26T14:01:33.451417,10750,-0.356780,-0.197258,17.501455,0.181974,0.084347,1.005758
2011-09-26T14:01:33.461417,10760,-0.301802,-0.170123,17.610173,0.183535,0.083921,1.005810
2011-09-26T14:01:33.471417,10770,-0.155040,-0.147779,17.724662,0.184546,0.084326,1.005614
2011-09-26T14:01:33.481417,10780,-0.003670,-0.125675,17.839440,0.185528,0.084772,1.005405
2011-09-26T14:01:33.491417,10790,0.147699,-0.103571,17.954219,0.186511,0.085219,1.005196
2011-09-26T14:01:33.501417,10800,0.299069,-0.081467,18.068997,0.187493,0.085665,1.004988
2011-09-26T14:01:33.511417,10810,0.450438,-0.059363,18.183776,0.188475,0.086111,1.004779
2011-09-26T14:01:33.521417,10820,0.601808,-0.037259,18.298555,0.189458,0.086558,1.004571
2011-09-26T14:01:33.531417,10830,0.753177,-0.015156,18.413333,0.190440,0.087004,1.004362
2011-09-26T14:01:33.541417,10840,0.904547,0.006948,18.528112,0.191423,0.087451,1.004153
2011-09-26T14:01:33.551417,10850,1.055916,0.029052,18.642890,0.192405,0.087897,1.003945
2011-09-26T14:01:33.561417,10860,1.207286,0.051156,18.757669,0.193388,0.088344,1.003736
2011-09-26T14:01:33.571417,10870,1.284221,0.094952,18.871808,0.193827,0.091871,1.003790
2011-09-26T14:01:33.581417,10880,1.355999,0.140250,18.985903,0.194229,0.095611,1.003863
2011-09-26T14:01:33.591417,10890,1.427777,0.185549,19.099999,0.194631,0.099352,1.003935
2011-09-26T14:01:33.601417,10900,1.499556,0.230848,19.214094,0.195033,0.103093,1.004008
2011-09-26T14:01:33.611417,10910,1.571334,0.276147,19.328189,0.195435,0.106833,1.004080
2011-09-26T14:01:33.621417,10920,1.643112,0.321445,19.442284,0.195837,0.110574,1.004153
2011-09-26T14:01:33.631417,10930,1.714890,0.366744,19.556380,0.196239,0.114315,1.004225
2011-09-26T14:01:33.641417,10940,1.786668,0.412043,19.670475,0.196642,0.118055,1.004298
2011-09-26T14:01:33.651417,10950,1.858446,0.457342,19.784570,0.197044,0.121796,1.004370
2011-09-26T14:01:33.661417,10960,1.930225,0.502640,19.898665,0.197446,0.125536,1.004443
2011-09-26T14:01:33.671417,10970,2.002003,0.547939,20.012760,0.197848,0.129277,1.004515
2011-09-26T14:01:33.681417,10980,1.959144,0.554470,20.110987,0.197246,0.132657,1.003543
2011-09-26T14:01:33.691417,10990,1.910783,0.559139,20.208451,0.196597,0.136021,1.002521
2011-09-26T14:01:33.701417,11000,1.862422,0.563809,20.305916,0.195948,0.139384,1.001499
2011-09-26T14:01:33.711417,11010,1.814060,0.568479,20.403380,0.195298,0.142747,1.000477
2011-09-26T14:01:33.721417,11020,1.765699,0.573149,20.500845,0.194649,0.146110,0.999455
2011-09-26T14:01:33.731417,11030,1.717338,0.577819,20.598309,0.194000,0.149473,0.998433
2011-09-26T14:01:33.741417,11040,1.668977,0.582488,20.695774,0.193350,0.152836,0.997411
2011-09-26T14:01:33.751417,11050,1.620616,0.587158,20.793238,0.192701,0.156199,0.996389
2011-09-26T14:01:33.761417,11060,1.572254,0.591828,20.890703,0.192051,0.159562,0.995367
2011-09-26T14:01:33.771417,11070,1.523893,0.596498,20.988167,0.191402,0.162925,0.994345
2011-09-26T14:01:33.781417,11080,1.399181,0.600553,21.093088,0.190402,0.164592,0.994474
2011-09-26T14:01:33.791417,11090,1.270491,0.604576,21.198397,0.189383,0.166169,0.994663
2011-09-26T14:01:33.801417,11100,1.141801,0.608599,21.303706,0.188365,0.167747,0.994852
2011-09-26T14:01:33.811417,11110,1.013111,0.612622,21.409015,0.187346,0.169325,0.995041
2011-09-26T14:01:33.821417,11120,0.884422,0.616645,21.514325,0.186328,0.170903,0.995230
2011-09-26T14:01:33.831417,11130,0.755732,0.620668,21.619634,0.185309,0.172481,0.995419
2011-09-26T14:01:33.841417,11140,0.627042,0.624691,21.724943,0.184291,0.174059,0.995608
2011-09-26T14:01:33.851417,11150,0.498352,0.628714,21.830252,0.183273,0.175637,0.995796
2011-09-26T14:01:33.861417,11160,0.369663,0.632737,21.935561,0.182254,0.177215,0.995985
2011-09-26T14:01:33.871417,11170,0.240973,0.636760,22.040870,0.181236,0.178793,0.996174
2011-09-26T14:01:33.881417,11180,0.130458,0.708033,22.123736,0.178259,0.179157,0.996657
2011-09-26T14:01:33.891417,11190,0.020915,0.782905,22.205400,0.175179,0.179457,0.997155
2011-09-26T14:01:33.901417,11200,-0.088628,0.857778,22.287065,0.172098,0.179757,0.997653
2011-09-26T14:01:33.911417,11210,-0.198170,0.932651,22.368729,0.169017,0.180056,0.998152
2011-09-26T14:01:33.921417,11220,-0.307713,1.007523,22.450394,0.165936,0.180356,0.998650
2011-09-26T14:01:33.931417,11230,-0.417255,1.082396,22.532058,0.162855,0.180656,0.999148
2011-09-26T14:01:33.941417,11240,-0.526798,1.157269,22.613722,0.159774,0.180956,0.999647
2011-09-26T14:01:33.951417,11250,-0.636340,1.232141,22.695387,0.156693,0.181256,1.000145
2011-09-26T14:01:33.961417,11260,-0.745883,1.307014,22.777051,0.153612,0.181555,1.000644
2011-09-26T14:01:33.971417,11270,-0.855425,1.381887,22.858716,0.150531,0.181855,1.001142
2011-09-26T14:01:33.981417,11280,-0.964968,1.456759,22.940380,0.147450,0.182155,1.001640
2011-09-26T14:01:33.991417,11290,-1.014938,1.530752,22.972405,0.142177,0.183664,1.002532
2011-09-26T14:01:34.001417,11300,-1.061760,1.604698,23.001807,0.136788,0.185238,1.003445
2011-09-26T14:01:34.011417,11310,-1.108582,1.678644,23.031210,0.131400,0.186811,1.004357
2011-09-26T14:01:34.021417,11320,-1.155404,1.752590,23.060612,0.126011,0.188384,1.005270
2011-09-26T14:01:34.031417,11330,-1.202225,1.826536,23.090014,0.120622,0.189958,1.006183
2011-09-26T14:01:34.041417,11340,-1.249047,1.900483,23.119416,0.115233,0.191531,1.007095
2011-09-26T14:01:34.051417,11350,-1.295869,1.974429,23.148818,0.109844,0.193104,1.008008
2011-09-26T14:01:34.061417,11360,-1.342691,2.048375,23.178220,0.104455,0.194678,1.008920
2011-09-26T14:01:34.071417,11370,-1.389513,2.122321,23.207622,0.099066,0.196251,1.009833
2011-09-26T14:01:34.081417,11380,-1.436335,2.196267,23.237025,0.093677,0.197825,1.010746
2011-09-26T14:01:34.091417,11390,-1.464516,2.221477,23.254320,0.090057,0.195196,1.009379
2011-09-26T14:01:34.101417,11400,-1.491353,2.243171,23.270742,0.086564,0.192265,1.007848
2011-09-26T14:01:34.111417,11410,-1.518191,2.264865,23.287165,0.083072,0.189334,1.006316
2011-09-26T14:01:34.121417,11420,-1.545028,2.286559,23.303587,0.079579,0.186402,1.004785
2011-09-26T14:01:34.131417,11430,-1.571865,2.308253,23.320009,0.076086,0.183471,1.003254
2011-09-26T14:01:34.141417,11440,-1.598702,2.329947,23.336432,0.072594,0.180540,1.001722
2011-09-26T14:01:34.151417,11450,-1.625539,2.351641,23.352854,0.069101,0.177608,1.000191
2011-09-26T14:01:34.161417,11460,-1.652376,2.373335,23.369276,0.065608,0.174677,0.998660
2011-09-26T14:01:34.171417,11470,-1.679213,2.395029,23.385699,0.062116,0.171746,0.997129
2011-09-26T14:01:34.181417,11480,-1.706050,2.416723,23.402121,0.058623,0.168814,0.995597
2011-09-26T14:01:34.191417,11490,-1.732887,2.438417,23.418543,0.055130,0.165883,0.994066
2011-09-26T14:01:34.201417,11500,-1.617263,2.354528,23.439812,0.053505,0.164793,0.990775
2011-09-26T14:01:34.211417,11510,-1.493445,2.264565,23.461359,0.051988,0.163809,0.987382
2011-09-26T14:01:34.221417,11520,-1.369626,2.174603,23.482906,0.050471,0.162825,0.983989
2011-09-26T14:01:34.231417,11530,-1.245807,2.084641,23.504453,0.048953,0.161841,0.980597
2011-09-26T14:01:34.241417,11540,-1.121988,1.994679,23.526000,0.047436,0.160857,0.977204
2011-09-26T14:01:34.251417,11550,-0.998170,1.904716,23.547547,0.045919,0.159873,0.973812
2011-09-26T14:01:34.261417,11560,-0.874351,1.814754,23.569094,0.044401,0.158889,0.970419
2011-09-26T14:01:34.271417,11570,-0.750532,1.724792,23.590642,0.042884,0.157905,0.967026
2011-09-26T14:01:34.281417,11580,-0.626713,1.634830,23.612189,0.041366,0.156920,0.963634
2011-09-26T14:01:34.291417,11590,-0.502894,1.544867,23.633736,0.039849,0.155936,0.960241
2011-09-26T14:01:34.301417,11600,-0.383526,1.449262,23.633259,0.040269,0.157839,0.962986
2011-09-26T14:01:34.311417,11610,-0.264422,1.353321,23.631477,0.040804,0.159913,0.966095
2011-09-26T14:01:34.321417,11620,-0.145317,1.257380,23.629694,0.041338,0.161986,0.969204
2011-09-26T14:01:34.331417,11630,-0.026213,1.161439,23.627911,0.041873,0.164060,0.972313
2011-09-26T14:01:34.341417,11640,0.092892,1.065499,23.626128,0.042408,0.166134,0.975422
2011-09-26T14:01:34.351417,11650,0.211996,0.969558,23.624345,0.042943,0.168208,0.978531
2011-09-26T14:01:34.361417,11660,0.331101,0.873617,23.622562,0.043477,0.170281,0.981640
2011-09-26T14:01:34.371417,11670,0.450205,0.777676,23.620779,0.044012,0.172355,0.984749
2011-09-26T14:01:34.381417,11680,0.569309,0.681736,23.618996,0.044547,0.174429,0.987858
2011-09-26T14:01:34.391417,11690,0.688414,0.585795,23.617213,0.045082,0.176502,0.990967
2011-09-26T14:01:34.401417,11700,0.721337,0.618738,23.648243,0.045144,0.176311,0.995136
2011-09-26T14:01:34.411417,11710,0.748819,0.659819,23.681345,0.045178,0.175977,0.999372
2011-09-26T14:01:34.421417,11720,0.776300,0.700901,23.714448,0.045211,0.175642,1.003609
2011-09-26T14:01:34.431417,11730,0.803781,0.741983,23.747550,0.045244,0.175308,1.007845
2011-09-26T14:01:34.441417,11740,0.831263,0.783065,23.780653,0.045277,0.174973,1.012081
2011-09-26T14:01:34.451417,11750,0.858744,0.824147,23.813755,0.045310,0.174639,1.016318
2011-09-26T14:01:34.461417,11760,0.886225,0.865229,23.846857,0.045343,0.174304,1.020554
2011-09-26T14:01:34.471417,11770,0.913707,0.906310,23.879960,0.045376,0.173970,1.024790
2011-09-26T14:01:34.481417,11780,0.941188,0.947392,23.913062,0.045409,0.173635,1.029027
2011-09-26T14:01:34.491417,11790,0.968669,0.988474,23.946164,0.045442,0.173301,1.033263
2011-09-26T14:01:34.501417,11800,0.969476,1.048990,23.969376,0.045721,0.176057,1.029710
2011-09-26T14:01:34.511417,11810,0.968656,1.110693,23.991984,0.046015,0.179002,1.025683
2011-09-26T14:01:34.521417,11820,0.967835,1.172395,24.014593,0.046309,0.181946,1.021655
2011-09-26T14:01:34.531417,11830,0.967015,1.234097,24.037201,0.046603,0.184891,1.017627
2011-09-26T14:01:34.541417,11840,0.966194,1.295799,24.059810,0.046897,0.187835,1.013600
2011-09-26T14:01:34.551417,11850,0.965374,1.357501,24.082418,0.047191,0.190780,1.009572
2011-09-26T14:01:34.561417,11860,0.964553,1.419203,24.105026,0.047485,0.193724,1.005544
2011-09-26T14:01:34.571417,11870,0.963733,1.480905,24.127635,0.047779,0.196669,1.001516
2011-09-26T14:01:34.581417,11880,0.962913,1.542607,24.150243,0.048073,0.199613,0.997489
2011-09-26T14:01:34.591417,11890,0.962092,1.604309,24.172851,0.048367,0.202558,0.993461
2011-09-26T14:01:34.601417,11900,0.961272,1.666011,24.195460,0.048662,0.205502,0.989433
2011-09-26T14:01:34.611417,11910,0.916130,1.620186,24.193267,0.048354,0.206359,0.986803
2011-09-26T14:01:34.621417,11920,0.868428,1.568151,24.189641,0.048012,0.207095,0.984253
2011-09-26T14:01:34.631417,11930,0.820726,1.516115,24.186015,0.047670,0.207831,0.981703
2011-09-26T14:01:34.641417,11940,0.773023,1.464079,24.182389,0.047328,0.208566,0.979153
2011-09-26T14:01:34.651417,11950,0.725321,1.412043,24.178763,0.046986,0.209302,0.976603
2011-09-26T14:01:34.661417,11960,0.677619,1.360007,24.175137,0.046644,0.210038,0.974054
2011-09-26T14:01:34.671417,11970,0.629917,1.307971,24.171511,0.046302,0.210774,0.971504
2011-09-26T14:01:34.681417,11980,0.582215,1.255935,24.167885,0.045960,0.211510,0.968954
2011-09-26T14:01:34.691417,11990,0.534513,1.203899,24.164259,0.045618,0.212246,0.966404
2011-09-26T14:01:34.701417,12000,0.486810,1.151864,24.160634,0.045276,0.212982,0.963854
2011-09-26T14:01:34.711417,12010,0.450698,1.110114,24.166117,0.045295,0.211752,0.965410
2011-09-26T14:01:34.721417,12020,0.415248,1.068952,24.172122,0.045334,0.210409,0.967201
2011-09-26T14:01:34.731417,12030,0.379798,1.027791,24.178127,0.045373,0.209067,0.968992
2011-09-26T14:01:34.741417,12040,0.344348,0.986629,24.184132,0.045413,0.207724,0.970783
2011-09-26T14:01:34.751417,12050,0.308899,0.945468,24.190137,0.045452,0.206382,0.972574
2011-09-26T14:01:34.761417,12060,0.273449,0.904306,24.196142,0.045491,0.205040,0.974365
2011-09-26T14:01:34.771417,12070,0.237999,0.863145,24.202147,0.045530,0.203697,0.976156
2011-09-26T14:01:34.781417,12080,0.202549,0.821984,24.208152,0.045569,0.202355,0.977947
2011-09-26T14:01:34.791417,12090,0.167099,0.780822,24.214157,0.045609,0.201012,0.979738
2011-09-26T14:01:34.801417,12100,0.131650,0.739661,24.220162,0.045648,0.199670,0.981529
2011-09-26T14:01:34.811417,12110,0.096200,0.698499,24.226167,0.045687,0.198328,0.983320
2011-09-26T14:01:34.821417,12120,0.123132,0.702002,24.235274,0.046119,0.197288,0.984876
2011-09-26T14:01:34.831417,12130,0.153772,0.708159,24.244566,0.046573,0.196266,0.986418
2011-09-26T14:01:34.841417,12140,0.184411,0.714317,24.253858,0.047028,0.195245,0.987960
2011-09-26T14:01:34.851417,12150,0.215051,0.720474,24.263150,0.047483,0.194223,0.989502
2011-09-26T14:01:34.861417,12160,0.245691,0.726632,24.272441,0.047938,0.193202,0.991044
2011-09-26T14:01:34.871417,12170,0.276331,0.732789,24.281733,0.048393,0.192180,0.992586
2011-09-26T14:01:34.881417,12180,0.306971,0.738946,24.291025,0.048848,0.191159,0.994128
2011-09-26T14:01:34.891417,12190,0.337610,0.745104,24.300317,0.049302,0.190137,0.995670
2011-09-26T14:01:34.901417,12200,0.368250,0.751261,24.309609,0.049757,0.189115,0.997212
2011-09-26T14:01:34.911417,12210,0.398890,0.757419,24.318900,0.050212,0.188094,0.998754
2011-09-26T14:01:34.921417,12220,0.374481,0.744959,24.332653,0.049734,0.190416,0.998984
2011-09-26T14:01:34.931417,12230,0.346812,0.731398,24.346670,0.049200,0.192936,0.999137
2011-09-26T14:01:34.941417,12240,0.319144,0.717836,24.360687,0.048667,0.195457,0.999290
2011-09-26T14:01:34.951417,12250,0.291475,0.704274,24.374704,0.048133,0.197977,0.999443
2011-09-26T14:01:34.961417,12260,0.263806,0.690712,24.388721,0.047599,0.200497,0.999596
2011-09-26T14:01:34.971417,12270,0.236137,0.677151,24.402738,0.047066,0.203017,0.999750
2011-09-26T14:01:34.981417,12280,0.208468,0.663589,24.416755,0.046532,0.205538,0.999903
2011-09-26T14:01:34.991417,12290,0.180800,0.650027,24.430772,0.045998,0.208058,1.000056
2011-09-26T14:01:35.001417,12300,0.153131,0.636465,24.444789,0.045465,0.210578,1.000209
2011-09-26T14:01:35.011417,12310,0.125462,0.622903,24.458806,0.044931,0.213099,1.000362
2011-09-26T14:01:35.021417,12320,0.149191,0.627524,24.439371,0.045140,0.212576,1.000683
2011-09-26T14:01:35.031417,12330,0.175912,0.633203,24.417988,0.045391,0.211877,1.001015
2011-09-26T14:01:35.041417,12340,0.202634,0.638881,24.396606,0.045643,0.211177,1.001346
2011-09-26T14:01:35.051417,12350,0.229355,0.644560,24.375224,0.045895,0.210478,1.001677
2011-09-26T14:01:35.061417,12360,0.256076,0.650239,24.353841,0.046146,0.209778,1.002009
2011-09-26T14:01:35.071417,12370,0.282797,0.655917,24.332459,0.046398,0.209079,1.002340
2011-09-26T14:01:35.081417,12380,0.309518,0.661596,24.311077,0.046650,0.208379,1.002671
2011-09-26T14:01:35.091417,12390,0.336239,0.667275,24.289695,0.046901,0.207680,1.003003
2011-09-26T14:01:35.101417,12400,0.362960,0.672953,24.268312,0.047153,0.206980,1.003334
2011-09-26T14:01:35.111417,12410,0.389682,0.678632,24.246930,0.047405,0.206281,1.003665
2011-09-26T14:01:35.121417,12420,0.416403,0.684311,24.225548,0.047656,0.205581,1.003997
2011-09-26T14:01:35.131417,12430,0.422983,0.736171,24.201206,0.047021,0.205391,1.003451
2011-09-26T14:01:35.141417,12440,0.428145,0.791286,24.176656,0.046322,0.205236,1.002842
2011-09-26T14:01:35.151417,12450,0.433306,0.846400,24.152106,0.045624,0.205081,1.002234
2011-09-26T14:01:35.161417,12460,0.438468,0.901515,24.127556,0.044925,0.204926,1.001626
2011-09-26T14:01:35.171417,12470,0.443629,0.956629,24.103006,0.044227,0.204771,1.001018
2011-09-26T14:01:35.181417,12480,0.448791,1.011743,24.078456,0.043528,0.204616,1.000410
2011-09-26T14:01:35.191417,12490,0.453952,1.066858,24.053906,0.042830,0.204461,0.999802
2011-09-26T14:01:35.201417,12500,0.459114,1.121972,24.029356,0.042131,0.204306,0.999194
2011-09-26T14:01:35.211417,12510,0.464276,1.177087,24.004806,0.041433,0.204152,0.998586
2011-09-26T14:01:35.221417,12520,0.469437,1.232201,23.980255,0.040734,0.203997,0.997978
2011-09-26T14:01:35.231417,12530,0.494334,1.202385,23.951099,0.039693,0.204601,0.996606
2011-09-26T14:01:35.241417,12540,0.520386,1.167598,23.921673,0.038631,0.205250,0.995190
2011-09-26T14:01:35.251417,12550,0.546438,1.132811,23.892247,0.037568,0.205898,0.993774
2011-09-26T14:01:35.261417,12560,0.572490,1.098024,23.862821,0.036506,0.206547,0.992358
2011-09-26T14:01:35.271417,12570,0.598542,1.063237,23.833395,0.035444,0.207195,0.990942
2011-09-26T14:01:35.281417,12580,0.624594,1.028450,23.803969,0.034382,0.207844,0.989526
2011-09-26T14:01:35.291417,12590,0.650646,0.993663,23.774543,0.033320,0.208493,0.988110
2011-09-26T14:01:35.301417,12600,0.676698,0.958876,23.745117,0.032258,0.209141,0.986694
2011-09-26T14:01:35.311417,12610,0.702750,0.924089,23.715691,0.031196,0.209790,0.985278
2011-09-26T14:01:35.321417,12620,0.728803,0.889302,23.686265,0.030134,0.210438,0.983862
2011-09-26T14:01:35.331417,12630,0.733436,0.829776,23.666423,0.031065,0.210324,0.984093
2011-09-26T14:01:35.341417,12640,0.736415,0.768339,23.647321,0.032151,0.210151,0.984452
2011-09-26T14:01:35.351417,12650,0.739394,0.706902,23.628218,0.033236,0.209977,0.984810
2011-09-26T14:01:35.361417,12660,0.742373,0.645466,23.609116,0.034321,0.209804,0.985169
2011-09-26T14:01:35.371417,12670,0.745352,0.584029,23.590014,0.035406,0.209630,0.985527
2011-09-26T14:01:35.381417,12680,0.748331,0.522592,23.570912,0.036491,0.209457,0.985886
2011-09-26T14:01:35.391417,12690,0.751310,0.461155,23.551809,0.037576,0.209284,0.986245
2011-09-26T14:01:35.401417,12700,0.754289,0.399718,23.532707,0.038661,0.209110,0.986603
2011-09-26T14:01:35.411417,12710,0.757268,0.338281,23.513605,0.039747,0.208937,0.986962
2011-09-26T14:01:35.421417,12720,0.760247,0.276844,23.494503,0.040832,0.208763,0.987320
2011-09-26T14:01:35.431417,12730,0.763226,0.215408,23.475400,0.041917,0.208590,0.987679
2011-09-26T14:01:35.441417,12740,0.725572,0.232738,23.455203,0.042828,0.209235,0.988407
2011-09-26T14:01:35.451417,12750,0.685452,0.254848,23.434940,0.043729,0.209930,0.989157
2011-09-26T14:01:35.461417,12760,0.645333,0.276958,23.414677,0.044629,0.210625,0.989907
2011-09-26T14:01:35.471417,12770,0.605213,0.299067,23.394413,0.045530,0.211319,0.990658
2011-09-26T14:01:35.481417,12780,0.565093,0.321177,23.374150,0.046430,0.212014,0.991408
2011-09-26T14:01:35.491417,12790,0.524974,0.343287,23.353886,0.047331,0.212709,0.992158
2011-09-26T14:01:35.501417,12800,0.484854,0.365396,23.333623,0.048231,0.213404,0.992908
2011-09-26T14:01:35.511417,12810,0.444735,0.387506,23.313359,0.049132,0.214099,0.993658
2011-09-26T14:01:35.521417,12820,0.404615,0.409616,23.293096,0.050033,0.214793,0.994409
2011-09-26T14:01:35.531417,12830,0.364495,0.431725,23.272833,0.050933,0.215488,0.995159
2011-09-26T14:01:35.541417,12840,0.340493,0.430780,23.183227,0.051614,0.216280,0.995404
2011-09-26T14:01:35.551417,12850,0.317821,0.427933,23.087901,0.052277,0.217080,0.995607
2011-09-26T14:01:35.561417,12860,0.295149,0.425085,22.992574,0.052940,0.217880,0.995810
2011-09-26T14:01:35.571417,12870,0.272476,0.422238,22.897248,0.053604,0.218680,0.996013
2011-09-26T14:01:35.581417,12880,0.249804,0.419390,22.801921,0.054267,0.219480,0.996217
2011-09-26T14:01:35.591417,12890,0.227132,0.416543,22.706595,0.054930,0.220281,0.996420
2011-09-26T14:01:35.601417,12900,0.204460,0.413695,22.611268,0.055593,0.221081,0.996623
2011-09-26T14:01:35.611417,12910,0.181787,0.410848,22.515942,0.056256,0.221881,0.996826
2011-09-26T14:01:35.621417,12920,0.159115,0.408000,22.420615,0.056919,0.222681,0.997029
2011-09-26T14:01:35.631417,12930,0.136443,0.405153,22.325288,0.057582,0.223481,0.997232
2011-09-26T14:01:35.641417,12940,0.113771,0.402306,22.229962,0.058245,0.224281,0.997436
2011-09-26T14:01:35.651417,12950,0.076850,0.428730,22.131930,0.058356,0.222318,0.997439
2011-09-26T14:01:35.661417,12960,0.039000,0.457062,22.033723,0.058430,0.220175,0.997429
2011-09-26T14:01:35.671417,12970,0.001150,0.485395,21.935515,0.058505,0.218032,0.997420
2011-09-26T14:01:35.681417,12980,-0.036699,0.513727,21.837307,0.058579,0.215888,0.997410
2011-09-26T14:01:35.691417,12990,-0.074549,0.542060,21.739099,0.058654,0.213745,0.997400
2011-09-26T14:01:35.701417,13000,-0.112399,0.570393,21.640891,0.058728,0.211602,0.997390
