pc_time,ts_ms,gyroX,gyroY,gyroZ,accelX,accelY,accelZ
2011-09-30T11:50:40.354663,0,0.381084,0.639403,0.084985,0.020378,0.042850,0.976100
2011-09-30T11:50:40.364663,10,0.383384,0.657067,0.086802,0.019699,0.043372,0.978547
2011-09-30T11:50:40.374663,20,0.385683,0.674730,0.088619,0.019019,0.043894,0.980994
2011-09-30T11:50:40.384663,30,0.387983,0.692393,0.090435,0.018340,0.044416,0.983441
2011-09-30T11:50:40.394663,40,0.390282,0.710056,0.092252,0.017660,0.044938,0.985888
2011-09-30T11:50:40.404663,50,0.392582,0.727719,0.094069,0.016981,0.045460,0.988334
2011-09-30T11:50:40.414663,60,0.394881,0.745382,0.095886,0.016301,0.045982,0.990781
2011-09-30T11:50:40.424663,70,0.397181,0.763046,0.097703,0.015622,0.046504,0.993228
2011-09-30T11:50:40.434663,80,0.399480,0.780709,0.099520,0.014942,0.047026,0.995675
2011-09-30T11:50:40.444663,90,0.401780,0.798372,0.101337,0.014263,0.047548,0.998122
2011-09-30T11:50:40.454663,100,0.404079,0.816035,0.103154,0.013583,0.048070,1.000569
2011-09-30T11:50:40.464663,110,0.424577,0.759273,0.110257,0.013582,0.046872,0.997779
2011-09-30T11:50:40.474663,120,0.445101,0.702406,0.117368,0.013582,0.045671,0.994982
2011-09-30T11:50:40.484663,130,0.465625,0.645539,0.124479,0.013581,0.044470,0.992185
2011-09-30T11:50:40.494663,140,0.486150,0.588672,0.131590,0.013581,0.043269,0.989388
2011-09-30T11:50:40.504663,150,0.506674,0.531804,0.138701,0.013581,0.042068,0.986591
2011-09-30T11:50:40.514663,160,0.527198,0.474937,0.145813,0.013581,0.040867,0.983793
2011-09-30T11:50:40.524663,170,0.547722,0.418070,0.152924,0.013580,0.039666,0.980996
2011-09-30T11:50:40.534663,180,0.568246,0.361203,0.160035,0.013580,0.038465,0.978199
2011-09-30T11:50:40.544663,190,0.588770,0.304336,0.167146,0.013580,0.037264,0.975402
2011-09-30T11:50:40.554663,200,0.609294,0.247468,0.174257,0.013579,0.036063,0.972605
2011-09-30T11:50:40.564663,210,0.629802,0.190358,0.181199,0.013582,0.034896,0.969868
2011-09-30T11:50:40.574663,220,0.648940,0.111985,0.173368,0.013895,0.036701,0.972418
2011-09-30T11:50:40.584663,230,0.668077,0.033611,0.165537,0.014207,0.038507,0.974968
2011-09-30T11:50:40.594663,240,0.687214,-0.044763,0.157706,0.014519,0.040313,0.977518
2011-09-30T11:50:40.604663,250,0.706351,-0.123136,0.149874,0.014831,0.042119,0.980069
2011-09-30T11:50:40.614663,260,0.725488,-0.201510,0.142043,0.015143,0.043925,0.982619
2011-09-30T11:50:40.624663,270,0.744626,-0.279883,0.134212,0.015455,0.045730,0.985169
2011-09-30T11:50:40.634663,280,0.763763,-0.358257,0.126381,0.015767,0.047536,0.987719
2011-09-30T11:50:40.644663,290,0.782900,-0.436630,0.118550,0.016079,0.049342,0.990269
2011-09-30T11:50:40.654663,300,0.802037,-0.515004,0.110719,0.016392,0.051148,0.992819
2011-09-30T11:50:40.664663,310,0.820026,-0.591283,0.102795,0.016700,0.052947,0.995346
2011-09-30T11:50:40.674663,320,0.755346,-0.516721,0.088196,0.016774,0.054257,0.996196
2011-09-30T11:50:40.684663,330,0.690665,-0.442159,0.073596,0.016847,0.055567,0.997045
2011-09-30T11:50:40.694663,340,0.625984,-0.367597,0.058997,0.016920,0.056877,0.997894
2011-09-30T11:50:40.704663,350,0.561304,-0.293034,0.044398,0.016994,0.058188,0.998744
2011-09-30T11:50:40.714663,360,0.496623,-0.218472,0.029798,0.017067,0.059498,0.999593
2011-09-30T11:50:40.724663,370,0.431943,-0.143910,0.015199,0.017140,0.060808,1.000442
2011-09-30T11:50:40.734663,380,0.367262,-0.069348,0.000600,0.017213,0.062118,1.001292
2011-09-30T11:50:40.744663,390,0.302581,0.005214,-0.014000,0.017287,0.063428,1.002141
2011-09-30T11:50:40.754663,400,0.237901,0.079776,-0.028599,0.017360,0.064739,1.002990
2011-09-30T11:50:40.764663,410,0.173220,0.154338,-0.043198,0.017433,0.066049,1.003840
2011-09-30T11:50:40.774663,420,0.109616,0.228443,-0.057651,0.017517,0.067308,1.004672
2011-09-30T11:50:40.784663,430,0.127862,0.267797,-0.060926,0.018406,0.064704,1.004161
2011-09-30T11:50:40.794663,440,0.146108,0.307152,-0.064201,0.019295,0.062099,1.003650
2011-09-30T11:50:40.804663,450,0.164353,0.346507,-0.067477,0.020184,0.059494,1.003139
2011-09-30T11:50:40.814663,460,0.182599,0.385862,-0.070752,0.021073,0.056889,1.002629
2011-09-30T11:50:40.824663,470,0.200844,0.425216,-0.074027,0.021962,0.054284,1.002118
2011-09-30T11:50:40.834663,480,0.219090,0.464571,-0.077303,0.022851,0.051680,1.001607
2011-09-30T11:50:40.844663,490,0.237335,0.503926,-0.080578,0.023740,0.049075,1.001096
2011-09-30T11:50:40.854663,500,0.255581,0.543280,-0.083854,0.024629,0.046470,1.000586
2011-09-30T11:50:40.864663,510,0.273826,0.582635,-0.087129,0.025518,0.043865,1.000075
2011-09-30T11:50:40.874663,520,0.292072,0.621990,-0.090404,0.026407,0.041260,0.999564
2011-09-30T11:50:40.884663,530,0.339879,0.624699,-0.086032,0.025686,0.041448,0.999407
2011-09-30T11:50:40.894663,540,0.387698,0.627394,-0.081656,0.024965,0.041636,0.999250
2011-09-30T11:50:40.904663,550,0.435517,0.630088,-0.077281,0.024244,0.041825,0.999092
2011-09-30T11:50:40.914663,560,0.483336,0.632782,-0.072905,0.023523,0.042013,0.998935
2011-09-30T11:50:40.924663,570,0.531155,0.635476,-0.068529,0.022802,0.042202,0.998778
2011-09-30T11:50:40.934663,580,0.578975,0.638170,-0.064154,0.022081,0.042390,0.998621
2011-09-30T11:50:40.944663,590,0.626794,0.640865,-0.059778,0.021359,0.042579,0.998464
2011-09-30T11:50:40.954663,600,0.674613,0.643559,-0.055402,0.020638,0.042767,0.998306
2011-09-30T11:50:40.964663,610,0.722432,0.646253,-0.051027,0.019917,0.042956,0.998149
2011-09-30T11:50:40.974663,620,0.770251,0.648947,-0.046651,0.019196,0.043144,0.997992
2011-09-30T11:50:40.984663,630,0.686307,0.635311,-0.034347,0.018172,0.044563,0.994723
2011-09-30T11:50:40.994663,640,0.601911,0.621620,-0.022016,0.017147,0.045985,0.991442
2011-09-30T11:50:41.004663,650,0.517516,0.607928,-0.009685,0.016122,0.047407,0.988162
2011-09-30T11:50:41.014663,660,0.433120,0.594236,0.002646,0.015097,0.048829,0.984882
2011-09-30T11:50:41.024663,670,0.348724,0.580544,0.014977,0.014073,0.050252,0.981602
2011-09-30T11:50:41.034663,680,0.264328,0.566852,0.027307,0.013048,0.051674,0.978322
2011-09-30T11:50:41.044663,690,0.179932,0.553160,0.039638,0.012023,0.053096,0.975041
2011-09-30T11:50:41.054663,700,0.095536,0.539469,0.051969,0.010998,0.054518,0.971761
2011-09-30T11:50:41.064663,710,0.011140,0.525777,0.064300,0.009973,0.055941,0.968481
2011-09-30T11:50:41.074663,720,-0.073256,0.512085,0.076631,0.008948,0.057363,0.965201
2011-09-30T11:50:41.084663,730,-0.157194,0.497772,0.088926,0.007932,0.058782,0.961954
2011-09-30T11:50:41.094663,740,-0.173186,0.391239,0.095881,0.008105,0.059652,0.963641
2011-09-30T11:50:41.104663,750,-0.189177,0.284706,0.102836,0.008279,0.060522,0.965329
2011-09-30T11:50:41.114663,760,-0.205169,0.178173,0.109791,0.008452,0.061392,0.967016
2011-09-30T11:50:41.124663,770,-0.221161,0.071640,0.116745,0.008626,0.062263,0.968703
2011-09-30T11:50:41.134663,780,-0.237153,-0.034893,0.123700,0.008799,0.063133,0.970390
2011-09-30T11:50:41.144663,790,-0.253144,-0.141426,0.130655,0.008973,0.064003,0.972078
2011-09-30T11:50:41.154663,800,-0.269136,-0.247959,0.137610,0.009146,0.064873,0.973765
2011-09-30T11:50:41.164663,810,-0.285128,-0.354492,0.144564,0.009320,0.065744,0.975452
2011-09-30T11:50:41.174663,820,-0.301120,-0.461025,0.151519,0.009493,0.066614,0.977140
2011-09-30T11:50:41.184663,830,-0.318163,-0.566932,0.158282,0.009679,0.067462,0.978857
2011-09-30T11:50:41.194663,840,-0.407254,-0.629923,0.151911,0.010713,0.066753,0.982616
2011-09-30T11:50:41.204663,850,-0.496346,-0.692915,0.145541,0.011746,0.066045,0.986375
2011-09-30T11:50:41.214663,860,-0.585438,-0.755906,0.139170,0.012779,0.065337,0.990134
2011-09-30T11:50:41.224663,870,-0.674529,-0.818898,0.132799,0.013813,0.064629,0.993894
2011-09-30T11:50:41.234663,880,-0.763621,-0.881890,0.126428,0.014846,0.063921,0.997653
2011-09-30T11:50:41.244663,890,-0.852713,-0.944881,0.120057,0.015879,0.063213,1.001412
2011-09-30T11:50:41.254663,900,-0.941804,-1.007873,0.113686,0.016913,0.062505,1.005171
2011-09-30T11:50:41.264663,910,-1.030896,-1.070864,0.107315,0.017946,0.061797,1.008931
2011-09-30T11:50:41.274663,920,-1.119987,-1.133856,0.100944,0.018980,0.061089,1.012690
2011-09-30T11:50:41.284663,930,-1.209079,-1.196847,0.094573,0.020013,0.060381,1.016449
2011-09-30T11:50:41.294663,940,-1.297876,-1.257966,0.088021,0.021030,0.059670,1.020165
2011-09-30T11:50:41.304663,950,-1.367523,-1.197598,0.069692,0.020981,0.058783,1.021065
2011-09-30T11:50:41.314663,960,-1.437170,-1.137230,0.051364,0.020931,0.057896,1.021966
2011-09-30T11:50:41.324663,970,-1.506817,-1.076862,0.033035,0.020882,0.057008,1.022867
2011-09-30T11:50:41.334663,980,-1.576465,-1.016494,0.014707,0.020833,0.056121,1.023767
2011-09-30T11:50:41.344663,990,-1.646112,-0.956126,-0.003622,0.020784,0.055234,1.024668
2011-09-30T11:50:41.354663,1000,-1.715759,-0.895759,-0.021951,0.020734,0.054347,1.025569
2011-09-30T11:50:41.364663,1010,-1.785407,-0.835391,-0.040279,0.020685,0.053460,1.026469
2011-09-30T11:50:41.374663,1020,-1.855054,-0.775023,-0.058608,0.020636,0.052572,1.027370
2011-09-30T11:50:41.384663,1030,-1.924701,-0.714655,-0.076936,0.020587,0.051685,1.028270
2011-09-30T11:50:41.394663,1040,-1.992053,-0.654272,-0.094885,0.020539,0.050792,1.029138
2011-09-30T11:50:41.404663,1050,-1.925611,-0.592981,-0.090671,0.020607,0.049531,1.028080
2011-09-30T11:50:41.414663,1060,-1.859169,-0.531690,-0.086457,0.020675,0.048271,1.027023
2011-09-30T11:50:41.424663,1070,-1.792727,-0.470400,-0.082244,0.020743,0.047010,1.025965
2011-09-30T11:50:41.434663,1080,-1.726285,-0.409109,-0.078030,0.020811,0.045750,1.024907
2011-09-30T11:50:41.444663,1090,-1.659843,-0.347818,-0.073817,0.020879,0.044490,1.023849
2011-09-30T11:50:41.454663,1100,-1.593400,-0.286527,-0.069603,0.020947,0.043229,1.022792
2011-09-30T11:50:41.464663,1110,-1.526958,-0.225237,-0.065390,0.021015,0.041969,1.021734
2011-09-30T11:50:41.474663,1120,-1.460516,-0.163946,-0.061176,0.021083,0.040708,1.020676
2011-09-30T11:50:41.484663,1130,-1.394074,-0.102655,-0.056963,0.021151,0.039448,1.019619
2011-09-30T11:50:41.494663,1140,-1.327632,-0.041364,-0.052749,0.021219,0.038187,1.018561
2011-09-30T11:50:41.504663,1150,-1.260115,-0.000448,-0.049146,0.021666,0.036826,1.017951
2011-09-30T11:50:41.514663,1160,-1.192575,0.040026,-0.045557,0.022121,0.035462,1.017352
2011-09-30T11:50:41.524663,1170,-1.125034,0.080500,-0.041967,0.022576,0.034098,1.016752
2011-09-30T11:50:41.534663,1180,-1.057494,0.120975,-0.038378,0.023031,0.032734,1.016152
2011-09-30T11:50:41.544663,1190,-0.989953,0.161449,-0.034788,0.023486,0.031370,1.015552
2011-09-30T11:50:41.554663,1200,-0.922413,0.201923,-0.031199,0.023941,0.030007,1.014952
2011-09-30T11:50:41.564663,1210,-0.854872,0.242397,-0.027609,0.024396,0.028643,1.014352
2011-09-30T11:50:41.574663,1220,-0.787332,0.282872,-0.024019,0.024851,0.027279,1.013752
2011-09-30T11:50:41.584663,1230,-0.719791,0.323346,-0.020430,0.025306,0.025915,1.013152
2011-09-30T11:50:41.594663,1240,-0.652251,0.363820,-0.016840,0.025761,0.024551,1.012552
2011-09-30T11:50:41.604663,1250,-0.583156,0.405164,-0.013647,0.026199,0.023193,1.011941
2011-09-30T11:50:41.614663,1260,-0.430171,0.493430,-0.031817,0.025746,0.022167,1.010692
2011-09-30T11:50:41.624663,1270,-0.277187,0.581697,-0.049988,0.025292,0.021140,1.009443
2011-09-30T11:50:41.634663,1280,-0.124202,0.669963,-0.068159,0.024838,0.020114,1.008195
2011-09-30T11:50:41.644663,1290,0.028783,0.758229,-0.086330,0.024385,0.019087,1.006946
2011-09-30T11:50:41.654663,1300,0.181767,0.846496,-0.104501,0.023931,0.018061,1.005697
2011-09-30T11:50:41.664663,1310,0.334752,0.934762,-0.122672,0.023478,0.017034,1.004448
2011-09-30T11:50:41.674663,1320,0.487737,1.023028,-0.140843,0.023024,0.016008,1.003200
2011-09-30T11:50:41.684663,1330,0.640721,1.111295,-0.159014,0.022570,0.014981,1.001951
2011-09-30T11:50:41.694663,1340,0.793706,1.199561,-0.177185,0.022117,0.013955,1.000702
2011-09-30T11:50:41.704663,1350,0.945753,1.285950,-0.195022,0.021655,0.012948,0.999420
2011-09-30T11:50:41.714663,1360,1.039012,1.254601,-0.191949,0.020676,0.013182,0.996030
2011-09-30T11:50:41.724663,1370,1.132272,1.223253,-0.188876,0.019696,0.013416,0.992640
2011-09-30T11:50:41.734663,1380,1.225531,1.191904,-0.185803,0.018717,0.013649,0.989250
2011-09-30T11:50:41.744663,1390,1.318791,1.160556,-0.182730,0.017737,0.013883,0.985861
2011-09-30T11:50:41.754663,1400,1.412051,1.129207,-0.179657,0.016758,0.014117,0.982471
2011-09-30T11:50:41.764663,1410,1.505310,1.097859,-0.176584,0.015779,0.014351,0.979081
2011-09-30T11:50:41.774663,1420,1.598570,1.066511,-0.173512,0.014799,0.014585,0.975691
2011-09-30T11:50:41.784663,1430,1.691829,1.035162,-0.170439,0.013820,0.014819,0.972302
2011-09-30T11:50:41.794663,1440,1.785089,1.003814,-0.167366,0.012840,0.015052,0.968912
2011-09-30T11:50:41.804663,1450,1.878348,0.972465,-0.164293,0.011861,0.015286,0.965522
2011-09-30T11:50:41.814663,1460,1.969785,0.938920,-0.160863,0.010893,0.015548,0.962179
2011-09-30T11:50:41.824663,1470,1.923794,0.739701,-0.130514,0.010808,0.017954,0.962396
2011-09-30T11:50:41.834663,1480,1.877802,0.540481,-0.100166,0.010722,0.020359,0.962613
2011-09-30T11:50:41.844663,1490,1.831811,0.341262,-0.069818,0.010636,0.022765,0.962830
2011-09-30T11:50:41.854663,1500,1.785819,0.142043,-0.039469,0.010550,0.025170,0.963047
2011-09-30T11:50:41.864663,1510,1.739827,-0.057177,-0.009121,0.010465,0.027576,0.963263
2011-09-30T11:50:41.874663,1520,1.693836,-0.256396,0.021228,0.010379,0.029981,0.963480
2011-09-30T11:50:41.884663,1530,1.647844,-0.455615,0.051576,0.010293,0.032386,0.963697
2011-09-30T11:50:41.894663,1540,1.601853,-0.654835,0.081925,0.010207,0.034792,0.963914
2011-09-30T11:50:41.904663,1550,1.555861,-0.854054,0.112273,0.010122,0.037197,0.964130
2011-09-30T11:50:41.914663,1560,1.509758,-1.049851,0.142003,0.010052,0.039617,0.964440
2011-09-30T11:50:41.924663,1570,1.457173,-1.046222,0.135722,0.010901,0.042858,0.970176
2011-09-30T11:50:41.934663,1580,1.404587,-1.042592,0.129440,0.011750,0.046100,0.975912
2011-09-30T11:50:41.944663,1590,1.352001,-1.038963,0.123158,0.012599,0.049341,0.981647
2011-09-30T11:50:41.954663,1600,1.299416,-1.035333,0.116877,0.013448,0.052583,0.987383
2011-09-30T11:50:41.964663,1610,1.246830,-1.031704,0.110595,0.014297,0.055824,0.993119
2011-09-30T11:50:41.974663,1620,1.194245,-1.028074,0.104313,0.015145,0.059065,0.998854
2011-09-30T11:50:41.984663,1630,1.141659,-1.024445,0.098032,0.015994,0.062307,1.004590
2011-09-30T11:50:41.994663,1640,1.089073,-1.020815,0.091750,0.016843,0.065548,1.010326
2011-09-30T11:50:42.004663,1650,1.036488,-1.017185,0.085468,0.017692,0.068790,1.016061
2011-09-30T11:50:42.014663,1660,0.983902,-1.013556,0.079186,0.018541,0.072031,1.021797
2011-09-30T11:50:42.024663,1670,0.931316,-1.009926,0.072905,0.019390,0.075273,1.027533
2011-09-30T11:50:42.034663,1680,0.714007,-0.982848,0.041259,0.021748,0.076490,1.027755
2011-09-30T11:50:42.044663,1690,0.496116,-0.955686,0.009524,0.024111,0.077700,1.027957
2011-09-30T11:50:42.054663,1700,0.278225,-0.928525,-0.022212,0.026475,0.078910,1.028159
2011-09-30T11:50:42.064663,1710,0.060335,-0.901363,-0.053947,0.028838,0.080120,1.028362
2011-09-30T11:50:42.074663,1720,-0.157556,-0.874202,-0.085682,0.031201,0.081330,1.028564
2011-09-30T11:50:42.084663,1730,-0.375447,-0.847040,-0.117417,0.033564,0.082540,1.028767
2011-09-30T11:50:42.094663,1740,-0.593338,-0.819879,-0.149153,0.035928,0.083750,1.028969
2011-09-30T11:50:42.104663,1750,-0.811228,-0.792717,-0.180888,0.038291,0.084960,1.029171
2011-09-30T11:50:42.114663,1760,-1.029119,-0.765556,-0.212623,0.040654,0.086170,1.029374
2011-09-30T11:50:42.124663,1770,-1.243106,-0.737554,-0.244018,0.042968,0.087240,1.029528
2011-09-30T11:50:42.134663,1780,-1.232552,-0.661207,-0.255815,0.042450,0.080232,1.026884
2011-09-30T11:50:42.144663,1790,-1.221997,-0.584859,-0.267613,0.041931,0.073225,1.024240
2011-09-30T11:50:42.154663,1800,-1.211443,-0.508512,-0.279411,0.041413,0.066218,1.021596
2011-09-30T11:50:42.164663,1810,-1.200889,-0.432164,-0.291208,0.040894,0.059210,1.018952
2011-09-30T11:50:42.174663,1820,-1.190334,-0.355817,-0.303006,0.040376,0.052203,1.016307
2011-09-30T11:50:42.184663,1830,-1.179780,-0.279470,-0.314804,0.039858,0.045196,1.013663
2011-09-30T11:50:42.194663,1840,-1.169226,-0.203122,-0.326601,0.039339,0.038188,1.011019
2011-09-30T11:50:42.204663,1850,-1.158672,-0.126775,-0.338399,0.038821,0.031181,1.008375
2011-09-30T11:50:42.214663,1860,-1.148117,-0.050428,-0.350196,0.038303,0.024174,1.005731
2011-09-30T11:50:42.224663,1870,-1.137872,0.029465,-0.361781,0.037745,0.017333,1.003069
2011-09-30T11:50:42.234663,1880,-1.147286,0.334845,-0.359805,0.034686,0.021128,0.999216
2011-09-30T11:50:42.244663,1890,-1.156699,0.640225,-0.357829,0.031627,0.024923,0.995364
2011-09-30T11:50:42.254663,1900,-1.166113,0.945605,-0.355852,0.028567,0.028718,0.991511
2011-09-30T11:50:42.264663,1910,-1.175527,1.250985,-0.353876,0.025508,0.032513,0.987659
2011-09-30T11:50:42.274663,1920,-1.184940,1.556365,-0.351900,0.022449,0.036307,0.983806
2011-09-30T11:50:42.284663,1930,-1.194354,1.861745,-0.349924,0.019389,0.040102,0.979954
2011-09-30T11:50:42.294663,1940,-1.203768,2.167125,-0.347948,0.016330,0.043897,0.976101
2011-09-30T11:50:42.304663,1950,-1.213181,2.472505,-0.345972,0.013271,0.047692,0.972249
2011-09-30T11:50:42.314663,1960,-1.222595,2.777885,-0.343996,0.010212,0.051487,0.968396
2011-09-30T11:50:42.324663,1970,-1.232008,3.083265,-0.342020,0.007152,0.055281,0.964544
2011-09-30T11:50:42.334663,1980,-1.237537,3.379367,-0.340042,0.004149,0.058896,0.960728
2011-09-30T11:50:42.344663,1990,-1.015322,3.131558,-0.337951,0.004415,0.051970,0.959051
2011-09-30T11:50:42.354663,2000,-0.793107,2.883749,-0.335861,0.004680,0.045043,0.957373
2011-09-30T11:50:42.364663,2010,-0.570891,2.635941,-0.333771,0.004946,0.038117,0.955696
2011-09-30T11:50:42.374663,2020,-0.348676,2.388132,-0.331680,0.005211,0.031190,0.954018
2011-09-30T11:50:42.384663,2030,-0.126461,2.140323,-0.329590,0.005477,0.024264,0.952341
2011-09-30T11:50:42.394663,2040,0.095754,1.892514,-0.327499,0.005742,0.017337,0.950663
2011-09-30T11:50:42.404663,2050,0.317970,1.644706,-0.325409,0.006008,0.010411,0.948986
2011-09-30T11:50:42.414663,2060,0.540185,1.396897,-0.323319,0.006274,0.003484,0.947309
2011-09-30T11:50:42.424663,2070,0.762400,1.149088,-0.321228,0.006539,-0.003442,0.945631
2011-09-30T11:50:42.434663,2080,0.981897,0.903184,-0.318437,0.006804,-0.010182,0.944104
2011-09-30T11:50:42.444663,2090,1.053666,0.760770,-0.277582,0.007018,-0.006769,0.950736
2011-09-30T11:50:42.454663,2100,1.125435,0.618356,-0.236726,0.007232,-0.003357,0.957368
2011-09-30T11:50:42.464663,2110,1.197204,0.475942,-0.195870,0.007446,0.000056,0.964001
2011-09-30T11:50:42.474663,2120,1.268974,0.333528,-0.155014,0.007661,0.003469,0.970633
2011-09-30T11:50:42.484663,2130,1.340743,0.191114,-0.114158,0.007875,0.006881,0.977265
2011-09-30T11:50:42.494663,2140,1.412512,0.048701,-0.073302,0.008089,0.010294,0.983897
2011-09-30T11:50:42.504663,2150,1.484281,-0.093713,-0.032446,0.008303,0.013707,0.990529
2011-09-30T11:50:42.514663,2160,1.556050,-0.236127,0.008410,0.008517,0.017119,0.997162
2011-09-30T11:50:42.524663,2170,1.627819,-0.378541,0.049266,0.008731,0.020532,1.003794
2011-09-30T11:50:42.534663,2180,1.699588,-0.520955,0.090122,0.008946,0.023945,1.010426
2011-09-30T11:50:42.544663,2190,1.769430,-0.662597,0.130347,0.009175,0.027348,1.016978
2011-09-30T11:50:42.554663,2200,1.670309,-0.736656,0.115187,0.010720,0.029893,1.016497
2011-09-30T11:50:42.564663,2210,1.571189,-0.810714,0.100027,0.012266,0.032438,1.016016
2011-09-30T11:50:42.574663,2220,1.472068,-0.884773,0.084867,0.013811,0.034984,1.015535
2011-09-30T11:50:42.584663,2230,1.372947,-0.958831,0.069707,0.015357,0.037529,1.015054
2011-09-30T11:50:42.594663,2240,1.273827,-1.032890,0.054547,0.016902,0.040075,1.014573
2011-09-30T11:50:42.604663,2250,1.174706,-1.106948,0.039387,0.018448,0.042620,1.014092
2011-09-30T11:50:42.614663,2260,1.075586,-1.181007,0.024227,0.019993,0.045165,1.013611
2011-09-30T11:50:42.624663,2270,0.976465,-1.255065,0.009067,0.021539,0.047711,1.013130
2011-09-30T11:50:42.634663,2280,0.877344,-1.329124,-0.006093,0.023084,0.050256,1.012649
2011-09-30T11:50:42.644663,2290,0.778278,-1.401941,-0.021269,0.024609,0.052766,1.012208
2011-09-30T11:50:42.654663,2300,0.683314,-1.380442,-0.037654,0.024536,0.052595,1.014781
2011-09-30T11:50:42.664663,2310,0.588351,-1.358942,-0.054039,0.024464,0.052423,1.017354
2011-09-30T11:50:42.674663,2320,0.493387,-1.337443,-0.070424,0.024392,0.052252,1.019927
2011-09-30T11:50:42.684663,2330,0.398423,-1.315944,-0.086809,0.024319,0.052080,1.022500
2011-09-30T11:50:42.694663,2340,0.303460,-1.294444,-0.103195,0.024247,0.051909,1.025072
2011-09-30T11:50:42.704663,2350,0.208496,-1.272945,-0.119580,0.024174,0.051737,1.027645
2011-09-30T11:50:42.714663,2360,0.113533,-1.251445,-0.135965,0.024102,0.051566,1.030218
2011-09-30T11:50:42.724663,2370,0.018569,-1.229946,-0.152350,0.024029,0.051394,1.032791
2011-09-30T11:50:42.734663,2380,-0.076394,-1.208446,-0.168735,0.023957,0.051223,1.035364
2011-09-30T11:50:42.744663,2390,-0.171358,-1.186947,-0.185120,0.023885,0.051051,1.037937
2011-09-30T11:50:42.754663,2400,-0.266443,-1.165190,-0.201518,0.023806,0.050891,1.040474
2011-09-30T11:50:42.764663,2410,-0.386785,-1.089959,-0.220619,0.022497,0.053029,1.035470
2011-09-30T11:50:42.774663,2420,-0.507128,-1.014728,-0.239719,0.021188,0.055166,1.030466
2011-09-30T11:50:42.784663,2430,-0.627470,-0.939497,-0.258820,0.019879,0.057304,1.025463
2011-09-30T11:50:42.794663,2440,-0.747812,-0.864265,-0.277921,0.018570,0.059441,1.020459
2011-09-30T11:50:42.804663,2450,-0.868155,-0.789034,-0.297021,0.017261,0.061579,1.015456
2011-09-30T11:50:42.814663,2460,-0.988497,-0.713803,-0.316122,0.015952,0.063717,1.010452
2011-09-30T11:50:42.824663,2470,-1.108839,-0.638572,-0.335223,0.014642,0.065854,1.005449
2011-09-30T11:50:42.834663,2480,-1.229181,-0.563340,-0.354323,0.013333,0.067992,1.000445
2011-09-30T11:50:42.844663,2490,-1.349524,-0.488109,-0.373424,0.012024,0.070130,0.995441
2011-09-30T11:50:42.854663,2500,-1.465727,-0.415181,-0.391823,0.010752,0.072131,0.990568
2011-09-30T11:50:42.864663,2510,-1.366731,-0.461999,-0.373757,0.011377,0.067023,0.992442
2011-09-30T11:50:42.874663,2520,-1.267734,-0.508817,-0.355691,0.012002,0.061915,0.994317
2011-09-30T11:50:42.884663,2530,-1.168738,-0.555635,-0.337624,0.012627,0.056808,0.996191
2011-09-30T11:50:42.894663,2540,-1.069742,-0.602452,-0.319558,0.013252,0.051700,0.998066
2011-09-30T11:50:42.904663,2550,-0.970746,-0.649270,-0.301492,0.013877,0.046592,0.999940
2011-09-30T11:50:42.914663,2560,-0.871750,-0.696088,-0.283425,0.014502,0.041485,1.001815
2011-09-30T11:50:42.924663,2570,-0.772753,-0.742906,-0.265359,0.015127,0.036377,1.003689
2011-09-30T11:50:42.934663,2580,-0.673757,-0.789723,-0.247292,0.015752,0.031269,1.005564
2011-09-30T11:50:42.944663,2590,-0.574761,-0.836541,-0.229226,0.016377,0.026162,1.007438
2011-09-30T11:50:42.954663,2600,-0.475765,-0.883359,-0.211160,0.017002,0.021054,1.009313
2011-09-30T11:50:42.964663,2610,-0.470643,-0.822065,-0.191032,0.018040,0.021783,1.013103
2011-09-30T11:50:42.974663,2620,-0.465550,-0.760736,-0.170904,0.019079,0.022513,1.016894
2011-09-30T11:50:42.984663,2630,-0.460458,-0.699408,-0.150775,0.020117,0.023244,1.020685
2011-09-30T11:50:42.994663,2640,-0.455365,-0.638079,-0.130647,0.021156,0.023974,1.024475
2011-09-30T11:50:43.004663,2650,-0.450273,-0.576750,-0.110519,0.022194,0.024705,1.028266
2011-09-30T11:50:43.014663,2660,-0.445180,-0.515422,-0.090390,0.023233,0.025435,1.032057
2011-09-30T11:50:43.024663,2670,-0.440088,-0.454093,-0.070262,0.024271,0.026166,1.035848
2011-09-30T11:50:43.034663,2680,-0.434995,-0.392765,-0.050134,0.025310,0.026896,1.039639
2011-09-30T11:50:43.044663,2690,-0.429902,-0.331436,-0.030005,0.026348,0.027627,1.043430
2011-09-30T11:50:43.054663,2700,-0.424810,-0.270107,-0.009877,0.027387,0.028357,1.047220
2011-09-30T11:50:43.064663,2710,-0.419533,-0.208207,0.010055,0.028402,0.029107,1.050888
2011-09-30T11:50:43.074663,2720,-0.397680,-0.094840,0.012285,0.027275,0.031544,1.043481
2011-09-30T11:50:43.084663,2730,-0.375826,0.018526,0.014514,0.026148,0.033982,1.036073
2011-09-30T11:50:43.094663,2740,-0.353972,0.131893,0.016744,0.025021,0.036420,1.028666
2011-09-30T11:50:43.104663,2750,-0.332119,0.245259,0.018974,0.023895,0.038858,1.021258
2011-09-30T11:50:43.114663,2760,-0.310265,0.358626,0.021203,0.022768,0.041296,1.013850
2011-09-30T11:50:43.124663,2770,-0.288411,0.471993,0.023433,0.021641,0.043734,1.006443
2011-09-30T11:50:43.134663,2780,-0.266558,0.585359,0.025663,0.020514,0.046172,0.999035
2011-09-30T11:50:43.144663,2790,-0.244704,0.698726,0.027893,0.019388,0.048610,0.991628
2011-09-30T11:50:43.154663,2800,-0.222850,0.812092,0.030122,0.018261,0.051048,0.984220
2011-09-30T11:50:43.164663,2810,-0.201943,0.923372,0.032535,0.017152,0.053478,0.976943
2011-09-30T11:50:43.174663,2820,-0.227501,0.932222,0.043915,0.016931,0.055519,0.976037
2011-09-30T11:50:43.184663,2830,-0.253059,0.941073,0.055296,0.016711,0.057561,0.975132
2011-09-30T11:50:43.194663,2840,-0.278617,0.949924,0.066676,0.016490,0.059602,0.974226
2011-09-30T11:50:43.204663,2850,-0.304175,0.958774,0.078056,0.016269,0.061643,0.973321
2011-09-30T11:50:43.214663,2860,-0.329733,0.967625,0.089437,0.016048,0.063685,0.972416
2011-09-30T11:50:43.224663,2870,-0.355291,0.976475,0.100817,0.015827,0.065726,0.971510
2011-09-30T11:50:43.234663,2880,-0.380849,0.985326,0.112197,0.015607,0.067768,0.970605
2011-09-30T11:50:43.244663,2890,-0.406407,0.994177,0.123578,0.015386,0.069809,0.969700
2011-09-30T11:50:43.254663,2900,-0.431965,1.003027,0.134958,0.015165,0.071851,0.968794
2011-09-30T11:50:43.264663,2910,-0.457523,1.011878,0.146339,0.014944,0.073892,0.967889
2011-09-30T11:50:43.274663,2920,-0.483971,1.018477,0.157293,0.014725,0.075855,0.967057
2011-09-30T11:50:43.284663,2930,-0.554748,0.912896,0.147051,0.014581,0.073914,0.969916
2011-09-30T11:50:43.294663,2940,-0.625525,0.807315,0.136808,0.014438,0.071972,0.972774
2011-09-30T11:50:43.304663,2950,-0.696302,0.701734,0.126566,0.014294,0.070031,0.975632
2011-09-30T11:50:43.314663,2960,-0.767079,0.596154,0.116323,0.014150,0.068090,0.978490
2011-09-30T11:50:43.324663,2970,-0.837856,0.490573,0.106081,0.014007,0.066148,0.981348
2011-09-30T11:50:43.334663,2980,-0.908633,0.384992,0.095838,0.013863,0.064207,0.984206
2011-09-30T11:50:43.344663,2990,-0.979410,0.279411,0.085596,0.013720,0.062266,0.987064
2011-09-30T11:50:43.354663,3000,-1.050188,0.173831,0.075353,0.013576,0.060324,0.989922
2011-09-30T11:50:43.364663,3010,-1.120965,0.068250,0.065111,0.013432,0.058383,0.992780
2011-09-30T11:50:43.374663,3020,-1.191504,-0.036858,0.054860,0.013291,0.056437,0.995622
2011-09-30T11:50:43.384663,3030,-1.219645,-0.057447,0.043220,0.013516,0.053765,0.995484
2011-09-30T11:50:43.394663,3040,-1.247787,-0.078037,0.031579,0.013741,0.051093,0.995346
2011-09-30T11:50:43.404663,3050,-1.275928,-0.098627,0.019938,0.013966,0.048421,0.995207
2011-09-30T11:50:43.414663,3060,-1.304069,-0.119217,0.008298,0.014192,0.045749,0.995069
2011-09-30T11:50:43.424663,3070,-1.332210,-0.139807,-0.003343,0.014417,0.043077,0.994931
2011-09-30T11:50:43.434663,3080,-1.360351,-0.160396,-0.014983,0.014642,0.040405,0.994793
2011-09-30T11:50:43.444663,3090,-1.388492,-0.180986,-0.026624,0.014867,0.037733,0.994655
2011-09-30T11:50:43.454663,3100,-1.416633,-0.201576,-0.038265,0.015093,0.035061,0.994517
2011-09-30T11:50:43.464663,3110,-1.444774,-0.222166,-0.049905,0.015318,0.032389,0.994379
2011-09-30T11:50:43.474663,3120,-1.472602,-0.242258,-0.061450,0.015544,0.029741,0.994250
2011-09-30T11:50:43.484663,3130,-1.456483,-0.192587,-0.059588,0.015876,0.030448,0.995421
2011-09-30T11:50:43.494663,3140,-1.440364,-0.142917,-0.057727,0.016209,0.031155,0.996593
2011-09-30T11:50:43.504663,3150,-1.424245,-0.093246,-0.055865,0.016542,0.031862,0.997764
2011-09-30T11:50:43.514663,3160,-1.408126,-0.043575,-0.054003,0.016874,0.032569,0.998936
2011-09-30T11:50:43.524663,3170,-1.392007,0.006095,-0.052141,0.017207,0.033276,1.000107
2011-09-30T11:50:43.534663,3180,-1.375888,0.055766,-0.050279,0.017540,0.033983,1.001278
2011-09-30T11:50:43.544663,3190,-1.359769,0.105437,-0.048418,0.017872,0.034690,1.002450
2011-09-30T11:50:43.554663,3200,-1.343650,0.155107,-0.046556,0.018205,0.035397,1.003621
2011-09-30T11:50:43.564663,3210,-1.327531,0.204778,-0.044694,0.018537,0.036104,1.004793
2011-09-30T11:50:43.574663,3220,-1.311412,0.254449,-0.042832,0.018870,0.036811,1.005964
2011-09-30T11:50:43.584663,3230,-1.294139,0.302960,-0.040619,0.019194,0.037451,1.007085
2011-09-30T11:50:43.594663,3240,-1.227365,0.301733,-0.023305,0.019134,0.035222,1.006035
2011-09-30T11:50:43.604663,3250,-1.160591,0.300506,-0.005991,0.019075,0.032994,1.004985
2011-09-30T11:50:43.614663,3260,-1.093816,0.299278,0.011323,0.019015,0.030765,1.003935
2011-09-30T11:50:43.624663,3270,-1.027042,0.298051,0.028637,0.018955,0.028536,1.002885
2011-09-30T11:50:43.634663,3280,-0.960268,0.296824,0.045951,0.018896,0.026308,1.001835
2011-09-30T11:50:43.644663,3290,-0.893494,0.295597,0.063265,0.018836,0.024079,1.000786
2011-09-30T11:50:43.654663,3300,-0.826719,0.294370,0.080579,0.018777,0.021851,0.999736
2011-09-30T11:50:43.664663,3310,-0.759945,0.293142,0.097893,0.018717,0.019622,0.998686
2011-09-30T11:50:43.674663,3320,-0.693171,0.291915,0.115207,0.018657,0.017393,0.997636
2011-09-30T11:50:43.684663,3330,-0.626082,0.289652,0.132372,0.018582,0.015257,0.996615
2011-09-30T11:50:43.694663,3340,-0.544746,0.240410,0.142799,0.017773,0.017291,0.996924
2011-09-30T11:50:43.704663,3350,-0.463410,0.191169,0.153225,0.016965,0.019325,0.997232
2011-09-30T11:50:43.714663,3360,-0.382074,0.141927,0.163652,0.016157,0.021360,0.997540
2011-09-30T11:50:43.724663,3370,-0.300738,0.092685,0.174079,0.015349,0.023394,0.997849
2011-09-30T11:50:43.734663,3380,-0.219402,0.043444,0.184505,0.014540,0.025428,0.998157
2011-09-30T11:50:43.744663,3390,-0.138066,-0.005798,0.194932,0.013732,0.027462,0.998466
2011-09-30T11:50:43.754663,3400,-0.056730,-0.055039,0.205358,0.012924,0.029497,0.998774
2011-09-30T11:50:43.764663,3410,0.024606,-0.104281,0.215785,0.012115,0.031531,0.999083
2011-09-30T11:50:43.774663,3420,0.105942,-0.153523,0.226212,0.011307,0.033565,0.999391
2011-09-30T11:50:43.784663,3430,0.187278,-0.202764,0.236638,0.010499,0.035599,0.999700
2011-09-30T11:50:43.794663,3440,0.267286,-0.251433,0.247047,0.009734,0.037598,1.000004
2011-09-30T11:50:43.804663,3450,0.285676,-0.273536,0.256634,0.010987,0.037927,1.000131
2011-09-30T11:50:43.814663,3460,0.304065,-0.295639,0.266222,0.012241,0.038257,1.000258
2011-09-30T11:50:43.824663,3470,0.322455,-0.317742,0.275809,0.013494,0.038587,1.000385
2011-09-30T11:50:43.834663,3480,0.340845,-0.339845,0.285396,0.014747,0.038917,1.000512
2011-09-30T11:50:43.844663,3490,0.359234,-0.361947,0.294983,0.016000,0.039246,1.000640
2011-09-30T11:50:43.854663,3500,0.377624,-0.384050,0.304571,0.017254,0.039576,1.000767
2011-09-30T11:50:43.864663,3510,0.396013,-0.406153,0.314158,0.018507,0.039906,1.000894
2011-09-30T11:50:43.874663,3520,0.414403,-0.428256,0.323745,0.019760,0.040236,1.001021
2011-09-30T11:50:43.884663,3530,0.432792,-0.450359,0.333332,0.021013,0.040565,1.001148
2011-09-30T11:50:43.894663,3540,0.450373,-0.470259,0.342943,0.022230,0.040899,1.001291
2011-09-30T11:50:43.904663,3550,0.431277,-0.390334,0.353622,0.021804,0.041407,1.002170
2011-09-30T11:50:43.914663,3560,0.412181,-0.310408,0.364300,0.021378,0.041915,1.003048
2011-09-30T11:50:43.924663,3570,0.393085,-0.230482,0.374979,0.020951,0.042423,1.003927
2011-09-30T11:50:43.934663,3580,0.373989,-0.150556,0.385658,0.020525,0.042931,1.004805
2011-09-30T11:50:43.944663,3590,0.354894,-0.070630,0.396336,0.020099,0.043439,1.005684
2011-09-30T11:50:43.954663,3600,0.335798,0.009295,0.407015,0.019673,0.043947,1.006562
2011-09-30T11:50:43.964663,3610,0.316702,0.089221,0.417693,0.019247,0.044455,1.007441
2011-09-30T11:50:43.974663,3620,0.297606,0.169147,0.428372,0.018820,0.044963,1.008319
2011-09-30T11:50:43.984663,3630,0.278510,0.249073,0.439051,0.018394,0.045471,1.009198
2011-09-30T11:50:43.994663,3640,0.259414,0.328998,0.449729,0.017968,0.045978,1.010076
2011-09-30T11:50:44.004663,3650,0.240246,0.408229,0.460344,0.017540,0.046492,1.010923
2011-09-30T11:50:44.014663,3660,0.214188,0.421110,0.464884,0.016982,0.047528,1.008790
2011-09-30T11:50:44.024663,3670,0.188129,0.433991,0.469424,0.016423,0.048565,1.006656
2011-09-30T11:50:44.034663,3680,0.162071,0.446872,0.473963,0.015864,0.049601,1.004523
2011-09-30T11:50:44.044663,3690,0.136012,0.459753,0.478503,0.015306,0.050637,1.002389
2011-09-30T11:50:44.054663,3700,0.109954,0.472634,0.483043,0.014747,0.051673,1.000256
2011-09-30T11:50:44.064663,3710,0.083895,0.485515,0.487582,0.014188,0.052710,0.998123
2011-09-30T11:50:44.074663,3720,0.057837,0.498396,0.492122,0.013630,0.053746,0.995989
2011-09-30T11:50:44.084663,3730,0.031778,0.511277,0.496662,0.013071,0.054782,0.993856
2011-09-30T11:50:44.094663,3740,0.005720,0.524158,0.501201,0.012512,0.055819,0.991722
2011-09-30T11:50:44.104663,3750,-0.020329,0.536174,0.505786,0.011959,0.056807,0.989602
2011-09-30T11:50:44.114663,3760,-0.045904,0.508432,0.512423,0.011646,0.055568,0.988101
2011-09-30T11:50:44.124663,3770,-0.071479,0.480689,0.519060,0.011334,0.054329,0.986600
2011-09-30T11:50:44.134663,3780,-0.097054,0.452946,0.525698,0.011021,0.053090,0.985099
2011-09-30T11:50:44.144663,3790,-0.122629,0.425203,0.532335,0.010709,0.051851,0.983598
2011-09-30T11:50:44.154663,3800,-0.148205,0.397460,0.538972,0.010396,0.050612,0.982097
2011-09-30T11:50:44.164663,3810,-0.173780,0.369717,0.545610,0.010084,0.049373,0.980596
2011-09-30T11:50:44.174663,3820,-0.199355,0.341974,0.552247,0.009771,0.048134,0.979096
2011-09-30T11:50:44.184663,3830,-0.224930,0.314231,0.558884,0.009458,0.046895,0.977595
2011-09-30T11:50:44.194663,3840,-0.250506,0.286488,0.565522,0.009146,0.045656,0.976094
2011-09-30T11:50:44.204663,3850,-0.275392,0.258824,0.572106,0.008849,0.044460,0.974657
2011-09-30T11:50:44.214663,3860,-0.257594,0.236043,0.575424,0.009531,0.045911,0.977227
2011-09-30T11:50:44.224663,3870,-0.239797,0.213261,0.578741,0.010213,0.047363,0.979797
2011-09-30T11:50:44.234663,3880,-0.222000,0.190480,0.582058,0.010894,0.048814,0.982367
2011-09-30T11:50:44.244663,3890,-0.204203,0.167699,0.585376,0.011576,0.050266,0.984937
2011-09-30T11:50:44.254663,3900,-0.186406,0.144917,0.588693,0.012258,0.051717,0.987507
2011-09-30T11:50:44.264663,3910,-0.168609,0.122136,0.592010,0.012940,0.053169,0.990077
2011-09-30T11:50:44.274663,3920,-0.150812,0.099355,0.595328,0.013622,0.054620,0.992647
2011-09-30T11:50:44.284663,3930,-0.133015,0.076573,0.598645,0.014303,0.056072,0.995217
2011-09-30T11:50:44.294663,3940,-0.115218,0.053792,0.601962,0.014985,0.057523,0.997787
2011-09-30T11:50:44.304663,3950,-0.097421,0.031011,0.605280,0.015667,0.058975,1.000357
2011-09-30T11:50:44.314663,3960,-0.080014,0.009976,0.608471,0.016310,0.060366,1.002883
2011-09-30T11:50:44.324663,3970,-0.080960,0.071278,0.605736,0.015141,0.058935,1.003346
2011-09-30T11:50:44.334663,3980,-0.081906,0.132580,0.603002,0.013971,0.057503,1.003808
2011-09-30T11:50:44.344663,3990,-0.082853,0.193882,0.600267,0.012801,0.056072,1.004270
2011-09-30T11:50:44.354663,4000,-0.083799,0.255184,0.597532,0.011632,0.054641,1.004732
2011-09-30T11:50:44.364663,4010,-0.084745,0.316485,0.594797,0.010462,0.053209,1.005195
2011-09-30T11:50:44.374663,4020,-0.085692,0.377787,0.592062,0.009292,0.051778,1.005657
2011-09-30T11:50:44.384663,4030,-0.086638,0.439089,0.589327,0.008123,0.050346,1.006119
2011-09-30T11:50:44.394663,4040,-0.087585,0.500391,0.586592,0.006953,0.048915,1.006582
2011-09-30T11:50:44.404663,4050,-0.088531,0.561692,0.583858,0.005783,0.047484,1.007044
2011-09-30T11:50:44.414663,4060,-0.087703,0.621330,0.580918,0.004618,0.046060,1.007455
2011-09-30T11:50:44.424663,4070,-0.005698,0.604827,0.568589,0.003656,0.045011,1.005508
2011-09-30T11:50:44.434663,4080,0.076308,0.588324,0.556261,0.002695,0.043962,1.003560
2011-09-30T11:50:44.444663,4090,0.158313,0.571820,0.543932,0.001733,0.042913,1.001613
2011-09-30T11:50:44.454663,4100,0.240319,0.555317,0.531604,0.000771,0.041864,0.999665
2011-09-30T11:50:44.464663,4110,0.322325,0.538814,0.519275,-0.000191,0.040815,0.997718
2011-09-30T11:50:44.474663,4120,0.404330,0.522310,0.506947,-0.001152,0.039766,0.995771
2011-09-30T11:50:44.484663,4130,0.486336,0.505807,0.494618,-0.002114,0.038717,0.993823
2011-09-30T11:50:44.494663,4140,0.568341,0.489304,0.482290,-0.003076,0.037668,0.991876
2011-09-30T11:50:44.504663,4150,0.650347,0.472800,0.469961,-0.004037,0.036619,0.989929
2011-09-30T11:50:44.514663,4160,0.732352,0.456297,0.457633,-0.004999,0.035570,0.987981
2011-09-30T11:50:44.524663,4170,0.814069,0.439690,0.445311,-0.005961,0.034526,0.986046
2011-09-30T11:50:44.534663,4180,0.805148,0.390473,0.435029,-0.006909,0.035043,0.987840
2011-09-30T11:50:44.544663,4190,0.796227,0.341256,0.424748,-0.007856,0.035560,0.989634
2011-09-30T11:50:44.554663,4200,0.787306,0.292039,0.414466,-0.008804,0.036077,0.991428
2011-09-30T11:50:44.564663,4210,0.778386,0.242822,0.404185,-0.009752,0.036594,0.993223
2011-09-30T11:50:44.574663,4220,0.769465,0.193605,0.393904,-0.010699,0.037111,0.995017
2011-09-30T11:50:44.584663,4230,0.760544,0.144388,0.383622,-0.011647,0.037628,0.996811
2011-09-30T11:50:44.594663,4240,0.751623,0.095170,0.373341,-0.012595,0.038145,0.998605
2011-09-30T11:50:44.604663,4250,0.742702,0.045953,0.363059,-0.013542,0.038662,1.000399
2011-09-30T11:50:44.614663,4260,0.733781,-0.003264,0.352778,-0.014490,0.039179,1.002193
2011-09-30T11:50:44.624663,4270,0.726173,-0.052001,0.342595,-0.015421,0.039677,1.003932
2011-09-30T11:50:44.634663,4280,0.778967,-0.078677,0.336958,-0.015587,0.039314,1.003118
2011-09-30T11:50:44.644663,4290,0.831761,-0.105353,0.331321,-0.015753,0.038951,1.002304
2011-09-30T11:50:44.654663,4300,0.884555,-0.132028,0.325684,-0.015919,0.038589,1.001490
2011-09-30T11:50:44.664663,4310,0.937349,-0.158704,0.320048,-0.016085,0.038226,1.000677
2011-09-30T11:50:44.674663,4320,0.990143,-0.185380,0.314411,-0.016252,0.037863,0.999863
2011-09-30T11:50:44.684663,4330,1.042937,-0.212056,0.308774,-0.016418,0.037500,0.999049
2011-09-30T11:50:44.694663,4340,1.095731,-0.238732,0.303137,-0.016584,0.037137,0.998235
2011-09-30T11:50:44.704663,4350,1.148525,-0.265408,0.297500,-0.016750,0.036775,0.997421
2011-09-30T11:50:44.714663,4360,1.201319,-0.292084,0.291863,-0.016916,0.036412,0.996607
2011-09-30T11:50:44.724663,4370,1.251793,-0.316668,0.285865,-0.017090,0.036099,0.995857
2011-09-30T11:50:44.734663,4380,1.206982,-0.255372,0.265031,-0.017598,0.037842,0.997694
2011-09-30T11:50:44.744663,4390,1.162171,-0.194076,0.244197,-0.018106,0.039584,0.999531
2011-09-30T11:50:44.754663,4400,1.117361,-0.132780,0.223364,-0.018614,0.041327,1.001368
2011-09-30T11:50:44.764663,4410,1.072550,-0.071483,0.202530,-0.019122,0.043069,1.003206
2011-09-30T11:50:44.774663,4420,1.027740,-0.010187,0.181697,-0.019629,0.044812,1.005043
2011-09-30T11:50:44.784663,4430,0.982929,0.051109,0.160863,-0.020137,0.046555,1.006880
2011-09-30T11:50:44.794663,4440,0.938118,0.112405,0.140029,-0.020645,0.048297,1.008717
2011-09-30T11:50:44.804663,4450,0.893308,0.173701,0.119196,-0.021153,0.050040,1.010555
2011-09-30T11:50:44.814663,4460,0.848497,0.234997,0.098362,-0.021661,0.051782,1.012392
2011-09-30T11:50:44.824663,4470,0.803687,0.296293,0.077528,-0.022169,0.053525,1.014229
2011-09-30T11:50:44.834663,4480,0.760134,0.356416,0.056547,-0.022679,0.055204,1.015991
2011-09-30T11:50:44.844663,4490,0.774670,0.362393,0.028747,-0.023305,0.053969,1.014260
2011-09-30T11:50:44.854663,4500,0.789205,0.368370,0.000947,-0.023932,0.052734,1.012530
2011-09-30T11:50:44.864663,4510,0.803741,0.374346,-0.026853,-0.024558,0.051499,1.010799
2011-09-30T11:50:44.874663,4520,0.818277,0.380323,-0.054652,-0.025184,0.050264,1.009069
2011-09-30T11:50:44.884663,4530,0.832813,0.386299,-0.082452,-0.025811,0.049028,1.007338
2011-09-30T11:50:44.894663,4540,0.847349,0.392276,-0.110252,-0.026437,0.047793,1.005608
2011-09-30T11:50:44.904663,4550,0.861884,0.398252,-0.138052,-0.027063,0.046558,1.003877
2011-09-30T11:50:44.914663,4560,0.876420,0.404229,-0.165852,-0.027690,0.045323,1.002147
2011-09-30T11:50:44.924663,4570,0.890956,0.410205,-0.193652,-0.028316,0.044088,1.000416
2011-09-30T11:50:44.934663,4580,0.904258,0.415782,-0.220721,-0.028950,0.042871,0.998712
2011-09-30T11:50:44.944663,4590,0.869227,0.405709,-0.219184,-0.029862,0.042357,0.998036
2011-09-30T11:50:44.954663,4600,0.834195,0.395636,-0.217647,-0.030775,0.041844,0.997361
2011-09-30T11:50:44.964663,4610,0.799164,0.385563,-0.216109,-0.031688,0.041331,0.996685
2011-09-30T11:50:44.974663,4620,0.764133,0.375490,-0.214572,-0.032600,0.040818,0.996009
2011-09-30T11:50:44.984663,4630,0.729102,0.365417,-0.213035,-0.033513,0.040305,0.995334
2011-09-30T11:50:44.994663,4640,0.694071,0.355344,-0.211498,-0.034426,0.039791,0.994658
2011-09-30T11:50:45.004663,4650,0.659040,0.345271,-0.209961,-0.035338,0.039278,0.993982
2011-09-30T11:50:45.014663,4660,0.624009,0.335198,-0.208424,-0.036251,0.038765,0.993307
2011-09-30T11:50:45.024663,4670,0.588978,0.325125,-0.206886,-0.037164,0.038252,0.992631
2011-09-30T11:50:45.034663,4680,0.553947,0.315052,-0.205349,-0.038076,0.037739,0.991955
2011-09-30T11:50:45.044663,4690,0.520068,0.304424,-0.203885,-0.038983,0.037235,0.991297
2011-09-30T11:50:45.054663,4700,0.562438,0.257072,-0.207221,-0.039459,0.037369,0.991772
2011-09-30T11:50:45.064663,4710,0.604808,0.209720,-0.210558,-0.039936,0.037502,0.992247
2011-09-30T11:50:45.074663,4720,0.647178,0.162368,-0.213895,-0.040413,0.037636,0.992722
2011-09-30T11:50:45.084663,4730,0.689548,0.115016,-0.217232,-0.040890,0.037769,0.993197
2011-09-30T11:50:45.094663,4740,0.731918,0.067664,-0.220569,-0.041366,0.037902,0.993672
2011-09-30T11:50:45.104663,4750,0.774288,0.020312,-0.223906,-0.041843,0.038036,0.994147
2011-09-30T11:50:45.114663,4760,0.816658,-0.027040,-0.227243,-0.042320,0.038169,0.994621
2011-09-30T11:50:45.124663,4770,0.859027,-0.074391,-0.230580,-0.042797,0.038303,0.995096
2011-09-30T11:50:45.134663,4780,0.901397,-0.121743,-0.233917,-0.043274,0.038436,0.995571
2011-09-30T11:50:45.144663,4790,0.942743,-0.168360,-0.237224,-0.043707,0.038556,0.996086
2011-09-30T11:50:45.154663,4800,0.943280,-0.185696,-0.239374,-0.042395,0.038142,0.998199
2011-09-30T11:50:45.164663,4810,0.943817,-0.203032,-0.241523,-0.041084,0.037727,1.000312
2011-09-30T11:50:45.174663,4820,0.944354,-0.220369,-0.243672,-0.039772,0.037312,1.002425
2011-09-30T11:50:45.184663,4830,0.944891,-0.237705,-0.245821,-0.038461,0.036898,1.004537
2011-09-30T11:50:45.194663,4840,0.945427,-0.255041,-0.247970,-0.037149,0.036483,1.006650
2011-09-30T11:50:45.204663,4850,0.945964,-0.272377,-0.250119,-0.035838,0.036068,1.008763
2011-09-30T11:50:45.214663,4860,0.946501,-0.289713,-0.252269,-0.034526,0.035654,1.010875
2011-09-30T11:50:45.224663,4870,0.947038,-0.307049,-0.254418,-0.033215,0.035239,1.012988
2011-09-30T11:50:45.234663,4880,0.947575,-0.324385,-0.256567,-0.031904,0.034824,1.015101
2011-09-30T11:50:45.244663,4890,0.945355,-0.341339,-0.258963,-0.030663,0.034483,1.017146
2011-09-30T11:50:45.254663,4900,0.845977,-0.344824,-0.270042,-0.031932,0.036717,1.016799
2011-09-30T11:50:45.264663,4910,0.746598,-0.348308,-0.281121,-0.033201,0.038952,1.016453
2011-09-30T11:50:45.274663,4920,0.647219,-0.351793,-0.292201,-0.034470,0.041186,1.016106
2011-09-30T11:50:45.284663,4930,0.547841,-0.355277,-0.303280,-0.035739,0.043421,1.015760
2011-09-30T11:50:45.294663,4940,0.448462,-0.358761,-0.314360,-0.037008,0.045655,1.015413
2011-09-30T11:50:45.304663,4950,0.349083,-0.362246,-0.325439,-0.038277,0.047889,1.015067
2011-09-30T11:50:45.314663,4960,0.249705,-0.365730,-0.336518,-0.039546,0.050124,1.014721
2011-09-30T11:50:45.324663,4970,0.150326,-0.369215,-0.347598,-0.040815,0.052358,1.014374
2011-09-30T11:50:45.334663,4980,0.050947,-0.372699,-0.358677,-0.042084,0.054593,1.014028
2011-09-30T11:50:45.344663,4990,-0.048431,-0.376184,-0.369757,-0.043353,0.056827,1.013681
2011-09-30T11:50:45.354663,5000,-0.146602,-0.379080,-0.380749,-0.044579,0.058934,1.013272
2011-09-30T11:50:45.364663,5010,-0.204424,-0.362341,-0.388832,-0.044347,0.056784,1.010768
2011-09-30T11:50:45.374663,5020,-0.262246,-0.345602,-0.396915,-0.044115,0.054634,1.008264
2011-09-30T11:50:45.384663,5030,-0.320068,-0.328863,-0.404998,-0.043883,0.052485,1.005760
2011-09-30T11:50:45.394663,5040,-0.377891,-0.312124,-0.413081,-0.043651,0.050335,1.003255
2011-09-30T11:50:45.404663,5050,-0.435713,-0.295385,-0.421164,-0.043420,0.048185,1.000751
2011-09-30T11:50:45.414663,5060,-0.493535,-0.278646,-0.429247,-0.043188,0.046035,0.998247
2011-09-30T11:50:45.424663,5070,-0.551357,-0.261907,-0.437330,-0.042956,0.043885,0.995743
2011-09-30T11:50:45.434663,5080,-0.609180,-0.245168,-0.445413,-0.042724,0.041735,0.993239
2011-09-30T11:50:45.444663,5090,-0.667002,-0.228429,-0.453496,-0.042492,0.039585,0.990735
2011-09-30T11:50:45.454663,5100,-0.725250,-0.210349,-0.461145,-0.042252,0.037511,0.988304
2011-09-30T11:50:45.464663,5110,-0.806978,-0.118265,-0.444877,-0.041539,0.039572,0.989933
2011-09-30T11:50:45.474663,5120,-0.888707,-0.026182,-0.428608,-0.040827,0.041634,0.991562
2011-09-30T11:50:45.484663,5130,-0.970436,0.065902,-0.412340,-0.040114,0.043695,0.993190
2011-09-30T11:50:45.494663,5140,-1.052164,0.157986,-0.396071,-0.039401,0.045757,0.994819
2011-09-30T11:50:45.504663,5150,-1.133893,0.250069,-0.379802,-0.038689,0.047818,0.996448
2011-09-30T11:50:45.514663,5160,-1.215622,0.342153,-0.363534,-0.037976,0.049880,0.998076
2011-09-30T11:50:45.524663,5170,-1.297351,0.434237,-0.347265,-0.037263,0.051941,0.999705
2011-09-30T11:50:45.534663,5180,-1.379079,0.526321,-0.330996,-0.036551,0.054003,1.001334
2011-09-30T11:50:45.544663,5190,-1.460808,0.618404,-0.314728,-0.035838,0.056064,1.002962
2011-09-30T11:50:45.554663,5200,-1.542537,0.710488,-0.298459,-0.035125,0.058126,1.004591
2011-09-30T11:50:45.564663,5210,-1.623839,0.801891,-0.282354,-0.034421,0.060152,1.006191
2011-09-30T11:50:45.574663,5220,-1.643606,0.795107,-0.289889,-0.034916,0.057033,1.003695
2011-09-30T11:50:45.584663,5230,-1.663373,0.788324,-0.297424,-0.035410,0.053915,1.001199
2011-09-30T11:50:45.594663,5240,-1.683140,0.781540,-0.304959,-0.035905,0.050796,0.998703
2011-09-30T11:50:45.604663,5250,-1.702907,0.774756,-0.312493,-0.036400,0.047678,0.996207
2011-09-30T11:50:45.614663,5260,-1.722674,0.767972,-0.320028,-0.036895,0.044559,0.993711
2011-09-30T11:50:45.624663,5270,-1.742441,0.761189,-0.327563,-0.037389,0.041441,0.991215
2011-09-30T11:50:45.634663,5280,-1.762208,0.754405,-0.335098,-0.037884,0.038322,0.988719
2011-09-30T11:50:45.644663,5290,-1.781976,0.747621,-0.342632,-0.038379,0.035204,0.986223
2011-09-30T11:50:45.654663,5300,-1.801743,0.740837,-0.350167,-0.038874,0.032086,0.983727
2011-09-30T11:50:45.664663,5310,-1.821694,0.733137,-0.357543,-0.039362,0.029063,0.981281
2011-09-30T11:50:45.674663,5320,-1.849189,0.687987,-0.358426,-0.039591,0.029952,0.980880
2011-09-30T11:50:45.684663,5330,-1.876683,0.642837,-0.359309,-0.039819,0.030841,0.980478
2011-09-30T11:50:45.694663,5340,-1.904178,0.597687,-0.360193,-0.040048,0.031730,0.980077
2011-09-30T11:50:45.704663,5350,-1.931672,0.552537,-0.361076,-0.040277,0.032618,0.979675
2011-09-30T11:50:45.714663,5360,-1.959167,0.507387,-0.361959,-0.040505,0.033507,0.979274
2011-09-30T11:50:45.724663,5370,-1.986661,0.462237,-0.362842,-0.040734,0.034396,0.978872
2011-09-30T11:50:45.734663,5380,-2.014155,0.417087,-0.363726,-0.040962,0.035285,0.978471
2011-09-30T11:50:45.744663,5390,-2.041650,0.371937,-0.364609,-0.041191,0.036174,0.978069
2011-09-30T11:50:45.754663,5400,-2.069144,0.326787,-0.365492,-0.041420,0.037063,0.977668
2011-09-30T11:50:45.764663,5410,-2.096639,0.281637,-0.366375,-0.041648,0.037952,0.977267
2011-09-30T11:50:45.774663,5420,-2.124287,0.236676,-0.367244,-0.041874,0.038798,0.976906
2011-09-30T11:50:45.784663,5430,-2.157703,0.198806,-0.367584,-0.041974,0.038023,0.978086
2011-09-30T11:50:45.794663,5440,-2.191119,0.160936,-0.367924,-0.042075,0.037249,0.979266
2011-09-30T11:50:45.804663,5450,-2.224535,0.123066,-0.368263,-0.042176,0.036475,0.980445
2011-09-30T11:50:45.814663,5460,-2.257951,0.085196,-0.368603,-0.042277,0.035700,0.981625
2011-09-30T11:50:45.824663,5470,-2.291368,0.047326,-0.368942,-0.042378,0.034926,0.982805
2011-09-30T11:50:45.834663,5480,-2.324784,0.009456,-0.369282,-0.042479,0.034151,0.983984
2011-09-30T11:50:45.844663,5490,-2.358200,-0.028414,-0.369621,-0.042580,0.033377,0.985164
2011-09-30T11:50:45.854663,5500,-2.391616,-0.066284,-0.369961,-0.042681,0.032603,0.986344
2011-09-30T11:50:45.864663,5510,-2.425032,-0.104154,-0.370301,-0.042781,0.031828,0.987523
2011-09-30T11:50:45.874663,5520,-2.457601,-0.141713,-0.370637,-0.042876,0.031050,0.988703
2011-09-30T11:50:45.884663,5530,-2.391333,-0.142918,-0.370563,-0.042271,0.029801,0.989924
2011-09-30T11:50:45.894663,5540,-2.325064,-0.144123,-0.370488,-0.041665,0.028553,0.991144
2011-09-30T11:50:45.904663,5550,-2.258796,-0.145328,-0.370414,-0.041060,0.027304,0.992364
2011-09-30T11:50:45.914663,5560,-2.192528,-0.146534,-0.370340,-0.040454,0.026055,0.993584
2011-09-30T11:50:45.924663,5570,-2.126259,-0.147739,-0.370266,-0.039849,0.024807,0.994804
2011-09-30T11:50:45.934663,5580,-2.059991,-0.148944,-0.370192,-0.039243,0.023558,0.996024
2011-09-30T11:50:45.944663,5590,-1.993722,-0.150149,-0.370118,-0.038638,0.022309,0.997244
2011-09-30T11:50:45.954663,5600,-1.927454,-0.151355,-0.370044,-0.038032,0.021060,0.998465
2011-09-30T11:50:45.964663,5610,-1.861186,-0.152560,-0.369970,-0.037427,0.019812,0.999685
2011-09-30T11:50:45.974663,5620,-1.794946,-0.153756,-0.369889,-0.036824,0.018562,1.000904
2011-09-30T11:50:45.984663,5630,-1.740167,-0.151301,-0.367080,-0.037492,0.016950,1.001761
2011-09-30T11:50:45.994663,5640,-1.685388,-0.148846,-0.364272,-0.038160,0.015338,1.002619
2011-09-30T11:50:46.004663,5650,-1.630609,-0.146392,-0.361464,-0.038828,0.013727,1.003476
2011-09-30T11:50:46.014663,5660,-1.575829,-0.143937,-0.358655,-0.039496,0.012115,1.004333
2011-09-30T11:50:46.024663,5670,-1.521050,-0.141482,-0.355847,-0.040164,0.010503,1.005191
2011-09-30T11:50:46.034663,5680,-1.466271,-0.139027,-0.353038,-0.040832,0.008891,1.006048
2011-09-30T11:50:46.044663,5690,-1.411492,-0.136573,-0.350230,-0.041501,0.007279,1.006905
2011-09-30T11:50:46.054663,5700,-1.356713,-0.134118,-0.347421,-0.042169,0.005667,1.007763
2011-09-30T11:50:46.064663,5710,-1.301934,-0.131663,-0.344613,-0.042837,0.004056,1.008620
2011-09-30T11:50:46.074663,5720,-1.247155,-0.129208,-0.341805,-0.043505,0.002444,1.009477
2011-09-30T11:50:46.084663,5730,-1.191817,-0.126907,-0.338659,-0.044144,0.000845,1.010308
2011-09-30T11:50:46.094663,5740,-1.112486,-0.131175,-0.321051,-0.043550,-0.000176,1.010008
2011-09-30T11:50:46.104663,5750,-1.033155,-0.135444,-0.303444,-0.042957,-0.001197,1.009708
2011-09-30T11:50:46.114663,5760,-0.953825,-0.139712,-0.285836,-0.042363,-0.002218,1.009408
2011-09-30T11:50:46.124663,5770,-0.874494,-0.143981,-0.268228,-0.041769,-0.003239,1.009108
2011-09-30T11:50:46.134663,5780,-0.795164,-0.148249,-0.250620,-0.041176,-0.004260,1.008808
2011-09-30T11:50:46.144663,5790,-0.715833,-0.152518,-0.233012,-0.040582,-0.005281,1.008508
2011-09-30T11:50:46.154663,5800,-0.636503,-0.156786,-0.215405,-0.039989,-0.006302,1.008208
2011-09-30T11:50:46.164663,5810,-0.557172,-0.161055,-0.197797,-0.039395,-0.007323,1.007908
2011-09-30T11:50:46.174663,5820,-0.477841,-0.165323,-0.180189,-0.038801,-0.008344,1.007608
2011-09-30T11:50:46.184663,5830,-0.398586,-0.169304,-0.162861,-0.038242,-0.009284,1.007312
2011-09-30T11:50:46.194663,5840,-0.322226,-0.162145,-0.156358,-0.038995,-0.007077,1.007150
2011-09-30T11:50:46.204663,5850,-0.245867,-0.154987,-0.149855,-0.039748,-0.004871,1.006989
2011-09-30T11:50:46.214663,5860,-0.169508,-0.147828,-0.143352,-0.040502,-0.002665,1.006828
2011-09-30T11:50:46.224663,5870,-0.093148,-0.140669,-0.136849,-0.041255,-0.000458,1.006667
2011-09-30T11:50:46.234663,5880,-0.016789,-0.133510,-0.130346,-0.042008,0.001748,1.006505
2011-09-30T11:50:46.244663,5890,0.059570,-0.126351,-0.123843,-0.042762,0.003955,1.006344
2011-09-30T11:50:46.254663,5900,0.135930,-0.119192,-0.117340,-0.043515,0.006161,1.006183
2011-09-30T11:50:46.264663,5910,0.212289,-0.112033,-0.110837,-0.044268,0.008367,1.006022
2011-09-30T11:50:46.274663,5920,0.288648,-0.104874,-0.104335,-0.045021,0.010574,1.005860
2011-09-30T11:50:46.284663,5930,0.365007,-0.097716,-0.097832,-0.045775,0.012780,1.005699
2011-09-30T11:50:46.294663,5940,0.440069,-0.091553,-0.091110,-0.046488,0.014930,1.005524
2011-09-30T11:50:46.304663,5950,0.464065,-0.124601,-0.075780,-0.045624,0.014862,1.004795
2011-09-30T11:50:46.314663,5960,0.488062,-0.157648,-0.060450,-0.044760,0.014794,1.004066
2011-09-30T11:50:46.324663,5970,0.512058,-0.190696,-0.045120,-0.043897,0.014726,1.003338
2011-09-30T11:50:46.334663,5980,0.536054,-0.223744,-0.029791,-0.043033,0.014658,1.002609
2011-09-30T11:50:46.344663,5990,0.560050,-0.256791,-0.014461,-0.042169,0.014590,1.001880
2011-09-30T11:50:46.354663,6000,0.584047,-0.289839,0.000869,-0.041305,0.014522,1.001152
2011-09-30T11:50:46.364663,6010,0.608043,-0.322887,0.016199,-0.040441,0.014453,1.000423
2011-09-30T11:50:46.374663,6020,0.632039,-0.355934,0.031529,-0.039578,0.014385,0.999694
2011-09-30T11:50:46.384663,6030,0.656035,-0.388982,0.046859,-0.038714,0.014317,0.998965
2011-09-30T11:50:46.394663,6040,0.678591,-0.420085,0.061983,-0.037879,0.014316,0.998313
2011-09-30T11:50:46.404663,6050,0.648205,-0.379733,0.069564,-0.038117,0.016782,1.000479
2011-09-30T11:50:46.414663,6060,0.617818,-0.339380,0.077146,-0.038355,0.019248,1.002644
2011-09-30T11:50:46.424663,6070,0.587431,-0.299028,0.084727,-0.038593,0.021714,1.004809
2011-09-30T11:50:46.434663,6080,0.557045,-0.258675,0.092308,-0.038830,0.024180,1.006975
2011-09-30T11:50:46.444663,6090,0.526658,-0.218323,0.099890,-0.039068,0.026646,1.009140
2011-09-30T11:50:46.454663,6100,0.496272,-0.177970,0.107471,-0.039306,0.029112,1.011306
2011-09-30T11:50:46.464663,6110,0.465885,-0.137617,0.115052,-0.039544,0.031577,1.013471
2011-09-30T11:50:46.474663,6120,0.435498,-0.097265,0.122633,-0.039782,0.034043,1.015636
2011-09-30T11:50:46.484663,6130,0.405112,-0.056912,0.130215,-0.040020,0.036509,1.017802
2011-09-30T11:50:46.494663,6140,0.374779,-0.016908,0.137705,-0.040260,0.038957,1.019915
2011-09-30T11:50:46.504663,6150,0.350314,-0.014886,0.135252,-0.040782,0.039379,1.016332
2011-09-30T11:50:46.514663,6160,0.325850,-0.012864,0.132799,-0.041303,0.039801,1.012749
2011-09-30T11:50:46.524663,6170,0.301385,-0.010842,0.130346,-0.041825,0.040223,1.009166
2011-09-30T11:50:46.534663,6180,0.276921,-0.008820,0.127893,-0.042346,0.040645,1.005583
2011-09-30T11:50:46.544663,6190,0.252456,-0.006798,0.125441,-0.042867,0.041067,1.002000
2011-09-30T11:50:46.554663,6200,0.227991,-0.004776,0.122988,-0.043389,0.041489,0.998418
2011-09-30T11:50:46.564663,6210,0.203527,-0.002753,0.120535,-0.043910,0.041911,0.994835
2011-09-30T11:50:46.574663,6220,0.179062,-0.000731,0.118082,-0.044432,0.042334,0.991252
2011-09-30T11:50:46.584663,6230,0.154598,0.001291,0.115629,-0.044953,0.042756,0.987669
2011-09-30T11:50:46.594663,6240,0.130133,0.003313,0.113176,-0.045474,0.043178,0.984086
2011-09-30T11:50:46.604663,6250,0.106372,0.004753,0.111142,-0.045979,0.043590,0.980626
2011-09-30T11:50:46.614663,6260,0.117131,-0.022366,0.129661,-0.045628,0.043512,0.983180
2011-09-30T11:50:46.624663,6270,0.127891,-0.049486,0.148179,-0.045277,0.043434,0.985734
2011-09-30T11:50:46.634663,6280,0.138650,-0.076605,0.166697,-0.044926,0.043356,0.988288
2011-09-30T11:50:46.644663,6290,0.149410,-0.103724,0.185215,-0.044575,0.043278,0.990842
2011-09-30T11:50:46.654663,6300,0.160169,-0.130843,0.203734,-0.044224,0.043200,0.993396
2011-09-30T11:50:46.664663,6310,0.170928,-0.157963,0.222252,-0.043873,0.043123,0.995950
2011-09-30T11:50:46.674663,6320,0.181688,-0.185082,0.240770,-0.043523,0.043045,0.998504
2011-09-30T11:50:46.684663,6330,0.192447,-0.212201,0.259288,-0.043172,0.042967,1.001058
2011-09-30T11:50:46.694663,6340,0.203207,-0.239320,0.277807,-0.042821,0.042889,1.003612
2011-09-30T11:50:46.704663,6350,0.213478,-0.264669,0.296087,-0.042474,0.042786,1.006114
2011-09-30T11:50:46.714663,6360,0.206858,-0.228762,0.306128,-0.042270,0.041809,1.006839
2011-09-30T11:50:46.724663,6370,0.200239,-0.192856,0.316169,-0.042066,0.040832,1.007564
2011-09-30T11:50:46.734663,6380,0.193620,-0.156949,0.326210,-0.041861,0.039855,1.008289
2011-09-30T11:50:46.744663,6390,0.187000,-0.121043,0.336252,-0.041657,0.038878,1.009014
2011-09-30T11:50:46.754663,6400,0.180381,-0.085137,0.346293,-0.041453,0.037901,1.009739
2011-09-30T11:50:46.764663,6410,0.173761,-0.049230,0.356334,-0.041248,0.036925,1.010464
2011-09-30T11:50:46.774663,6420,0.167142,-0.013324,0.366375,-0.041044,0.035948,1.011189
2011-09-30T11:50:46.784663,6430,0.160523,0.022583,0.376416,-0.040840,0.034971,1.011914
2011-09-30T11:50:46.794663,6440,0.153903,0.058489,0.386458,-0.040635,0.033994,1.012639
2011-09-30T11:50:46.804663,6450,0.147284,0.094395,0.396499,-0.040431,0.033017,1.013364
2011-09-30T11:50:46.814663,6460,0.140957,0.129750,0.406599,-0.040237,0.032047,1.014026
2011-09-30T11:50:46.824663,6470,0.144957,0.145593,0.418774,-0.040416,0.031326,1.012448
2011-09-30T11:50:46.834663,6480,0.148957,0.161436,0.430949,-0.040594,0.030604,1.010870
2011-09-30T11:50:46.844663,6490,0.152957,0.177279,0.443124,-0.040773,0.029882,1.009292
2011-09-30T11:50:46.854663,6500,0.156957,0.193122,0.455299,-0.040951,0.029160,1.007714
2011-09-30T11:50:46.864663,6510,0.160958,0.208964,0.467474,-0.041130,0.028439,1.006136
2011-09-30T11:50:46.874663,6520,0.164958,0.224807,0.479649,-0.041308,0.027717,1.004558
2011-09-30T11:50:46.884663,6530,0.168958,0.240650,0.491824,-0.041487,0.026995,1.002980
2011-09-30T11:50:46.894663,6540,0.172958,0.256493,0.503998,-0.041665,0.026274,1.001402
2011-09-30T11:50:46.904663,6550,0.176959,0.272336,0.516173,-0.041844,0.025552,0.999824
2011-09-30T11:50:46.914663,6560,0.183296,0.288073,0.528158,-0.042021,0.024884,0.998280
2011-09-30T11:50:46.924663,6570,0.263698,0.300469,0.534125,-0.042153,0.025914,0.997841
2011-09-30T11:50:46.934663,6580,0.344100,0.312864,0.540092,-0.042286,0.026944,0.997403
2011-09-30T11:50:46.944663,6590,0.424501,0.325260,0.546059,-0.042418,0.027974,0.996964
2011-09-30T11:50:46.954663,6600,0.504903,0.337655,0.552026,-0.042551,0.029004,0.996525
2011-09-30T11:50:46.964663,6610,0.585305,0.350051,0.557993,-0.042683,0.030035,0.996086
2011-09-30T11:50:46.974663,6620,0.665707,0.362446,0.563960,-0.042815,0.031065,0.995647
2011-09-30T11:50:46.984663,6630,0.746109,0.374842,0.569927,-0.042948,0.032095,0.995208
2011-09-30T11:50:46.994663,6640,0.826510,0.387238,0.575894,-0.043080,0.033125,0.994769
2011-09-30T11:50:47.004663,6650,0.906912,0.399633,0.581861,-0.043212,0.034155,0.994331
2011-09-30T11:50:47.014663,6660,0.986384,0.411708,0.587920,-0.043344,0.035183,0.993898
2011-09-30T11:50:47.024663,6670,1.016704,0.406831,0.598883,-0.043429,0.036073,0.993787
2011-09-30T11:50:47.034663,6680,1.047024,0.401954,0.609846,-0.043515,0.036963,0.993676
2011-09-30T11:50:47.044663,6690,1.077345,0.397077,0.620809,-0.043600,0.037852,0.993565
2011-09-30T11:50:47.054663,6700,1.107665,0.392200,0.631772,-0.043685,0.038742,0.993454
2011-09-30T11:50:47.064663,6710,1.137985,0.387323,0.642736,-0.043771,0.039632,0.993343
2011-09-30T11:50:47.074663,6720,1.168306,0.382446,0.653699,-0.043856,0.040522,0.993232
2011-09-30T11:50:47.084663,6730,1.198626,0.377569,0.664662,-0.043942,0.041412,0.993121
2011-09-30T11:50:47.094663,6740,1.228946,0.372692,0.675625,-0.044027,0.042302,0.993011
2011-09-30T11:50:47.104663,6750,1.259267,0.367815,0.686588,-0.044112,0.043192,0.992900
2011-09-30T11:50:47.114663,6760,1.289587,0.362938,0.697551,-0.044198,0.044082,0.992789
2011-09-30T11:50:47.124663,6770,1.318877,0.358087,0.707463,-0.044288,0.044966,0.992663
2011-09-30T11:50:47.134663,6780,1.312115,0.354131,0.680593,-0.044560,0.045641,0.992022
2011-09-30T11:50:47.144663,6790,1.305353,0.350175,0.653723,-0.044832,0.046316,0.991380
2011-09-30T11:50:47.154663,6800,1.298591,0.346220,0.626853,-0.045104,0.046991,0.990739
2011-09-30T11:50:47.164663,6810,1.291828,0.342264,0.599983,-0.045376,0.047666,0.990097
2011-09-30T11:50:47.174663,6820,1.285066,0.338308,0.573113,-0.045648,0.048342,0.989456
2011-09-30T11:50:47.184663,6830,1.278304,0.334353,0.546243,-0.045920,0.049017,0.988814
2011-09-30T11:50:47.194663,6840,1.271542,0.330397,0.519373,-0.046192,0.049692,0.988173
2011-09-30T11:50:47.204663,6850,1.264779,0.326441,0.492503,-0.046464,0.050367,0.987531
2011-09-30T11:50:47.214663,6860,1.258017,0.322486,0.465633,-0.046736,0.051042,0.986890
2011-09-30T11:50:47.224663,6870,1.250195,0.317121,0.439047,-0.046995,0.051713,0.986269
2011-09-30T11:50:47.234663,6880,1.208336,0.266515,0.421582,-0.046833,0.052227,0.986329
2011-09-30T11:50:47.244663,6890,1.166478,0.215909,0.404117,-0.046670,0.052741,0.986388
2011-09-30T11:50:47.254663,6900,1.124619,0.165303,0.386651,-0.046508,0.053256,0.986447
2011-09-30T11:50:47.264663,6910,1.082761,0.114697,0.369186,-0.046345,0.053770,0.986507
2011-09-30T11:50:47.274663,6920,1.040902,0.064091,0.351721,-0.046183,0.054284,0.986566
2011-09-30T11:50:47.284663,6930,0.999043,0.013485,0.334255,-0.046020,0.054799,0.986625
2011-09-30T11:50:47.294663,6940,0.957185,-0.037121,0.316790,-0.045858,0.055313,0.986685
2011-09-30T11:50:47.304663,6950,0.915326,-0.087727,0.299325,-0.045695,0.055827,0.986744
2011-09-30T11:50:47.314663,6960,0.873468,-0.138334,0.281859,-0.045533,0.056342,0.986803
2011-09-30T11:50:47.324663,6970,0.831609,-0.188940,0.264394,-0.045370,0.056856,0.986863
2011-09-30T11:50:47.334663,6980,0.790711,-0.238148,0.247235,-0.045209,0.057332,0.986949
2011-09-30T11:50:47.344663,6990,0.781761,-0.240859,0.240258,-0.045113,0.056526,0.987956
2011-09-30T11:50:47.354663,7000,0.772812,-0.243570,0.233280,-0.045016,0.055720,0.988962
2011-09-30T11:50:47.364663,7010,0.763863,-0.246281,0.226303,-0.044919,0.054914,0.989968
2011-09-30T11:50:47.374663,7020,0.754913,-0.248992,0.219326,-0.044822,0.054108,0.990975
2011-09-30T11:50:47.384663,7030,0.745964,-0.251704,0.212349,-0.044726,0.053302,0.991981
2011-09-30T11:50:47.394663,7040,0.737015,-0.254415,0.205372,-0.044629,0.052496,0.992987
2011-09-30T11:50:47.404663,7050,0.728065,-0.257126,0.198394,-0.044532,0.051690,0.993993
2011-09-30T11:50:47.414663,7060,0.719116,-0.259837,0.191417,-0.044436,0.050884,0.995000
2011-09-30T11:50:47.424663,7070,0.710167,-0.262548,0.184440,-0.044339,0.050077,0.996006
2011-09-30T11:50:47.434663,7080,0.699433,-0.264973,0.177526,-0.044249,0.049295,0.997009
2011-09-30T11:50:47.444663,7090,0.626770,-0.257482,0.172801,-0.044397,0.049318,0.997917
2011-09-30T11:50:47.454663,7100,0.554107,-0.249992,0.168075,-0.044546,0.049342,0.998824
2011-09-30T11:50:47.464663,7110,0.481444,-0.242501,0.163350,-0.044694,0.049365,0.999731
2011-09-30T11:50:47.474663,7120,0.408781,-0.235011,0.158625,-0.044843,0.049388,1.000638
2011-09-30T11:50:47.484663,7130,0.336118,-0.227520,0.153900,-0.044991,0.049412,1.001546
2011-09-30T11:50:47.494663,7140,0.263454,-0.220030,0.149174,-0.045140,0.049435,1.002453
2011-09-30T11:50:47.504663,7150,0.190791,-0.212539,0.144449,-0.045288,0.049459,1.003360
2011-09-30T11:50:47.514663,7160,0.118128,-0.205048,0.139724,-0.045437,0.049482,1.004267
2011-09-30T11:50:47.524663,7170,0.045465,-0.197558,0.134999,-0.045585,0.049506,1.005174
2011-09-30T11:50:47.534663,7180,-0.027198,-0.190067,0.130273,-0.045734,0.049529,1.006082
2011-09-30T11:50:47.544663,7190,-0.097581,-0.182999,0.125253,-0.045876,0.049531,1.006958
2011-09-30T11:50:47.554663,7200,-0.080697,-0.192084,0.108942,-0.045765,0.048703,1.006649
2011-09-30T11:50:47.564663,7210,-0.063813,-0.201170,0.092631,-0.045654,0.047875,1.006341
2011-09-30T11:50:47.574663,7220,-0.046928,-0.210256,0.076320,-0.045543,0.047047,1.006032
2011-09-30T11:50:47.584663,7230,-0.030044,-0.219342,0.060009,-0.045432,0.046219,1.005724
2011-09-30T11:50:47.594663,7240,-0.013160,-0.228427,0.043697,-0.045321,0.045392,1.005415
2011-09-30T11:50:47.604663,7250,0.003724,-0.237513,0.027386,-0.045210,0.044564,1.005107
2011-09-30T11:50:47.614663,7260,0.020609,-0.246599,0.011075,-0.045099,0.043736,1.004798
2011-09-30T11:50:47.624663,7270,0.037493,-0.255685,-0.005236,-0.044988,0.042908,1.004490
2011-09-30T11:50:47.634663,7280,0.054377,-0.264770,-0.021547,-0.044877,0.042080,1.004181
2011-09-30T11:50:47.644663,7290,0.069514,-0.273562,-0.037507,-0.044761,0.041308,1.003893
2011-09-30T11:50:47.654663,7300,0.028677,-0.272939,-0.042207,-0.044497,0.042315,1.004275
2011-09-30T11:50:47.664663,7310,-0.012160,-0.272316,-0.046908,-0.044233,0.043322,1.004657
2011-09-30T11:50:47.674663,7320,-0.052997,-0.271693,-0.051609,-0.043968,0.044329,1.005038
2011-09-30T11:50:47.684663,7330,-0.093834,-0.271070,-0.056309,-0.043704,0.045336,1.005420
2011-09-30T11:50:47.694663,7340,-0.134671,-0.270447,-0.061010,-0.043440,0.046343,1.005801
2011-09-30T11:50:47.704663,7350,-0.175508,-0.269824,-0.065711,-0.043176,0.047350,1.006183
2011-09-30T11:50:47.714663,7360,-0.216346,-0.269200,-0.070411,-0.042912,0.048357,1.006564
2011-09-30T11:50:47.724663,7370,-0.257183,-0.268577,-0.075112,-0.042647,0.049364,1.006946
2011-09-30T11:50:47.734663,7380,-0.298020,-0.267954,-0.079813,-0.042383,0.050371,1.007328
2011-09-30T11:50:47.744663,7390,-0.338385,-0.266392,-0.084529,-0.042120,0.051289,1.007683
2011-09-30T11:50:47.754663,7400,-0.362504,-0.232465,-0.089766,-0.041897,0.049137,1.007133
2011-09-30T11:50:47.764663,7410,-0.386623,-0.198537,-0.095003,-0.041673,0.046984,1.006583
2011-09-30T11:50:47.774663,7420,-0.410742,-0.164610,-0.100240,-0.041450,0.044831,1.006033
2011-09-30T11:50:47.784663,7430,-0.434862,-0.130683,-0.105477,-0.041227,0.042678,1.005483
2011-09-30T11:50:47.794663,7440,-0.458981,-0.096755,-0.110714,-0.041003,0.040525,1.004934
2011-09-30T11:50:47.804663,7450,-0.483100,-0.062828,-0.115951,-0.040780,0.038373,1.004384
2011-09-30T11:50:47.814663,7460,-0.507219,-0.028901,-0.121188,-0.040556,0.036220,1.003834
2011-09-30T11:50:47.824663,7470,-0.531338,0.005027,-0.126425,-0.040333,0.034067,1.003284
2011-09-30T11:50:47.834663,7480,-0.555457,0.038954,-0.131662,-0.040110,0.031914,1.002734
2011-09-30T11:50:47.844663,7490,-0.579576,0.072881,-0.136899,-0.039886,0.029762,1.002184
2011-09-30T11:50:47.854663,7500,-0.602687,0.107533,-0.141999,-0.039680,0.027656,1.001642
2011-09-30T11:50:47.864663,7510,-0.586602,0.170334,-0.141761,-0.040122,0.027405,1.001403
2011-09-30T11:50:47.874663,7520,-0.570517,0.233136,-0.141523,-0.040565,0.027153,1.001163
2011-09-30T11:50:47.884663,7530,-0.554433,0.295937,-0.141285,-0.041007,0.026901,1.000924
2011-09-30T11:50:47.894663,7540,-0.538348,0.358739,-0.141046,-0.041450,0.026649,1.000684
2011-09-30T11:50:47.904663,7550,-0.522263,0.421540,-0.140808,-0.041892,0.026398,1.000444
2011-09-30T11:50:47.914663,7560,-0.506179,0.484342,-0.140570,-0.042335,0.026146,1.000205
2011-09-30T11:50:47.924663,7570,-0.490094,0.547143,-0.140332,-0.042778,0.025894,0.999965
2011-09-30T11:50:47.934663,7580,-0.474009,0.609944,-0.140094,-0.043220,0.025642,0.999726
2011-09-30T11:50:47.944663,7590,-0.457925,0.672746,-0.139856,-0.043663,0.025390,0.999486
2011-09-30T11:50:47.954663,7600,-0.442041,0.734937,-0.139640,-0.044106,0.025146,0.999238
2011-09-30T11:50:47.964663,7610,-0.448348,0.729761,-0.141909,-0.044599,0.025682,0.998093
2011-09-30T11:50:47.974663,7620,-0.454655,0.724586,-0.144178,-0.045092,0.026218,0.996948
2011-09-30T11:50:47.984663,7630,-0.460962,0.719411,-0.146447,-0.045585,0.026754,0.995803
2011-09-30T11:50:47.994663,7640,-0.467269,0.714236,-0.148716,-0.046078,0.027290,0.994658
2011-09-30T11:50:48.004663,7650,-0.473576,0.709060,-0.150985,-0.046571,0.027826,0.993513
2011-09-30T11:50:48.014663,7660,-0.479882,0.703885,-0.153254,-0.047064,0.028362,0.992368
2011-09-30T11:50:48.024663,7670,-0.486189,0.698710,-0.155523,-0.047557,0.028898,0.991223
2011-09-30T11:50:48.034663,7680,-0.492496,0.693535,-0.157791,-0.048050,0.029434,0.990078
2011-09-30T11:50:48.044663,7690,-0.498803,0.688359,-0.160060,-0.048543,0.029970,0.988933
2011-09-30T11:50:48.054663,7700,-0.505110,0.683184,-0.162329,-0.049036,0.030506,0.987787
2011-09-30T11:50:48.064663,7710,-0.509683,0.674891,-0.164261,-0.049523,0.031017,0.986615
2011-09-30T11:50:48.074663,7720,-0.440526,0.534009,-0.151867,-0.049760,0.030467,0.984278
2011-09-30T11:50:48.084663,7730,-0.371368,0.393126,-0.139474,-0.049997,0.029917,0.981942
2011-09-30T11:50:48.094663,7740,-0.302211,0.252244,-0.127080,-0.050234,0.029367,0.979605
2011-09-30T11:50:48.104663,7750,-0.233053,0.111362,-0.114686,-0.050471,0.028817,0.977269
2011-09-30T11:50:48.114663,7760,-0.163896,-0.029521,-0.102292,-0.050708,0.028267,0.974932
2011-09-30T11:50:48.124663,7770,-0.094738,-0.170403,-0.089898,-0.050945,0.027717,0.972596
2011-09-30T11:50:48.134663,7780,-0.025581,-0.311286,-0.077504,-0.051182,0.027167,0.970259
2011-09-30T11:50:48.144663,7790,0.043577,-0.452168,-0.065110,-0.051419,0.026617,0.967923
2011-09-30T11:50:48.154663,7800,0.112734,-0.593050,-0.052716,-0.051656,0.026067,0.965586
2011-09-30T11:50:48.164663,7810,0.180056,-0.732032,-0.040554,-0.051838,0.025539,0.963426
2011-09-30T11:50:48.174663,7820,0.172398,-0.793408,-0.037861,-0.049745,0.025924,0.968470
2011-09-30T11:50:48.184663,7830,0.164740,-0.854783,-0.035169,-0.047653,0.026308,0.973513
2011-09-30T11:50:48.194663,7840,0.157082,-0.916158,-0.032476,-0.045561,0.026693,0.978557
2011-09-30T11:50:48.204663,7850,0.149425,-0.977533,-0.029784,-0.043468,0.027078,0.983600
2011-09-30T11:50:48.214663,7860,0.141767,-1.038909,-0.027091,-0.041376,0.027462,0.988644
2011-09-30T11:50:48.224663,7870,0.134109,-1.100284,-0.024398,-0.039284,0.027847,0.993687
2011-09-30T11:50:48.234663,7880,0.126451,-1.161659,-0.021706,-0.037192,0.028232,0.998731
2011-09-30T11:50:48.244663,7890,0.118794,-1.223034,-0.019013,-0.035099,0.028616,1.003774
2011-09-30T11:50:48.254663,7900,0.111136,-1.284409,-0.016321,-0.033007,0.029001,1.008818
2011-09-30T11:50:48.264663,7910,0.104769,-1.341308,-0.013626,-0.030982,0.029366,1.013759
2011-09-30T11:50:48.274663,7920,0.134866,-1.271715,-0.010879,-0.030863,0.029173,1.015803
2011-09-30T11:50:48.284663,7930,0.164964,-1.202122,-0.008133,-0.030743,0.028980,1.017847
2011-09-30T11:50:48.294663,7940,0.195062,-1.132529,-0.005386,-0.030623,0.028787,1.019891
2011-09-30T11:50:48.304663,7950,0.225159,-1.062937,-0.002639,-0.030504,0.028594,1.021935
2011-09-30T11:50:48.314663,7960,0.255257,-0.993344,0.000108,-0.030384,0.028401,1.023979
2011-09-30T11:50:48.324663,7970,0.285355,-0.923751,0.002855,-0.030264,0.028209,1.026022
2011-09-30T11:50:48.334663,7980,0.315452,-0.854158,0.005602,-0.030145,0.028016,1.028066
2011-09-30T11:50:48.344663,7990,0.345550,-0.784565,0.008348,-0.030025,0.027823,1.030110
2011-09-30T11:50:48.354663,8000,0.375648,-0.714972,0.011095,-0.029905,0.027630,1.032154
2011-09-30T11:50:48.364663,8010,0.405745,-0.645379,0.013842,-0.029786,0.027437,1.034198
2011-09-30T11:50:48.374663,8020,0.436391,-0.575107,0.016414,-0.029664,0.027251,1.036169
2011-09-30T11:50:48.384663,8030,0.503843,-0.459216,0.007233,-0.029429,0.027523,1.033248
2011-09-30T11:50:48.394663,8040,0.571294,-0.343325,-0.001948,-0.029194,0.027794,1.030326
2011-09-30T11:50:48.404663,8050,0.638746,-0.227435,-0.011129,-0.028959,0.028066,1.027404
2011-09-30T11:50:48.414663,8060,0.706197,-0.111544,-0.020310,-0.028723,0.028338,1.024483
2011-09-30T11:50:48.424663,8070,0.773649,0.004347,-0.029491,-0.028488,0.028610,1.021561
2011-09-30T11:50:48.434663,8080,0.841100,0.120237,-0.038672,-0.028253,0.028882,1.018639
2011-09-30T11:50:48.444663,8090,0.908552,0.236128,-0.047853,-0.028018,0.029153,1.015718
2011-09-30T11:50:48.454663,8100,0.976003,0.352019,-0.057034,-0.027782,0.029425,1.012796
2011-09-30T11:50:48.464663,8110,1.043455,0.467909,-0.066215,-0.027547,0.029697,1.009874
2011-09-30T11:50:48.474663,8120,1.110244,0.582174,-0.075787,-0.027329,0.030004,1.006968
2011-09-30T11:50:48.484663,8130,1.147959,0.625009,-0.102526,-0.027844,0.031834,1.004716
2011-09-30T11:50:48.494663,8140,1.185673,0.667845,-0.129264,-0.028359,0.033665,1.002465
2011-09-30T11:50:48.504663,8150,1.223388,0.710680,-0.156003,-0.028874,0.035496,1.000214
2011-09-30T11:50:48.514663,8160,1.261103,0.753516,-0.182742,-0.029389,0.037327,0.997963
2011-09-30T11:50:48.524663,8170,1.298817,0.796351,-0.209481,-0.029905,0.039158,0.995712
2011-09-30T11:50:48.534663,8180,1.336532,0.839187,-0.236220,-0.030420,0.040989,0.993461
2011-09-30T11:50:48.544663,8190,1.374247,0.882023,-0.262958,-0.030935,0.042820,0.991210
2011-09-30T11:50:48.554663,8200,1.411961,0.924858,-0.289697,-0.031450,0.044651,0.988959
2011-09-30T11:50:48.564663,8210,1.449676,0.967694,-0.316436,-0.031965,0.046482,0.986707
2011-09-30T11:50:48.574663,8220,1.487391,1.010529,-0.343175,-0.032480,0.048313,0.984456
2011-09-30T11:50:48.584663,8230,1.522105,1.050274,-0.369396,-0.032978,0.050052,0.982228
2011-09-30T11:50:48.594663,8240,1.457426,0.987592,-0.378476,-0.032887,0.048739,0.980742
2011-09-30T11:50:48.604663,8250,1.392747,0.924911,-0.387556,-0.032797,0.047426,0.979256
2011-09-30T11:50:48.614663,8260,1.328068,0.862230,-0.396636,-0.032706,0.046113,0.977770
2011-09-30T11:50:48.624663,8270,1.263389,0.799548,-0.405717,-0.032616,0.044800,0.976284
2011-09-30T11:50:48.634663,8280,1.198709,0.736867,-0.414797,-0.032525,0.043487,0.974798
2011-09-30T11:50:48.644663,8290,1.134030,0.674186,-0.423877,-0.032435,0.042174,0.973312
2011-09-30T11:50:48.654663,8300,1.069351,0.611504,-0.432957,-0.032344,0.040861,0.971826
2011-09-30T11:50:48.664663,8310,1.004672,0.548823,-0.442037,-0.032254,0.039548,0.970341
2011-09-30T11:50:48.674663,8320,0.939992,0.486142,-0.451117,-0.032163,0.038235,0.968855
2011-09-30T11:50:48.684663,8330,0.876510,0.422082,-0.459702,-0.032062,0.036944,0.967456
2011-09-30T11:50:48.694663,8340,0.850592,0.314767,-0.452752,-0.031636,0.036314,0.968784
2011-09-30T11:50:48.704663,8350,0.824675,0.207451,-0.445802,-0.031210,0.035685,0.970113
2011-09-30T11:50:48.714663,8360,0.798757,0.100136,-0.438851,-0.030783,0.035056,0.971442
2011-09-30T11:50:48.724663,8370,0.772839,-0.007179,-0.431901,-0.030357,0.034427,0.972771
2011-09-30T11:50:48.734663,8380,0.746921,-0.114495,-0.424951,-0.029930,0.033798,0.974099
2011-09-30T11:50:48.744663,8390,0.721003,-0.221810,-0.418001,-0.029504,0.033169,0.975428
2011-09-30T11:50:48.754663,8400,0.695085,-0.329126,-0.411050,-0.029077,0.032540,0.976757
2011-09-30T11:50:48.764663,8410,0.669167,-0.436441,-0.404100,-0.028651,0.031911,0.978085
2011-09-30T11:50:48.774663,8420,0.643249,-0.543756,-0.397150,-0.028224,0.031282,0.979414
2011-09-30T11:50:48.784663,8430,0.613672,-0.649360,-0.390324,-0.027776,0.030706,0.980765
2011-09-30T11:50:48.794663,8440,0.477149,-0.704939,-0.387152,-0.026670,0.031683,0.982763
2011-09-30T11:50:48.804663,8450,0.340625,-0.760517,-0.383980,-0.025565,0.032659,0.984761
2011-09-30T11:50:48.814663,8460,0.204101,-0.816096,-0.380808,-0.024460,0.033636,0.986759
2011-09-30T11:50:48.824663,8470,0.067578,-0.871674,-0.377636,-0.023355,0.034613,0.988757
2011-09-30T11:50:48.834663,8480,-0.068946,-0.927253,-0.374464,-0.022250,0.035590,0.990755
2011-09-30T11:50:48.844663,8490,-0.205470,-0.982831,-0.371292,-0.021145,0.036567,0.992753
2011-09-30T11:50:48.854663,8500,-0.341993,-1.038410,-0.368119,-0.020039,0.037543,0.994751
2011-09-30T11:50:48.864663,8510,-0.478517,-1.093988,-0.364947,-0.018934,0.038520,0.996749
2011-09-30T11:50:48.874663,8520,-0.615041,-1.149566,-0.361775,-0.017829,0.039497,0.998747
2011-09-30T11:50:48.884663,8530,-0.751564,-1.205145,-0.358603,-0.016724,0.040474,1.000744
2011-09-30T11:50:48.894663,8540,-0.884594,-1.258749,-0.356243,-0.015615,0.041414,1.002775
2011-09-30T11:50:48.904663,8550,-0.916108,-1.255006,-0.377496,-0.014412,0.041282,1.005752
2011-09-30T11:50:48.914663,8560,-0.947623,-1.251263,-0.398748,-0.013208,0.041151,1.008729
2011-09-30T11:50:48.924663,8570,-0.979138,-1.247520,-0.420000,-0.012004,0.041019,1.011706
2011-09-30T11:50:48.934663,8580,-1.010653,-1.243776,-0.441253,-0.010800,0.040888,1.014683
2011-09-30T11:50:48.944663,8590,-1.042168,-1.240033,-0.462505,-0.009597,0.040756,1.017660
2011-09-30T11:50:48.954663,8600,-1.073683,-1.236290,-0.483757,-0.008393,0.040624,1.020637
2011-09-30T11:50:48.964663,8610,-1.105198,-1.232547,-0.505010,-0.007189,0.040493,1.023615
2011-09-30T11:50:48.974663,8620,-1.136713,-1.228803,-0.526262,-0.005985,0.040361,1.026592
2011-09-30T11:50:48.984663,8630,-1.168228,-1.225060,-0.547514,-0.004782,0.040230,1.029569
2011-09-30T11:50:48.994663,8640,-1.199672,-1.220312,-0.568721,-0.003581,0.040089,1.032500
2011-09-30T11:50:49.004663,8650,-1.225179,-1.131310,-0.586063,-0.002656,0.039201,1.031612
2011-09-30T11:50:49.014663,8660,-1.250686,-1.042308,-0.603406,-0.001730,0.038313,1.030724
2011-09-30T11:50:49.024663,8670,-1.276194,-0.953306,-0.620749,-0.000805,0.037425,1.029837
2011-09-30T11:50:49.034663,8680,-1.301701,-0.864304,-0.638091,0.000121,0.036536,1.028949
2011-09-30T11:50:49.044663,8690,-1.327208,-0.775302,-0.655434,0.001047,0.035648,1.028061
2011-09-30T11:50:49.054663,8700,-1.352715,-0.686300,-0.672777,0.001972,0.034760,1.027173
2011-09-30T11:50:49.064663,8710,-1.378222,-0.597298,-0.690119,0.002898,0.033872,1.026285
2011-09-30T11:50:49.074663,8720,-1.403730,-0.508296,-0.707462,0.003823,0.032983,1.025397
2011-09-30T11:50:49.084663,8730,-1.429237,-0.419294,-0.724805,0.004749,0.032095,1.024509
2011-09-30T11:50:49.094663,8740,-1.454744,-0.330293,-0.742148,0.005674,0.031207,1.023622
2011-09-30T11:50:49.104663,8750,-1.477289,-0.240197,-0.758781,0.006547,0.030269,1.022735
2011-09-30T11:50:49.114663,8760,-1.410179,-0.117001,-0.753947,0.005821,0.027825,1.021899
2011-09-30T11:50:49.124663,8770,-1.343068,0.006195,-0.749114,0.005096,0.025381,1.021062
2011-09-30T11:50:49.134663,8780,-1.275957,0.129391,-0.744280,0.004370,0.022936,1.020225
2011-09-30T11:50:49.144663,8790,-1.208847,0.252587,-0.739447,0.003644,0.020492,1.019388
2011-09-30T11:50:49.154663,8800,-1.141736,0.375783,-0.734613,0.002919,0.018048,1.018551
2011-09-30T11:50:49.164663,8810,-1.074626,0.498979,-0.729780,0.002193,0.015604,1.017714
2011-09-30T11:50:49.174663,8820,-1.007515,0.622175,-0.724946,0.001467,0.013160,1.016878
2011-09-30T11:50:49.184663,8830,-0.940405,0.745372,-0.720113,0.000742,0.010715,1.016041
2011-09-30T11:50:49.194663,8840,-0.873294,0.868568,-0.715279,0.000016,0.008271,1.015204
2011-09-30T11:50:49.204663,8850,-0.806010,0.988204,-0.710280,-0.000705,0.005897,1.014279
2011-09-30T11:50:49.214663,8860,-0.733632,1.003488,-0.700430,-0.001297,0.005571,1.010777
2011-09-30T11:50:49.224663,8870,-0.661254,1.018772,-0.690579,-0.001888,0.005246,1.007275
2011-09-30T11:50:49.234663,8880,-0.588876,1.034056,-0.680729,-0.002480,0.004920,1.003773
2011-09-30T11:50:49.244663,8890,-0.516498,1.049340,-0.670878,-0.003072,0.004594,1.000272
2011-09-30T11:50:49.254663,8900,-0.444121,1.064624,-0.661028,-0.003664,0.004269,0.996770
2011-09-30T11:50:49.264663,8910,-0.371743,1.079908,-0.651178,-0.004255,0.003943,0.993268
2011-09-30T11:50:49.274663,8920,-0.299365,1.095192,-0.641327,-0.004847,0.003618,0.989766
2011-09-30T11:50:49.284663,8930,-0.226987,1.110476,-0.631477,-0.005439,0.003292,0.986264
2011-09-30T11:50:49.294663,8940,-0.154609,1.125760,-0.621626,-0.006030,0.002966,0.982762
2011-09-30T11:50:49.304663,8950,-0.082231,1.141043,-0.611776,-0.006622,0.002641,0.979260
2011-09-30T11:50:49.314663,8960,-0.010790,1.153740,-0.601874,-0.007205,0.002410,0.975840
2011-09-30T11:50:49.324663,8970,0.032907,1.089830,-0.590438,-0.007534,0.005000,0.974858
2011-09-30T11:50:49.334663,8980,0.076605,1.025919,-0.579002,-0.007862,0.007589,0.973876
2011-09-30T11:50:49.344663,8990,0.120303,0.962008,-0.567566,-0.008191,0.010179,0.972894
2011-09-30T11:50:49.354663,9000,0.164001,0.898098,-0.556130,-0.008520,0.012768,0.971911
2011-09-30T11:50:49.364663,9010,0.207698,0.834187,-0.544694,-0.008848,0.015358,0.970929
2011-09-30T11:50:49.374663,9020,0.251396,0.770276,-0.533258,-0.009177,0.017947,0.969947
2011-09-30T11:50:49.384663,9030,0.295094,0.706366,-0.521822,-0.009505,0.020537,0.968964
2011-09-30T11:50:49.394663,9040,0.338791,0.642455,-0.510386,-0.009834,0.023126,0.967982
2011-09-30T11:50:49.404663,9050,0.382489,0.578544,-0.498950,-0.010163,0.025715,0.967000
2011-09-30T11:50:49.414663,9060,0.423250,0.514447,-0.488021,-0.010463,0.028233,0.966102
2011-09-30T11:50:49.424663,9070,0.370639,0.444424,-0.493198,-0.009881,0.028461,0.967900
2011-09-30T11:50:49.434663,9080,0.318028,0.374400,-0.498376,-0.009298,0.028688,0.969697
2011-09-30T11:50:49.444663,9090,0.265417,0.304376,-0.503554,-0.008715,0.028916,0.971495
2011-09-30T11:50:49.454663,9100,0.212806,0.234353,-0.508731,-0.008132,0.029143,0.973292
2011-09-30T11:50:49.464663,9110,0.160195,0.164329,-0.513909,-0.007550,0.029371,0.975089
2011-09-30T11:50:49.474663,9120,0.107584,0.094305,-0.519087,-0.006967,0.029599,0.976887
2011-09-30T11:50:49.484663,9130,0.054972,0.024282,-0.524264,-0.006384,0.029826,0.978684
2011-09-30T11:50:49.494663,9140,0.002361,-0.045742,-0.529442,-0.005802,0.030054,0.980482
2011-09-30T11:50:49.504663,9150,-0.050250,-0.115766,-0.534620,-0.005219,0.030281,0.982279
2011-09-30T11:50:49.514663,9160,-0.103526,-0.183719,-0.540047,-0.004653,0.030514,0.984081
2011-09-30T11:50:49.524663,9170,-0.178455,-0.184236,-0.553622,-0.004624,0.030914,0.986038
2011-09-30T11:50:49.534663,9180,-0.253384,-0.184753,-0.567197,-0.004595,0.031313,0.987996
2011-09-30T11:50:49.544663,9190,-0.328313,-0.185269,-0.580771,-0.004567,0.031713,0.989953
2011-09-30T11:50:49.554663,9200,-0.403242,-0.185786,-0.594346,-0.004538,0.032113,0.991910
2011-09-30T11:50:49.564663,9210,-0.478172,-0.186302,-0.607921,-0.004510,0.032512,0.993868
2011-09-30T11:50:49.574663,9220,-0.553101,-0.186819,-0.621495,-0.004481,0.032912,0.995825
2011-09-30T11:50:49.584663,9230,-0.628030,-0.187336,-0.635070,-0.004452,0.033312,0.997782
2011-09-30T11:50:49.594663,9240,-0.702959,-0.187852,-0.648645,-0.004424,0.033711,0.999739
2011-09-30T11:50:49.604663,9250,-0.777888,-0.188369,-0.662219,-0.004395,0.034111,1.001697
2011-09-30T11:50:49.614663,9260,-0.852818,-0.188886,-0.675794,-0.004366,0.034510,1.003654
2011-09-30T11:50:49.624663,9270,-0.925857,-0.189672,-0.688782,-0.004337,0.034822,1.005569
2011-09-30T11:50:49.634663,9280,-0.945667,-0.198044,-0.685257,-0.004274,0.032641,1.006289
2011-09-30T11:50:49.644663,9290,-0.965477,-0.206417,-0.681732,-0.004211,0.030460,1.007009
2011-09-30T11:50:49.654663,9300,-0.985287,-0.214789,-0.678207,-0.004148,0.028279,1.007729
2011-09-30T11:50:49.664663,9310,-1.005097,-0.223162,-0.674682,-0.004085,0.026098,1.008449
2011-09-30T11:50:49.674663,9320,-1.024907,-0.231535,-0.671157,-0.004022,0.023917,1.009169
2011-09-30T11:50:49.684663,9330,-1.044717,-0.239907,-0.667632,-0.003959,0.021737,1.009889
2011-09-30T11:50:49.694663,9340,-1.064527,-0.248280,-0.664107,-0.003896,0.019556,1.010609
2011-09-30T11:50:49.704663,9350,-1.084337,-0.256652,-0.660582,-0.003833,0.017375,1.011329
2011-09-30T11:50:49.714663,9360,-1.104146,-0.265025,-0.657057,-0.003770,0.015194,1.012049
2011-09-30T11:50:49.724663,9370,-1.121814,-0.273999,-0.653457,-0.003709,0.013050,1.012742
2011-09-30T11:50:49.734663,9380,-1.063701,-0.304264,-0.647200,-0.003723,0.012194,1.012502
2011-09-30T11:50:49.744663,9390,-1.005587,-0.334529,-0.640942,-0.003736,0.011338,1.012262
2011-09-30T11:50:49.754663,9400,-0.947474,-0.364794,-0.634685,-0.003750,0.010482,1.012022
2011-09-30T11:50:49.764663,9410,-0.889361,-0.395058,-0.628428,-0.003764,0.009626,1.011782
2011-09-30T11:50:49.774663,9420,-0.831247,-0.425323,-0.622170,-0.003778,0.008771,1.011542
2011-09-30T11:50:49.784663,9430,-0.773134,-0.455588,-0.615913,-0.003792,0.007915,1.011302
2011-09-30T11:50:49.794663,9440,-0.715020,-0.485853,-0.609656,-0.003806,0.007059,1.011062
2011-09-30T11:50:49.804663,9450,-0.656907,-0.516118,-0.603398,-0.003820,0.006203,1.010822
2011-09-30T11:50:49.814663,9460,-0.598794,-0.546382,-0.597141,-0.003833,0.005347,1.010582
2011-09-30T11:50:49.824663,9470,-0.540680,-0.576647,-0.590884,-0.003847,0.004491,1.010342
2011-09-30T11:50:49.834663,9480,-0.485030,-0.605146,-0.584984,-0.003891,0.003731,1.010136
2011-09-30T11:50:49.844663,9490,-0.500028,-0.582982,-0.589335,-0.004788,0.005701,1.010892
2011-09-30T11:50:49.854663,9500,-0.515026,-0.560819,-0.593685,-0.005685,0.007671,1.011649
2011-09-30T11:50:49.864663,9510,-0.530025,-0.538655,-0.598036,-0.006581,0.009641,1.012406
2011-09-30T11:50:49.874663,9520,-0.545023,-0.516492,-0.602387,-0.007478,0.011612,1.013163
2011-09-30T11:50:49.884663,9530,-0.560021,-0.494328,-0.606738,-0.008375,0.013582,1.013920
2011-09-30T11:50:49.894663,9540,-0.575019,-0.472165,-0.611089,-0.009272,0.015552,1.014677
2011-09-30T11:50:49.904663,9550,-0.590017,-0.450001,-0.615440,-0.010169,0.017522,1.015434
2011-09-30T11:50:49.914663,9560,-0.605016,-0.427838,-0.619791,-0.011066,0.019493,1.016191
2011-09-30T11:50:49.924663,9570,-0.620014,-0.405675,-0.624142,-0.011962,0.021463,1.016947
2011-09-30T11:50:49.934663,9580,-0.631167,-0.383725,-0.628280,-0.012814,0.023341,1.017661
2011-09-30T11:50:49.944663,9590,-0.529587,-0.368060,-0.626184,-0.012333,0.022529,1.017094
2011-09-30T11:50:49.954663,9600,-0.428006,-0.352395,-0.624088,-0.011852,0.021717,1.016526
2011-09-30T11:50:49.964663,9610,-0.326426,-0.336730,-0.621992,-0.011371,0.020905,1.015959
2011-09-30T11:50:49.974663,9620,-0.224846,-0.321066,-0.619896,-0.010890,0.020093,1.015392
2011-09-30T11:50:49.984663,9630,-0.123266,-0.305401,-0.617799,-0.010409,0.019281,1.014825
2011-09-30T11:50:49.994663,9640,-0.021685,-0.289736,-0.615703,-0.009928,0.018470,1.014258
2011-09-30T11:50:50.004663,9650,0.079895,-0.274071,-0.613607,-0.009447,0.017658,1.013691
2011-09-30T11:50:50.014663,9660,0.181475,-0.258406,-0.611511,-0.008966,0.016846,1.013124
2011-09-30T11:50:50.024663,9670,0.283055,-0.242741,-0.609415,-0.008485,0.016034,1.012557
2011-09-30T11:50:50.034663,9680,0.383856,-0.226802,-0.607204,-0.008006,0.015230,1.012003
2011-09-30T11:50:50.044663,9690,0.376794,-0.172957,-0.589084,-0.007839,0.015579,1.013270
2011-09-30T11:50:50.054663,9700,0.369733,-0.119112,-0.570963,-0.007672,0.015927,1.014537
2011-09-30T11:50:50.064663,9710,0.362672,-0.065267,-0.552843,-0.007504,0.016276,1.015803
2011-09-30T11:50:50.074663,9720,0.355610,-0.011423,-0.534723,-0.007337,0.016624,1.017070
2011-09-30T11:50:50.084663,9730,0.348549,0.042422,-0.516603,-0.007170,0.016973,1.018337
2011-09-30T11:50:50.094663,9740,0.341488,0.096267,-0.498483,-0.007002,0.017322,1.019604
2011-09-30T11:50:50.104663,9750,0.334426,0.150112,-0.480362,-0.006835,0.017670,1.020871
2011-09-30T11:50:50.114663,9760,0.327365,0.203956,-0.462242,-0.006668,0.018019,1.022138
2011-09-30T11:50:50.124663,9770,0.320304,0.257801,-0.444122,-0.006500,0.018367,1.023405
2011-09-30T11:50:50.134663,9780,0.313242,0.311646,-0.426002,-0.006333,0.018716,1.024672
2011-09-30T11:50:50.144663,9790,0.307908,0.364543,-0.408590,-0.006215,0.019036,1.025765
2011-09-30T11:50:50.154663,9800,0.353668,0.389389,-0.412142,-0.007560,0.018520,1.021735
2011-09-30T11:50:50.164663,9810,0.399428,0.414235,-0.415695,-0.008904,0.018004,1.017705
2011-09-30T11:50:50.174663,9820,0.445188,0.439081,-0.419247,-0.010249,0.017487,1.013675
2011-09-30T11:50:50.184663,9830,0.490948,0.463928,-0.422799,-0.011594,0.016971,1.009645
2011-09-30T11:50:50.194663,9840,0.536708,0.488774,-0.426351,-0.012938,0.016455,1.005615
2011-09-30T11:50:50.204663,9850,0.582469,0.513620,-0.429903,-0.014283,0.015939,1.001585
2011-09-30T11:50:50.214663,9860,0.628229,0.538466,-0.433456,-0.015628,0.015422,0.997555
2011-09-30T11:50:50.224663,9870,0.673989,0.563312,-0.437008,-0.016972,0.014906,0.993525
2011-09-30T11:50:50.234663,9880,0.719749,0.588158,-0.440560,-0.018317,0.014390,0.989495
2011-09-30T11:50:50.244663,9890,0.763043,0.610741,-0.443150,-0.019596,0.013887,0.985608
2011-09-30T11:50:50.254663,9900,0.737114,0.569779,-0.418734,-0.019030,0.013766,0.985743
2011-09-30T11:50:50.264663,9910,0.711185,0.528818,-0.394317,-0.018464,0.013645,0.985878
2011-09-30T11:50:50.274663,9920,0.685256,0.487856,-0.369901,-0.017898,0.013524,0.986013
2011-09-30T11:50:50.284663,9930,0.659327,0.446894,-0.345484,-0.017332,0.013403,0.986148
2011-09-30T11:50:50.294663,9940,0.633399,0.405933,-0.321067,-0.016766,0.013282,0.986282
2011-09-30T11:50:50.304663,9950,0.607470,0.364971,-0.296651,-0.016200,0.013161,0.986417
2011-09-30T11:50:50.314663,9960,0.581541,0.324010,-0.272234,-0.015634,0.013040,0.986552
2011-09-30T11:50:50.324663,9970,0.555612,0.283048,-0.247818,-0.015068,0.012919,0.986687
2011-09-30T11:50:50.334663,9980,0.529683,0.242086,-0.223401,-0.014502,0.012798,0.986821
2011-09-30T11:50:50.344663,9990,0.503754,0.201125,-0.198985,-0.013937,0.012677,0.986956
2011-09-30T11:50:50.354663,10000,0.479252,0.161099,-0.174755,-0.013380,0.012577,0.987111
2011-09-30T11:50:50.364663,10010,0.539781,0.176821,-0.161652,-0.013411,0.013704,0.988455
2011-09-30T11:50:50.374663,10020,0.600311,0.192543,-0.148548,-0.013442,0.014831,0.989799
2011-09-30T11:50:50.384663,10030,0.660840,0.208266,-0.135445,-0.013472,0.015958,0.991142
2011-09-30T11:50:50.394663,10040,0.721369,0.223988,-0.122341,-0.013503,0.017085,0.992486
2011-09-30T11:50:50.404663,10050,0.781899,0.239711,-0.109238,-0.013533,0.018212,0.993830
2011-09-30T11:50:50.414663,10060,0.842428,0.255433,-0.096134,-0.013564,0.019339,0.995174
2011-09-30T11:50:50.424663,10070,0.902957,0.271156,-0.083031,-0.013594,0.020466,0.996518
2011-09-30T11:50:50.434663,10080,0.963486,0.286878,-0.069928,-0.013625,0.021593,0.997862
2011-09-30T11:50:50.444663,10090,1.024016,0.302601,-0.056824,-0.013656,0.022720,0.999205
2011-09-30T11:50:50.454663,10100,1.083281,0.318047,-0.043619,-0.013691,0.023828,1.000526
2011-09-30T11:50:50.464663,10110,1.069000,0.317430,-0.024520,-0.013985,0.023784,1.000473
2011-09-30T11:50:50.474663,10120,1.054718,0.316814,-0.005420,-0.014280,0.023740,1.000420
2011-09-30T11:50:50.484663,10130,1.040437,0.316197,0.013679,-0.014575,0.023696,1.000368
2011-09-30T11:50:50.494663,10140,1.026156,0.315581,0.032779,-0.014870,0.023653,1.000315
2011-09-30T11:50:50.504663,10150,1.011874,0.314965,0.051879,-0.015164,0.023609,1.000263
2011-09-30T11:50:50.514663,10160,0.997593,0.314348,0.070978,-0.015459,0.023565,1.000210
2011-09-30T11:50:50.524663,10170,0.983312,0.313732,0.090078,-0.015754,0.023522,1.000157
2011-09-30T11:50:50.534663,10180,0.969030,0.313115,0.109178,-0.016048,0.023478,1.000105
2011-09-30T11:50:50.544663,10190,0.954749,0.312499,0.128277,-0.016343,0.023434,1.000052
2011-09-30T11:50:50.554663,10200,0.940507,0.310856,0.147205,-0.016626,0.023418,0.999985
2011-09-30T11:50:50.564663,10210,0.928178,0.259415,0.157791,-0.016325,0.024768,0.999212
2011-09-30T11:50:50.574663,10220,0.915849,0.207973,0.168378,-0.016024,0.026117,0.998439
2011-09-30T11:50:50.584663,10230,0.903521,0.156532,0.178964,-0.015722,0.027467,0.997667
2011-09-30T11:50:50.594663,10240,0.891192,0.105091,0.189550,-0.015421,0.028816,0.996894
2011-09-30T11:50:50.604663,10250,0.878863,0.053650,0.200137,-0.015120,0.030166,0.996121
2011-09-30T11:50:50.614663,10260,0.866535,0.002208,0.210723,-0.014819,0.031515,0.995348
2011-09-30T11:50:50.624663,10270,0.854206,-0.049233,0.221309,-0.014518,0.032865,0.994576
2011-09-30T11:50:50.634663,10280,0.841877,-0.100674,0.231896,-0.014217,0.034214,0.993803
2011-09-30T11:50:50.644663,10290,0.829549,-0.152115,0.242482,-0.013915,0.035564,0.993030
2011-09-30T11:50:50.654663,10300,0.817220,-0.203556,0.253068,-0.013614,0.036913,0.992257
2011-09-30T11:50:50.664663,10310,0.805592,-0.252568,0.264597,-0.013307,0.038245,0.991544
2011-09-30T11:50:50.674663,10320,0.811376,-0.241214,0.299528,-0.012849,0.039137,0.992322
2011-09-30T11:50:50.684663,10330,0.817159,-0.229860,0.334460,-0.012391,0.040028,0.993100
2011-09-30T11:50:50.694663,10340,0.822943,-0.218507,0.369391,-0.011932,0.040920,0.993878
2011-09-30T11:50:50.704663,10350,0.828726,-0.207153,0.404323,-0.011474,0.041812,0.994656
2011-09-30T11:50:50.714663,10360,0.834510,-0.195800,0.439254,-0.011016,0.042703,0.995434
2011-09-30T11:50:50.724663,10370,0.840294,-0.184446,0.474185,-0.010558,0.043595,0.996212
2011-09-30T11:50:50.734663,10380,0.846077,-0.173092,0.509117,-0.010099,0.044487,0.996989
2011-09-30T11:50:50.744663,10390,0.851861,-0.161739,0.544048,-0.009641,0.045378,0.997767
2011-09-30T11:50:50.754663,10400,0.857644,-0.150385,0.578980,-0.009183,0.046270,0.998545
2011-09-30T11:50:50.764663,10410,0.862981,-0.138124,0.613133,-0.008747,0.047136,0.999304
2011-09-30T11:50:50.774663,10420,0.848754,-0.086217,0.613276,-0.009279,0.046884,0.999232
2011-09-30T11:50:50.784663,10430,0.834528,-0.034310,0.613419,-0.009812,0.046632,0.999161
2011-09-30T11:50:50.794663,10440,0.820301,0.017597,0.613561,-0.010345,0.046380,0.999089
2011-09-30T11:50:50.804663,10450,0.806075,0.069504,0.613704,-0.010877,0.046128,0.999017
2011-09-30T11:50:50.814663,10460,0.791848,0.121411,0.613847,-0.011410,0.045876,0.998946
2011-09-30T11:50:50.824663,10470,0.777622,0.173318,0.613990,-0.011942,0.045624,0.998874
2011-09-30T11:50:50.834663,10480,0.763395,0.225225,0.614132,-0.012475,0.045372,0.998802
2011-09-30T11:50:50.844663,10490,0.749169,0.277132,0.614275,-0.013007,0.045119,0.998731
2011-09-30T11:50:50.854663,10500,0.734942,0.329039,0.614418,-0.013540,0.044867,0.998659
2011-09-30T11:50:50.864663,10510,0.720716,0.380946,0.614561,-0.014072,0.044615,0.998587
2011-09-30T11:50:50.874663,10520,0.707107,0.430909,0.614497,-0.014599,0.044386,0.998486
2011-09-30T11:50:50.884663,10530,0.717098,0.406548,0.606538,-0.014914,0.045020,0.997237
2011-09-30T11:50:50.894663,10540,0.727090,0.382186,0.598578,-0.015230,0.045653,0.995988
2011-09-30T11:50:50.904663,10550,0.737081,0.357824,0.590619,-0.015545,0.046287,0.994740
2011-09-30T11:50:50.914663,10560,0.747073,0.333462,0.582659,-0.015860,0.046921,0.993491
2011-09-30T11:50:50.924663,10570,0.757065,0.309101,0.574700,-0.016175,0.047555,0.992242
2011-09-30T11:50:50.934663,10580,0.767056,0.284739,0.566740,-0.016491,0.048189,0.990993
2011-09-30T11:50:50.944663,10590,0.777048,0.260377,0.558781,-0.016806,0.048822,0.989745
2011-09-30T11:50:50.954663,10600,0.787040,0.236016,0.550821,-0.017121,0.049456,0.988496
2011-09-30T11:50:50.964663,10610,0.797031,0.211654,0.542862,-0.017436,0.050090,0.987247
2011-09-30T11:50:50.974663,10620,0.805437,0.187666,0.535420,-0.017729,0.050721,0.986053
2011-09-30T11:50:50.984663,10630,0.761243,0.176078,0.545131,-0.017288,0.051254,0.986655
2011-09-30T11:50:50.994663,10640,0.717049,0.164489,0.554843,-0.016846,0.051787,0.987257
2011-09-30T11:50:51.004663,10650,0.672856,0.152901,0.564555,-0.016404,0.052320,0.987859
2011-09-30T11:50:51.014663,10660,0.628662,0.141312,0.574266,-0.015963,0.052853,0.988462
2011-09-30T11:50:51.024663,10670,0.584468,0.129724,0.583978,-0.015521,0.053386,0.989064
2011-09-30T11:50:51.034663,10680,0.540274,0.118135,0.593690,-0.015079,0.053919,0.989666
2011-09-30T11:50:51.044663,10690,0.496080,0.106546,0.603401,-0.014638,0.054452,0.990269
2011-09-30T11:50:51.054663,10700,0.451887,0.094958,0.613113,-0.014196,0.054985,0.990871
2011-09-30T11:50:51.064663,10710,0.407693,0.083369,0.622825,-0.013754,0.055519,0.991473
2011-09-30T11:50:51.074663,10720,0.363499,0.071781,0.632536,-0.013313,0.056052,0.992075
2011-09-30T11:50:51.084663,10730,0.320122,0.059793,0.642056,-0.012901,0.056560,0.992668
2011-09-30T11:50:51.094663,10740,0.301067,0.035911,0.645862,-0.013391,0.056338,0.992969
2011-09-30T11:50:51.104663,10750,0.282012,0.012030,0.649667,-0.013880,0.056117,0.993271
2011-09-30T11:50:51.114663,10760,0.262956,-0.011852,0.653472,-0.014369,0.055895,0.993572
2011-09-30T11:50:51.124663,10770,0.243901,-0.035734,0.657278,-0.014859,0.055674,0.993873
2011-09-30T11:50:51.134663,10780,0.224846,-0.059615,0.661083,-0.015348,0.055452,0.994175
2011-09-30T11:50:51.144663,10790,0.205791,-0.083497,0.664888,-0.015837,0.055230,0.994476
2011-09-30T11:50:51.154663,10800,0.186735,-0.107378,0.668694,-0.016327,0.055009,0.994777
2011-09-30T11:50:51.164663,10810,0.167680,-0.131260,0.672499,-0.016816,0.054787,0.995078
2011-09-30T11:50:51.174663,10820,0.148625,-0.155142,0.676305,-0.017305,0.054565,0.995380
2011-09-30T11:50:51.184663,10830,0.130606,-0.178528,0.679538,-0.017814,0.054359,0.995715
2011-09-30T11:50:51.194663,10840,0.139655,-0.188997,0.667840,-0.018817,0.054547,0.996946
2011-09-30T11:50:51.204663,10850,0.148704,-0.199465,0.656142,-0.019821,0.054736,0.998176
2011-09-30T11:50:51.214663,10860,0.157753,-0.209934,0.644445,-0.020825,0.054924,0.999407
2011-09-30T11:50:51.224663,10870,0.166802,-0.220402,0.632747,-0.021828,0.055113,1.000637
2011-09-30T11:50:51.234663,10880,0.175851,-0.230871,0.621049,-0.022832,0.055302,1.001868
2011-09-30T11:50:51.244663,10890,0.184900,-0.241339,0.609351,-0.023835,0.055490,1.003098
2011-09-30T11:50:51.254663,10900,0.193949,-0.251807,0.597653,-0.024839,0.055679,1.004329
2011-09-30T11:50:51.264663,10910,0.202998,-0.262276,0.585955,-0.025843,0.055867,1.005559
2011-09-30T11:50:51.274663,10920,0.212047,-0.272744,0.574258,-0.026846,0.056056,1.006790
2011-09-30T11:50:51.284663,10930,0.223546,-0.283889,0.562586,-0.027787,0.056211,1.007964
2011-09-30T11:50:51.294663,10940,0.310870,-0.315953,0.551722,-0.026779,0.055344,1.007404
2011-09-30T11:50:51.304663,10950,0.398193,-0.348018,0.540859,-0.025771,0.054477,1.006843
2011-09-30T11:50:51.314663,10960,0.485516,-0.380083,0.529995,-0.024764,0.053610,1.006283
2011-09-30T11:50:51.324663,10970,0.572839,-0.412147,0.519132,-0.023756,0.052743,1.005723
2011-09-30T11:50:51.334663,10980,0.660162,-0.444212,0.508268,-0.022748,0.051876,1.005162
2011-09-30T11:50:51.344663,10990,0.747485,-0.476277,0.497405,-0.021740,0.051009,1.004602
2011-09-30T11:50:51.354663,11000,0.834808,-0.508341,0.486541,-0.020733,0.050142,1.004041
2011-09-30T11:50:51.364663,11010,0.922132,-0.540406,0.475678,-0.019725,0.049275,1.003481
2011-09-30T11:50:51.374663,11020,1.009455,-0.572471,0.464814,-0.018717,0.048408,1.002921
2011-09-30T11:50:51.384663,11030,1.096778,-0.604535,0.453950,-0.017709,0.047541,1.002360
2011-09-30T11:50:51.394663,11040,1.186915,-0.635208,0.443925,-0.016698,0.046615,1.001923
2011-09-30T11:50:51.404663,11050,1.351815,-0.628904,0.456157,-0.015594,0.044135,1.004759
2011-09-30T11:50:51.414663,11060,1.516714,-0.622599,0.468389,-0.014490,0.041654,1.007596
2011-09-30T11:50:51.424663,11070,1.681613,-0.616295,0.480621,-0.013387,0.039174,1.010432
2011-09-30T11:50:51.434663,11080,1.846512,-0.609991,0.492853,-0.012283,0.036694,1.013268
2011-09-30T11:50:51.444663,11090,2.011411,-0.603687,0.505085,-0.011179,0.034213,1.016104
2011-09-30T11:50:51.454663,11100,2.176310,-0.597382,0.517317,-0.010075,0.031733,1.018941
2011-09-30T11:50:51.464663,11110,2.341210,-0.591078,0.529548,-0.008971,0.029253,1.021777
2011-09-30T11:50:51.474663,11120,2.506109,-0.584774,0.541780,-0.007867,0.026772,1.024613
2011-09-30T11:50:51.484663,11130,2.671008,-0.578469,0.554012,-0.006764,0.024292,1.027450
2011-09-30T11:50:51.494663,11140,2.834684,-0.570229,0.566170,-0.005662,0.021831,1.030198
2011-09-30T11:50:51.504663,11150,2.913370,-0.427391,0.573125,-0.004728,0.020735,1.026829
2011-09-30T11:50:51.514663,11160,2.992056,-0.284554,0.580080,-0.003794,0.019638,1.023461
2011-09-30T11:50:51.524663,11170,3.070742,-0.141717,0.587035,-0.002860,0.018542,1.020092
2011-09-30T11:50:51.534663,11180,3.149429,0.001121,0.593990,-0.001927,0.017445,1.016723
2011-09-30T11:50:51.544663,11190,3.228115,0.143958,0.600945,-0.000993,0.016348,1.013355
2011-09-30T11:50:51.554663,11200,3.306801,0.286795,0.607900,-0.000059,0.015252,1.009986
2011-09-30T11:50:51.564663,11210,3.385487,0.429632,0.614855,0.000875,0.014155,1.006617
2011-09-30T11:50:51.574663,11220,3.464173,0.572470,0.621811,0.001809,0.013059,1.003249
2011-09-30T11:50:51.584663,11230,3.542859,0.715307,0.628766,0.002743,0.011962,0.999880
2011-09-30T11:50:51.594663,11240,3.621545,0.858144,0.635721,0.003677,0.010866,0.996511
2011-09-30T11:50:51.604663,11250,3.697967,0.993168,0.642737,0.004522,0.010058,0.993143
2011-09-30T11:50:51.614663,11260,3.711016,0.909495,0.651474,0.002870,0.017330,0.989766
2011-09-30T11:50:51.624663,11270,3.724064,0.825821,0.660210,0.001219,0.024601,0.986389
2011-09-30T11:50:51.634663,11280,3.737113,0.742148,0.668947,-0.000432,0.031873,0.983013
2011-09-30T11:50:51.644663,11290,3.750161,0.658475,0.677683,-0.002084,0.039145,0.979636
2011-09-30T11:50:51.654663,11300,3.763210,0.574802,0.686419,-0.003735,0.046416,0.976259
2011-09-30T11:50:51.664663,11310,3.776258,0.491129,0.695156,-0.005386,0.053688,0.972882
2011-09-30T11:50:51.674663,11320,3.789307,0.407456,0.703892,-0.007038,0.060959,0.969506
2011-09-30T11:50:51.684663,11330,3.802355,0.323783,0.712629,-0.008689,0.068231,0.966129
2011-09-30T11:50:51.694663,11340,3.815404,0.240110,0.721365,-0.010340,0.075503,0.962752
2011-09-30T11:50:51.704663,11350,3.821037,0.154090,0.729285,-0.011981,0.082569,0.959605
2011-09-30T11:50:51.714663,11360,3.644837,0.010533,0.717200,-0.013358,0.084616,0.962077
2011-09-30T11:50:51.724663,11370,3.468638,-0.133024,0.705116,-0.014735,0.086662,0.964549
2011-09-30T11:50:51.734663,11380,3.292438,-0.276581,0.693031,-0.016112,0.088709,0.967021
2011-09-30T11:50:51.744663,11390,3.116239,-0.420138,0.680946,-0.017488,0.090755,0.969492
2011-09-30T11:50:51.754663,11400,2.940039,-0.563696,0.668861,-0.018865,0.092802,0.971964
2011-09-30T11:50:51.764663,11410,2.763840,-0.707253,0.656776,-0.020242,0.094848,0.974436
2011-09-30T11:50:51.774663,11420,2.587640,-0.850810,0.644691,-0.021619,0.096894,0.976908
2011-09-30T11:50:51.784663,11430,2.411440,-0.994367,0.632606,-0.022996,0.098941,0.979380
2011-09-30T11:50:51.794663,11440,2.235241,-1.137924,0.620521,-0.024373,0.100987,0.981852
2011-09-30T11:50:51.804663,11450,2.058339,-1.278577,0.606809,-0.025618,0.103013,0.984427
2011-09-30T11:50:51.814663,11460,1.863340,-1.344447,0.551206,-0.023469,0.104507,0.989657
2011-09-30T11:50:51.824663,11470,1.668342,-1.410316,0.495602,-0.021321,0.106001,0.994886
2011-09-30T11:50:51.834663,11480,1.473343,-1.476186,0.439998,-0.019172,0.107494,1.000116
2011-09-30T11:50:51.844663,11490,1.278344,-1.542055,0.384395,-0.017024,0.108988,1.005346
2011-09-30T11:50:51.854663,11500,1.083346,-1.607925,0.328791,-0.014875,0.110482,1.010576
2011-09-30T11:50:51.864663,11510,0.888347,-1.673794,0.273188,-0.012727,0.111976,1.015806
2011-09-30T11:50:51.874663,11520,0.693349,-1.739664,0.217584,-0.010578,0.113469,1.021035
2011-09-30T11:50:51.884663,11530,0.498350,-1.805533,0.161981,-0.008430,0.114963,1.026265
2011-09-30T11:50:51.894663,11540,0.303351,-1.871403,0.106377,-0.006281,0.116457,1.031495
2011-09-30T11:50:51.904663,11550,0.108353,-1.937272,0.050774,-0.004133,0.117951,1.036725
2011-09-30T11:50:51.914663,11560,-0.084359,-1.997748,-0.004178,-0.002058,0.119254,1.041781
2011-09-30T11:50:51.924663,11570,-0.215642,-1.913322,-0.041609,-0.001956,0.115445,1.042182
2011-09-30T11:50:51.934663,11580,-0.346925,-1.828896,-0.079040,-0.001854,0.111636,1.042583
2011-09-30T11:50:51.944663,11590,-0.478207,-1.744470,-0.116471,-0.001751,0.107827,1.042983
2011-09-30T11:50:51.954663,11600,-0.609490,-1.660044,-0.153902,-0.001649,0.104019,1.043384
2011-09-30T11:50:51.964663,11610,-0.740773,-1.575617,-0.191333,-0.001547,0.100210,1.043785
2011-09-30T11:50:51.974663,11620,-0.872056,-1.491191,-0.228764,-0.001445,0.096401,1.044185
2011-09-30T11:50:51.984663,11630,-1.003339,-1.406765,-0.266195,-0.001343,0.092592,1.044586
2011-09-30T11:50:51.994663,11640,-1.134621,-1.322339,-0.303626,-0.001241,0.088783,1.044987
2011-09-30T11:50:52.004663,11650,-1.265904,-1.237913,-0.341057,-0.001139,0.084974,1.045387
2011-09-30T11:50:52.014663,11660,-1.390610,-1.152692,-0.377469,-0.001031,0.081198,1.045725
2011-09-30T11:50:52.024663,11670,-1.285995,-1.039760,-0.378328,-0.000697,0.078548,1.043871
2011-09-30T11:50:52.034663,11680,-1.181381,-0.926827,-0.379187,-0.000364,0.075898,1.042017
2011-09-30T11:50:52.044663,11690,-1.076766,-0.813895,-0.380046,-0.000030,0.073248,1.040162
2011-09-30T11:50:52.054663,11700,-0.972151,-0.700963,-0.380905,0.000303,0.070598,1.038308
2011-09-30T11:50:52.064663,11710,-0.867537,-0.588030,-0.381764,0.000637,0.067948,1.036454
2011-09-30T11:50:52.074663,11720,-0.762922,-0.475098,-0.382623,0.000970,0.065298,1.034599
2011-09-30T11:50:52.084663,11730,-0.658307,-0.362166,-0.383482,0.001304,0.062648,1.032745
2011-09-30T11:50:52.094663,11740,-0.553692,-0.249233,-0.384341,0.001637,0.059998,1.030891
2011-09-30T11:50:52.104663,11750,-0.449078,-0.136301,-0.385200,0.001971,0.057348,1.029036
2011-09-30T11:50:52.114663,11760,-0.344463,-0.023369,-0.386060,0.002304,0.054698,1.027182
2011-09-30T11:50:52.124663,11770,-0.237831,0.090524,-0.386749,0.002597,0.052003,1.025302
2011-09-30T11:50:52.134663,11780,-0.072427,0.232385,-0.382496,0.001711,0.048022,1.022675
2011-09-30T11:50:52.144663,11790,0.092978,0.374247,-0.378243,0.000824,0.044040,1.020047
2011-09-30T11:50:52.154663,11800,0.258383,0.516109,-0.373990,-0.000063,0.040058,1.017420
2011-09-30T11:50:52.164663,11810,0.423788,0.657971,-0.369737,-0.000949,0.036077,1.014793
2011-09-30T11:50:52.174663,11820,0.589192,0.799833,-0.365484,-0.001836,0.032095,1.012166
2011-09-30T11:50:52.184663,11830,0.754597,0.941694,-0.361231,-0.002723,0.028113,1.009538
2011-09-30T11:50:52.194663,11840,0.920002,1.083556,-0.356978,-0.003609,0.024132,1.006911
2011-09-30T11:50:52.204663,11850,1.085407,1.225418,-0.352725,-0.004496,0.020150,1.004284
2011-09-30T11:50:52.214663,11860,1.250811,1.367280,-0.348472,-0.005382,0.016168,1.001657
2011-09-30T11:50:52.224663,11870,1.414301,1.504362,-0.344248,-0.006274,0.012468,0.998965
2011-09-30T11:50:52.234663,11880,1.529172,1.520075,-0.340747,-0.007284,0.015922,0.994655
2011-09-30T11:50:52.244663,11890,1.644043,1.535788,-0.337247,-0.008295,0.019376,0.990345
2011-09-30T11:50:52.254663,11900,1.758914,1.551501,-0.333747,-0.009306,0.022829,0.986035
2011-09-30T11:50:52.264663,11910,1.873785,1.567215,-0.330246,-0.010316,0.026283,0.981725
2011-09-30T11:50:52.274663,11920,1.988656,1.582928,-0.326746,-0.011327,0.029737,0.977415
2011-09-30T11:50:52.284663,11930,2.103527,1.598641,-0.323246,-0.012337,0.033190,0.973105
2011-09-30T11:50:52.294663,11940,2.218398,1.614354,-0.319745,-0.013348,0.036644,0.968795
2011-09-30T11:50:52.304663,11950,2.333269,1.630068,-0.316245,-0.014359,0.040098,0.964485
2011-09-30T11:50:52.314663,11960,2.448140,1.645781,-0.312745,-0.015369,0.043551,0.960175
2011-09-30T11:50:52.324663,11970,2.557416,1.656414,-0.308839,-0.016317,0.046962,0.956068
2011-09-30T11:50:52.334663,11980,2.529849,1.542810,-0.295019,-0.015733,0.049315,0.956923
2011-09-30T11:50:52.344663,11990,2.502282,1.429205,-0.281198,-0.015149,0.051669,0.957779
2011-09-30T11:50:52.354663,12000,2.474715,1.315600,-0.267378,-0.014565,0.054022,0.958634
2011-09-30T11:50:52.364663,12010,2.447148,1.201996,-0.253558,-0.013982,0.056375,0.959490
2011-09-30T11:50:52.374663,12020,2.419581,1.088391,-0.239737,-0.013398,0.058729,0.960345
2011-09-30T11:50:52.384663,12030,2.392014,0.974786,-0.225917,-0.012814,0.061082,0.961201
2011-09-30T11:50:52.394663,12040,2.364447,0.861182,-0.212097,-0.012230,0.063435,0.962056
2011-09-30T11:50:52.404663,12050,2.336880,0.747577,-0.198276,-0.011646,0.065789,0.962912
2011-09-30T11:50:52.414663,12060,2.309313,0.633972,-0.184456,-0.011062,0.068142,0.963767
2011-09-30T11:50:52.424663,12070,2.281746,0.520368,-0.170635,-0.010478,0.070495,0.964622
2011-09-30T11:50:52.434663,12080,2.250664,0.410666,-0.156948,-0.009884,0.072858,0.965519
2011-09-30T11:50:52.444663,12090,2.137349,0.392288,-0.146364,-0.009045,0.075445,0.967373
2011-09-30T11:50:52.454663,12100,2.024033,0.373910,-0.135780,-0.008206,0.078032,0.969228
2011-09-30T11:50:52.464663,12110,1.910717,0.355532,-0.125196,-0.007367,0.080619,0.971083
2011-09-30T11:50:52.474663,12120,1.797401,0.337153,-0.114612,-0.006528,0.083206,0.972937
2011-09-30T11:50:52.484663,12130,1.684086,0.318775,-0.104028,-0.005688,0.085793,0.974792
2011-09-30T11:50:52.494663,12140,1.570770,0.300397,-0.093444,-0.004849,0.088380,0.976646
2011-09-30T11:50:52.504663,12150,1.457454,0.282019,-0.082860,-0.004010,0.090967,0.978501
2011-09-30T11:50:52.514663,12160,1.344138,0.263640,-0.072276,-0.003171,0.093553,0.980355
2011-09-30T11:50:52.524663,12170,1.230823,0.245262,-0.061692,-0.002332,0.096140,0.982210
2011-09-30T11:50:52.534663,12180,1.115708,0.227148,-0.052371,-0.001516,0.098667,0.984013
2011-09-30T11:50:52.544663,12190,0.940541,0.217875,-0.085190,-0.001456,0.099194,0.984085
2011-09-30T11:50:52.554663,12200,0.765374,0.208602,-0.118009,-0.001397,0.099720,0.984157
2011-09-30T11:50:52.564663,12210,0.590207,0.199328,-0.150828,-0.001337,0.100246,0.984230
2011-09-30T11:50:52.574663,12220,0.415040,0.190055,-0.183647,-0.001278,0.100772,0.984302
2011-09-30T11:50:52.584663,12230,0.239873,0.180782,-0.216466,-0.001218,0.101299,0.984374
2011-09-30T11:50:52.594663,12240,0.064706,0.171508,-0.249285,-0.001158,0.101825,0.984446
2011-09-30T11:50:52.604663,12250,-0.110461,0.162235,-0.282104,-0.001099,0.102351,0.984519
2011-09-30T11:50:52.614663,12260,-0.285628,0.152961,-0.314923,-0.001039,0.102877,0.984591
2011-09-30T11:50:52.624663,12270,-0.460795,0.143688,-0.347742,-0.000979,0.103403,0.984663
2011-09-30T11:50:52.634663,12280,-0.635962,0.134415,-0.380561,-0.000920,0.103930,0.984735
2011-09-30T11:50:52.644663,12290,-0.809009,0.124419,-0.412912,-0.000875,0.104330,0.984817
2011-09-30T11:50:52.654663,12300,-0.931172,0.097081,-0.434022,-0.001177,0.101715,0.985118
2011-09-30T11:50:52.664663,12310,-1.053335,0.069742,-0.455132,-0.001480,0.099099,0.985420
2011-09-30T11:50:52.674663,12320,-1.175498,0.042404,-0.476242,-0.001782,0.096484,0.985722
2011-09-30T11:50:52.684663,12330,-1.297660,0.015066,-0.497353,-0.002085,0.093869,0.986023
2011-09-30T11:50:52.694663,12340,-1.419823,-0.012273,-0.518463,-0.002387,0.091253,0.986325
2011-09-30T11:50:52.704663,12350,-1.541986,-0.039611,-0.539573,-0.002690,0.088638,0.986627
2011-09-30T11:50:52.714663,12360,-1.664149,-0.066949,-0.560683,-0.002992,0.086023,0.986928
2011-09-30T11:50:52.724663,12370,-1.786312,-0.094288,-0.581793,-0.003295,0.083407,0.987230
2011-09-30T11:50:52.734663,12380,-1.908475,-0.121626,-0.602904,-0.003597,0.080792,0.987532
2011-09-30T11:50:52.744663,12390,-2.025402,-0.151272,-0.622641,-0.003848,0.078197,0.987857
2011-09-30T11:50:52.754663,12400,-2.011246,-0.238704,-0.608013,-0.002811,0.076128,0.988784
2011-09-30T11:50:52.764663,12410,-1.997089,-0.326137,-0.593385,-0.001774,0.074058,0.989711
2011-09-30T11:50:52.774663,12420,-1.982933,-0.413570,-0.578756,-0.000737,0.071988,0.990638
2011-09-30T11:50:52.784663,12430,-1.968776,-0.501002,-0.564128,0.000300,0.069918,0.991564
2011-09-30T11:50:52.794663,12440,-1.954619,-0.588435,-0.549499,0.001337,0.067848,0.992491
2011-09-30T11:50:52.804663,12450,-1.940463,-0.675867,-0.534871,0.002374,0.065778,0.993418
2011-09-30T11:50:52.814663,12460,-1.926306,-0.763300,-0.520243,0.003412,0.063708,0.994345
2011-09-30T11:50:52.824663,12470,-1.912150,-0.850732,-0.505614,0.004449,0.061638,0.995271
2011-09-30T11:50:52.834663,12480,-1.897993,-0.938165,-0.490986,0.005486,0.059568,0.996198
2011-09-30T11:50:52.844663,12490,-1.883836,-1.025598,-0.476357,0.006523,0.057498,0.997125
2011-09-30T11:50:52.854663,12500,-1.869227,-1.107036,-0.462026,0.007566,0.055511,0.998147
2011-09-30T11:50:52.864663,12510,-1.842890,-1.033263,-0.455377,0.008766,0.055689,1.001634
2011-09-30T11:50:52.874663,12520,-1.816554,-0.959490,-0.448727,0.009965,0.055866,1.005122
2011-09-30T11:50:52.884663,12530,-1.790217,-0.885716,-0.442078,0.011164,0.056043,1.008609
2011-09-30T11:50:52.894663,12540,-1.763880,-0.811943,-0.435429,0.012364,0.056221,1.012096
2011-09-30T11:50:52.904663,12550,-1.737544,-0.738170,-0.428780,0.013563,0.056398,1.015584
2011-09-30T11:50:52.914663,12560,-1.711207,-0.664397,-0.422131,0.014762,0.056575,1.019071
2011-09-30T11:50:52.924663,12570,-1.684870,-0.590623,-0.415481,0.015962,0.056753,1.022559
2011-09-30T11:50:52.934663,12580,-1.658534,-0.516850,-0.408832,0.017161,0.056930,1.026046
2011-09-30T11:50:52.944663,12590,-1.632197,-0.443077,-0.402183,0.018360,0.057107,1.029534
2011-09-30T11:50:52.954663,12600,-1.605527,-0.368807,-0.395427,0.019522,0.057262,1.032909
2011-09-30T11:50:52.964663,12610,-1.561739,-0.268982,-0.383189,0.018741,0.056272,1.030494
2011-09-30T11:50:52.974663,12620,-1.517950,-0.169157,-0.370951,0.017961,0.055282,1.028080
2011-09-30T11:50:52.984663,12630,-1.474161,-0.069332,-0.358713,0.017180,0.054292,1.025666
2011-09-30T11:50:52.994663,12640,-1.430372,0.030493,-0.346475,0.016400,0.053302,1.023251
2011-09-30T11:50:53.004663,12650,-1.386584,0.130318,-0.334237,0.015619,0.052312,1.020837
2011-09-30T11:50:53.014663,12660,-1.342795,0.230143,-0.321999,0.014838,0.051322,1.018423
2011-09-30T11:50:53.024663,12670,-1.299006,0.329968,-0.309761,0.014058,0.050332,1.016008
2011-09-30T11:50:53.034663,12680,-1.255217,0.429793,-0.297523,0.013277,0.049342,1.013594
2011-09-30T11:50:53.044663,12690,-1.211429,0.529618,-0.285285,0.012497,0.048351,1.011180
2011-09-30T11:50:53.054663,12700,-1.168451,0.625881,-0.272620,0.011716,0.047424,1.008759
2011-09-30T11:50:53.064663,12710,-1.165686,0.545579,-0.238785,0.010947,0.049592,1.006012
2011-09-30T11:50:53.074663,12720,-1.162921,0.465277,-0.204950,0.010178,0.051761,1.003265
2011-09-30T11:50:53.084663,12730,-1.160157,0.384974,-0.171115,0.009410,0.053929,1.000518
2011-09-30T11:50:53.094663,12740,-1.157392,0.304672,-0.137281,0.008641,0.056098,0.997771
2011-09-30T11:50:53.104663,12750,-1.154627,0.224369,-0.103446,0.007872,0.058266,0.995024
2011-09-30T11:50:53.114663,12760,-1.151862,0.144067,-0.069611,0.007103,0.060434,0.992277
2011-09-30T11:50:53.124663,12770,-1.149097,0.063764,-0.035776,0.006334,0.062603,0.989530
2011-09-30T11:50:53.134663,12780,-1.146332,-0.016538,-0.001941,0.005565,0.064771,0.986783
2011-09-30T11:50:53.144663,12790,-1.143568,-0.096840,0.031894,0.004796,0.066940,0.984037
2011-09-30T11:50:53.154663,12800,-1.140803,-0.177143,0.065728,0.004027,0.069108,0.981290
2011-09-30T11:50:53.164663,12810,-1.137655,-0.258072,0.098946,0.003294,0.071205,0.978693
2011-09-30T11:50:53.174663,12820,-1.124661,-0.355095,0.116317,0.003504,0.071464,0.979954
2011-09-30T11:50:53.184663,12830,-1.111668,-0.452117,0.133687,0.003713,0.071722,0.981216
2011-09-30T11:50:53.194663,12840,-1.098675,-0.549140,0.151058,0.003923,0.071981,0.982477
2011-09-30T11:50:53.204663,12850,-1.085681,-0.646163,0.168429,0.004132,0.072240,0.983738
2011-09-30T11:50:53.214663,12860,-1.072688,-0.743185,0.185799,0.004342,0.072499,0.985000
2011-09-30T11:50:53.224663,12870,-1.059695,-0.840208,0.203170,0.004551,0.072757,0.986261
2011-09-30T11:50:53.234663,12880,-1.046701,-0.937231,0.220540,0.004761,0.073016,0.987523
2011-09-30T11:50:53.244663,12890,-1.033708,-1.034254,0.237911,0.004970,0.073275,0.988784
2011-09-30T11:50:53.254663,12900,-1.020715,-1.131276,0.255282,0.005180,0.073534,0.990045
2011-09-30T11:50:53.264663,12910,-1.011708,-1.225171,0.272065,0.005417,0.073831,0.991376
2011-09-30T11:50:53.274663,12920,-1.103669,-1.239863,0.273976,0.006361,0.075105,0.994460
2011-09-30T11:50:53.284663,12930,-1.195630,-1.254555,0.275887,0.007304,0.076380,0.997543
2011-09-30T11:50:53.294663,12940,-1.287591,-1.269247,0.277798,0.008248,0.077654,1.000627
2011-09-30T11:50:53.304663,12950,-1.379552,-1.283939,0.279710,0.009191,0.078929,1.003711
2011-09-30T11:50:53.314663,12960,-1.471513,-1.298631,0.281621,0.010134,0.080204,1.006795
2011-09-30T11:50:53.324663,12970,-1.563474,-1.313322,0.283532,0.011078,0.081478,1.009879
2011-09-30T11:50:53.334663,12980,-1.655434,-1.328014,0.285443,0.012021,0.082753,1.012962
2011-09-30T11:50:53.344663,12990,-1.747395,-1.342706,0.287354,0.012965,0.084027,1.016046
2011-09-30T11:50:53.354663,13000,-1.839356,-1.357398,0.289266,0.013908,0.085302,1.019130
2011-09-30T11:50:53.364663,13010,-1.931317,-1.372090,0.291177,0.014851,0.086576,1.022214
2011-09-30T11:50:53.374663,13020,-2.022765,-1.384683,0.292669,0.015797,0.087798,1.025240
2011-09-30T11:50:53.384663,13030,-2.093619,-1.313011,0.277344,0.016823,0.086928,1.025945
2011-09-30T11:50:53.394663,13040,-2.164473,-1.241338,0.262018,0.017848,0.086058,1.026651
2011-09-30T11:50:53.404663,13050,-2.235328,-1.169666,0.246692,0.018874,0.085188,1.027357
2011-09-30T11:50:53.414663,13060,-2.306182,-1.097993,0.231366,0.019900,0.084318,1.028063
2011-09-30T11:50:53.424663,13070,-2.377036,-1.026320,0.216041,0.020926,0.083448,1.028768
2011-09-30T11:50:53.434663,13080,-2.447890,-0.954648,0.200715,0.021952,0.082577,1.029474
2011-09-30T11:50:53.444663,13090,-2.518744,-0.882975,0.185389,0.022978,0.081707,1.030180
2011-09-30T11:50:53.454663,13100,-2.589598,-0.811302,0.170064,0.024004,0.080837,1.030886
2011-09-30T11:50:53.464663,13110,-2.660452,-0.739630,0.154738,0.025029,0.079967,1.031591
2011-09-30T11:50:53.474663,13120,-2.728039,-0.667048,0.139064,0.026034,0.079025,1.032236
2011-09-30T11:50:53.484663,13130,-2.704969,-0.569254,0.113722,0.026449,0.076109,1.031197
2011-09-30T11:50:53.494663,13140,-2.681899,-0.471459,0.088379,0.026864,0.073192,1.030158
2011-09-30T11:50:53.504663,13150,-2.658830,-0.373665,0.063037,0.027280,0.070275,1.029119
2011-09-30T11:50:53.514663,13160,-2.635760,-0.275870,0.037694,0.027695,0.067358,1.028080
2011-09-30T11:50:53.524663,13170,-2.612691,-0.178076,0.012352,0.028110,0.064442,1.027041
2011-09-30T11:50:53.534663,13180,-2.589621,-0.080282,-0.012990,0.028525,0.061525,1.026002
2011-09-30T11:50:53.544663,13190,-2.566552,0.017513,-0.038333,0.028940,0.058608,1.024963
2011-09-30T11:50:53.554663,13200,-2.543482,0.115307,-0.063675,0.029355,0.055692,1.023924
2011-09-30T11:50:53.564663,13210,-2.520413,0.213102,-0.089018,0.029771,0.052775,1.022885
2011-09-30T11:50:53.574663,13220,-2.495837,0.310309,-0.113778,0.030131,0.049882,1.021768
2011-09-30T11:50:53.584663,13230,-2.432929,0.392565,-0.123725,0.029091,0.047596,1.018659
2011-09-30T11:50:53.594663,13240,-2.370020,0.474820,-0.133671,0.028050,0.045310,1.015550
2011-09-30T11:50:53.604663,13250,-2.307112,0.557076,-0.143617,0.027010,0.043023,1.012441
2011-09-30T11:50:53.614663,13260,-2.244203,0.639332,-0.153564,0.025970,0.040737,1.009331
2011-09-30T11:50:53.624663,13270,-2.181294,0.721587,-0.163510,0.024930,0.038451,1.006222
2011-09-30T11:50:53.634663,13280,-2.118386,0.803843,-0.173457,0.023890,0.036165,1.003113
2011-09-30T11:50:53.644663,13290,-2.055477,0.886099,-0.183403,0.022850,0.033879,1.000004
2011-09-30T11:50:53.654663,13300,-1.992568,0.968354,-0.193349,0.021810,0.031592,0.996894
2011-09-30T11:50:53.664663,13310,-1.929660,1.050610,-0.203296,0.020770,0.029306,0.993785
2011-09-30T11:50:53.674663,13320,-1.866751,1.132866,-0.213242,0.019729,0.027020,0.990676
2011-09-30T11:50:53.684663,13330,-1.801680,1.211551,-0.222311,0.018697,0.024841,0.987609
2011-09-30T11:50:53.694663,13340,-1.679151,1.195402,-0.208071,0.017866,0.025504,0.985648
2011-09-30T11:50:53.704663,13350,-1.556623,1.179252,-0.193832,0.017036,0.026166,0.983688
2011-09-30T11:50:53.714663,13360,-1.434095,1.163103,-0.179592,0.016205,0.026829,0.981728
2011-09-30T11:50:53.724663,13370,-1.311567,1.146954,-0.165352,0.015375,0.027492,0.979768
2011-09-30T11:50:53.734663,13380,-1.189038,1.130804,-0.151112,0.014544,0.028155,0.977808
2011-09-30T11:50:53.744663,13390,-1.066510,1.114655,-0.136872,0.013714,0.028818,0.975847
2011-09-30T11:50:53.754663,13400,-0.943982,1.098506,-0.122632,0.012883,0.029480,0.973887
2011-09-30T11:50:53.764663,13410,-0.821454,1.082356,-0.108392,0.012052,0.030143,0.971927
2011-09-30T11:50:53.774663,13420,-0.698926,1.066207,-0.094152,0.011222,0.030806,0.969967
2011-09-30T11:50:53.784663,13430,-0.572960,1.049857,-0.078721,0.010450,0.031408,0.968127
2011-09-30T11:50:53.794663,13440,-0.370435,1.029035,-0.036755,0.010983,0.030660,0.968974
2011-09-30T11:50:53.804663,13450,-0.167910,1.008213,0.005211,0.011516,0.029912,0.969820
2011-09-30T11:50:53.814663,13460,0.034616,0.987391,0.047177,0.012049,0.029164,0.970667
2011-09-30T11:50:53.824663,13470,0.237141,0.966569,0.089143,0.012583,0.028417,0.971513
2011-09-30T11:50:53.834663,13480,0.439666,0.945747,0.131109,0.013116,0.027669,0.972360
2011-09-30T11:50:53.844663,13490,0.642191,0.924925,0.173075,0.013649,0.026921,0.973206
2011-09-30T11:50:53.854663,13500,0.844716,0.904103,0.215041,0.014182,0.026173,0.974053
2011-09-30T11:50:53.864663,13510,1.047242,0.883281,0.257007,0.014715,0.025425,0.974899
2011-09-30T11:50:53.874663,13520,1.249767,0.862459,0.298973,0.015248,0.024677,0.975746
2011-09-30T11:50:53.884663,13530,1.452292,0.841637,0.340939,0.015781,0.023929,0.976593
2011-09-30T11:50:53.894663,13540,1.645749,0.818871,0.383034,0.016251,0.023352,0.977484
2011-09-30T11:50:53.904663,13550,1.607716,0.746484,0.428413,0.015092,0.027152,0.979530
2011-09-30T11:50:53.914663,13560,1.569682,0.674097,0.473792,0.013934,0.030951,0.981576
2011-09-30T11:50:53.924663,13570,1.531649,0.601710,0.519171,0.012776,0.034750,0.983622
