pc_time,ts_ms,gyroX,gyroY,gyroZ,accelX,accelY,accelZ
2011-09-26T15:02:53.806285,0,-0.018408,-0.001775,0.021479,-0.024840,0.028678,1.001004
2011-09-26T15:02:53.816285,10,-0.016527,-0.002142,0.015730,-0.024883,0.028703,1.000729
2011-09-26T15:02:53.826285,20,-0.014646,-0.002510,0.009981,-0.024926,0.028728,1.000455
2011-09-26T15:02:53.836285,30,-0.012765,-0.002877,0.004233,-0.024969,0.028753,1.000180
2011-09-26T15:02:53.846285,40,-0.010884,-0.003244,-0.001516,-0.025012,0.028778,0.999906
2011-09-26T15:02:53.856285,50,-0.009002,-0.003611,-0.007265,-0.025054,0.028803,0.999631
2011-09-26T15:02:53.866285,60,-0.007121,-0.003979,-0.013014,-0.025097,0.028828,0.999357
2011-09-26T15:02:53.876285,70,-0.005240,-0.004346,-0.018762,-0.025140,0.028852,0.999082
2011-09-26T15:02:53.886285,80,-0.003359,-0.004713,-0.024511,-0.025183,0.028877,0.998807
2011-09-26T15:02:53.896285,90,-0.001477,-0.005080,-0.030260,-0.025226,0.028902,0.998533
2011-09-26T15:02:53.906285,100,0.000401,-0.005441,-0.035981,-0.025268,0.028927,0.998259
2011-09-26T15:02:53.916285,110,0.001178,-0.002954,-0.030232,-0.025292,0.029048,0.998293
2011-09-26T15:02:53.926285,120,0.001954,-0.000467,-0.024484,-0.025315,0.029168,0.998326
2011-09-26T15:02:53.936285,130,0.002731,0.002020,-0.018735,-0.025338,0.029289,0.998359
2011-09-26T15:02:53.946285,140,0.003507,0.004507,-0.012987,-0.025361,0.029409,0.998393
2011-09-26T15:02:53.956285,150,0.004284,0.006994,-0.007238,-0.025384,0.029529,0.998426
2011-09-26T15:02:53.966285,160,0.005061,0.009481,-0.001490,-0.025408,0.029650,0.998459
2011-09-26T15:02:53.976285,170,0.005837,0.011968,0.004259,-0.025431,0.029770,0.998493
2011-09-26T15:02:53.986285,180,0.006614,0.014455,0.010007,-0.025454,0.029890,0.998526
2011-09-26T15:02:53.996285,190,0.007391,0.016942,0.015756,-0.025477,0.030011,0.998560
2011-09-26T15:02:54.006285,200,0.008167,0.019429,0.021504,-0.025501,0.030131,0.998593
2011-09-26T15:02:54.016285,210,0.008935,0.021898,0.027236,-0.025524,0.030251,0.998627
2011-09-26T15:02:54.026285,220,0.006406,0.017836,0.027144,-0.025540,0.030023,0.998768
2011-09-26T15:02:54.036285,230,0.003878,0.013773,0.027052,-0.025555,0.029795,0.998909
2011-09-26T15:02:54.046285,240,0.001350,0.009711,0.026959,-0.025571,0.029567,0.999050
2011-09-26T15:02:54.056285,250,-0.001179,0.005648,0.026867,-0.025587,0.029339,0.999191
2011-09-26T15:02:54.066285,260,-0.003707,0.001586,0.026775,-0.025603,0.029112,0.999332
2011-09-26T15:02:54.076285,270,-0.006235,-0.002477,0.026682,-0.025619,0.028884,0.999473
2011-09-26T15:02:54.086285,280,-0.008763,-0.006539,0.026590,-0.025634,0.028656,0.999615
2011-09-26T15:02:54.096285,290,-0.011292,-0.010602,0.026497,-0.025650,0.028428,0.999756
2011-09-26T15:02:54.106285,300,-0.013820,-0.014664,0.026405,-0.025666,0.028200,0.999897
2011-09-26T15:02:54.116285,310,-0.016348,-0.018727,0.026313,-0.025682,0.027972,1.000038
2011-09-26T15:02:54.126285,320,-0.012880,-0.013737,0.024376,-0.025543,0.028088,1.000021
2011-09-26T15:02:54.136285,330,-0.009319,-0.008606,0.022411,-0.025403,0.028208,1.000002
2011-09-26T15:02:54.146285,340,-0.005757,-0.003475,0.020445,-0.025262,0.028329,0.999982
2011-09-26T15:02:54.156285,350,-0.002196,0.001656,0.018480,-0.025121,0.028449,0.999963
2011-09-26T15:02:54.166285,360,0.001366,0.006787,0.016515,-0.024980,0.028570,0.999943
2011-09-26T15:02:54.176285,370,0.004927,0.011917,0.014549,-0.024839,0.028690,0.999924
2011-09-26T15:02:54.186285,380,0.008489,0.017048,0.012584,-0.024698,0.028811,0.999904
2011-09-26T15:02:54.196285,390,0.012050,0.022179,0.010619,-0.024557,0.028931,0.999885
2011-09-26T15:02:54.206285,400,0.015612,0.027310,0.008653,-0.024416,0.029052,0.999865
2011-09-26T15:02:54.216285,410,0.019152,0.032401,0.006692,-0.024276,0.029171,0.999846
2011-09-26T15:02:54.226285,420,0.015906,0.024571,0.006125,-0.024302,0.029056,0.999941
2011-09-26T15:02:54.236285,430,0.012661,0.016741,0.005558,-0.024329,0.028941,1.000035
2011-09-26T15:02:54.246285,440,0.009415,0.008912,0.004992,-0.024355,0.028826,1.000130
2011-09-26T15:02:54.256285,450,0.006169,0.001082,0.004425,-0.024381,0.028711,1.000224
2011-09-26T15:02:54.266285,460,0.002924,-0.006747,0.003858,-0.024408,0.028596,1.000319
2011-09-26T15:02:54.276285,470,-0.000322,-0.014577,0.003291,-0.024434,0.028481,1.000413
2011-09-26T15:02:54.286285,480,-0.003568,-0.022406,0.002724,-0.024460,0.028366,1.000508
2011-09-26T15:02:54.296285,490,-0.006813,-0.030236,0.002157,-0.024486,0.028251,1.000602
2011-09-26T15:02:54.306285,500,-0.010059,-0.038065,0.001590,-0.024513,0.028136,1.000697
2011-09-26T15:02:54.316285,510,-0.013305,-0.045895,0.001023,-0.024539,0.028021,1.000791
2011-09-26T15:02:54.326285,520,-0.016541,-0.053697,0.000457,-0.024566,0.027906,1.000885
2011-09-26T15:02:54.336285,530,-0.012855,-0.040415,0.001125,-0.024720,0.028158,1.000614
2011-09-26T15:02:54.346285,540,-0.009168,-0.027132,0.001792,-0.024875,0.028409,1.000342
2011-09-26T15:02:54.356285,550,-0.005482,-0.013850,0.002460,-0.025030,0.028660,1.000071
2011-09-26T15:02:54.366285,560,-0.001795,-0.000567,0.003127,-0.025185,0.028912,0.999799
2011-09-26T15:02:54.376285,570,0.001891,0.012715,0.003795,-0.025340,0.029163,0.999528
2011-09-26T15:02:54.386285,580,0.005578,0.025998,0.004462,-0.025495,0.029415,0.999256
2011-09-26T15:02:54.396285,590,0.009264,0.039280,0.005129,-0.025650,0.029666,0.998985
2011-09-26T15:02:54.406285,600,0.012950,0.052563,0.005797,-0.025805,0.029917,0.998713
2011-09-26T15:02:54.416285,610,0.016637,0.065845,0.006464,-0.025959,0.030169,0.998442
2011-09-26T15:02:54.426285,620,0.020323,0.079128,0.007132,-0.026114,0.030420,0.998170
2011-09-26T15:02:54.436285,630,0.018056,0.067104,0.004203,-0.025980,0.030055,0.998334
2011-09-26T15:02:54.446285,640,0.015757,0.054950,0.001257,-0.025844,0.029687,0.998501
2011-09-26T15:02:54.456285,650,0.013459,0.042796,-0.001690,-0.025709,0.029318,0.998668
2011-09-26T15:02:54.466285,660,0.011160,0.030642,-0.004637,-0.025573,0.028950,0.998834
2011-09-26T15:02:54.476285,670,0.008862,0.018488,-0.007584,-0.025437,0.028582,0.999001
2011-09-26T15:02:54.486285,680,0.006564,0.006335,-0.010531,-0.025302,0.028213,0.999167
2011-09-26T15:02:54.496285,690,0.004265,-0.005819,-0.013478,-0.025166,0.027845,0.999334
2011-09-26T15:02:54.506285,700,0.001967,-0.017973,-0.016425,-0.025030,0.027476,0.999500
2011-09-26T15:02:54.516285,710,-0.000331,-0.030127,-0.019372,-0.024895,0.027108,0.999667
2011-09-26T15:02:54.526285,720,-0.002624,-0.042252,-0.022307,-0.024759,0.026741,0.999833
2011-09-26T15:02:54.536285,730,-0.001045,-0.036387,-0.018044,-0.024844,0.027001,0.999722
2011-09-26T15:02:54.546285,740,0.000533,-0.030522,-0.013780,-0.024928,0.027262,0.999612
2011-09-26T15:02:54.556285,750,0.002111,-0.024657,-0.009517,-0.025012,0.027523,0.999501
2011-09-26T15:02:54.566285,760,0.003690,-0.018792,-0.005253,-0.025096,0.027783,0.999391
2011-09-26T15:02:54.576285,770,0.005268,-0.012927,-0.000989,-0.025180,0.028044,0.999280
2011-09-26T15:02:54.586285,780,0.006846,-0.007062,0.003274,-0.025265,0.028305,0.999169
2011-09-26T15:02:54.596285,790,0.008424,-0.001197,0.007538,-0.025349,0.028565,0.999059
2011-09-26T15:02:54.606285,800,0.010003,0.004668,0.011801,-0.025433,0.028826,0.998948
2011-09-26T15:02:54.616285,810,0.011581,0.010533,0.016065,-0.025517,0.029087,0.998837
2011-09-26T15:02:54.626285,820,0.013159,0.016398,0.020329,-0.025601,0.029347,0.998727
2011-09-26T15:02:54.636285,830,0.014737,0.022263,0.024592,-0.025686,0.029608,0.998616
2011-09-26T15:02:54.646285,840,0.017623,0.020497,0.024761,-0.025605,0.029458,0.998794
2011-09-26T15:02:54.656285,850,0.020517,0.018684,0.024904,-0.025524,0.029306,0.998974
2011-09-26T15:02:54.666285,860,0.023412,0.016870,0.025047,-0.025443,0.029153,0.999154
2011-09-26T15:02:54.676285,870,0.026306,0.015057,0.025190,-0.025362,0.029001,0.999334
2011-09-26T15:02:54.686285,880,0.029200,0.013244,0.025333,-0.025281,0.028849,0.999514
2011-09-26T15:02:54.696285,890,0.032094,0.011430,0.025476,-0.025199,0.028697,0.999694
2011-09-26T15:02:54.706285,900,0.034988,0.009617,0.025620,-0.025118,0.028544,0.999874
2011-09-26T15:02:54.716285,910,0.037882,0.007804,0.025763,-0.025037,0.028392,1.000054
2011-09-26T15:02:54.726285,920,0.040776,0.005990,0.025906,-0.024956,0.028240,1.000234
2011-09-26T15:02:54.736285,930,0.043670,0.004177,0.026049,-0.024874,0.028087,1.000414
2011-09-26T15:02:54.746285,940,0.037988,0.003406,0.023446,-0.024925,0.028079,1.000290
2011-09-26T15:02:54.756285,950,0.032305,0.002635,0.020843,-0.024975,0.028070,1.000166
2011-09-26T15:02:54.766285,960,0.026622,0.001864,0.018239,-0.025025,0.028062,1.000041
2011-09-26T15:02:54.776285,970,0.020938,0.001093,0.015636,-0.025075,0.028053,0.999917
2011-09-26T15:02:54.786285,980,0.015255,0.000322,0.013032,-0.025125,0.028045,0.999793
2011-09-26T15:02:54.796285,990,0.009572,-0.000449,0.010429,-0.025175,0.028036,0.999669
2011-09-26T15:02:54.806285,1000,0.003888,-0.001220,0.007825,-0.025226,0.028028,0.999545
2011-09-26T15:02:54.816285,1010,-0.001795,-0.001991,0.005222,-0.025276,0.028019,0.999421
2011-09-26T15:02:54.826285,1020,-0.007478,-0.002762,0.002618,-0.025326,0.028011,0.999297
2011-09-26T15:02:54.836285,1030,-0.013162,-0.003533,0.000015,-0.025376,0.028003,0.999173
2011-09-26T15:02:54.846285,1040,-0.018838,-0.004301,-0.002586,-0.025426,0.027994,0.999049
2011-09-26T15:02:54.856285,1050,-0.016121,-0.001945,-0.002368,-0.025309,0.028070,0.999213
2011-09-26T15:02:54.866285,1060,-0.013404,0.000411,-0.002150,-0.025192,0.028147,0.999376
2011-09-26T15:02:54.876285,1070,-0.010688,0.002766,-0.001932,-0.025075,0.028223,0.999540
2011-09-26T15:02:54.886285,1080,-0.007971,0.005122,-0.001713,-0.024958,0.028299,0.999704
2011-09-26T15:02:54.896285,1090,-0.005255,0.007478,-0.001495,-0.024841,0.028375,0.999867
2011-09-26T15:02:54.906285,1100,-0.002538,0.009834,-0.001277,-0.024724,0.028451,1.000031
2011-09-26T15:02:54.916285,1110,0.000179,0.012190,-0.001059,-0.024607,0.028527,1.000195
2011-09-26T15:02:54.926285,1120,0.002895,0.014546,-0.000841,-0.024490,0.028604,1.000358
2011-09-26T15:02:54.936285,1130,0.005612,0.016901,-0.000622,-0.024373,0.028680,1.000522
2011-09-26T15:02:54.946285,1140,0.008328,0.019257,-0.000404,-0.024256,0.028756,1.000685
2011-09-26T15:02:54.956285,1150,0.011813,0.016394,-0.000532,-0.024435,0.028789,1.000416
2011-09-26T15:02:54.966285,1160,0.015298,0.013528,-0.000660,-0.024615,0.028822,1.000147
2011-09-26T15:02:54.976285,1170,0.018784,0.010661,-0.000787,-0.024795,0.028855,0.999878
2011-09-26T15:02:54.986285,1180,0.022269,0.007795,-0.000915,-0.024975,0.028888,0.999608
2011-09-26T15:02:54.996285,1190,0.025754,0.004928,-0.001043,-0.025155,0.028921,0.999339
2011-09-26T15:02:55.006285,1200,0.029239,0.002062,-0.001170,-0.025335,0.028953,0.999069
2011-09-26T15:02:55.016285,1210,0.032724,-0.000805,-0.001298,-0.025515,0.028986,0.998800
2011-09-26T15:02:55.026285,1220,0.036210,-0.003671,-0.001426,-0.025695,0.029019,0.998531
2011-09-26T15:02:55.036285,1230,0.039695,-0.006537,-0.001553,-0.025875,0.029052,0.998261
2011-09-26T15:02:55.046285,1240,0.043177,-0.009401,-0.001682,-0.026055,0.029085,0.997992
2011-09-26T15:02:55.056285,1250,0.036210,-0.003884,-0.004997,-0.026007,0.029188,0.998048
2011-09-26T15:02:55.066285,1260,0.029243,0.001634,-0.008311,-0.025960,0.029291,0.998105
2011-09-26T15:02:55.076285,1270,0.022276,0.007152,-0.011626,-0.025912,0.029394,0.998161
2011-09-26T15:02:55.086285,1280,0.015309,0.012669,-0.014940,-0.025865,0.029497,0.998217
2011-09-26T15:02:55.096285,1290,0.008342,0.018187,-0.018255,-0.025817,0.029600,0.998273
2011-09-26T15:02:55.106285,1300,0.001374,0.023705,-0.021570,-0.025770,0.029703,0.998330
2011-09-26T15:02:55.116285,1310,-0.005593,0.029222,-0.024884,-0.025722,0.029806,0.998386
2011-09-26T15:02:55.126285,1320,-0.012560,0.034740,-0.028199,-0.025674,0.029909,0.998442
2011-09-26T15:02:55.136285,1330,-0.019527,0.040258,-0.031513,-0.025627,0.030012,0.998498
2011-09-26T15:02:55.146285,1340,-0.026494,0.045776,-0.034828,-0.025579,0.030115,0.998555
2011-09-26T15:02:55.156285,1350,-0.033461,0.051293,-0.038142,-0.025532,0.030218,0.998611
2011-09-26T15:02:55.166285,1360,-0.032246,0.044875,-0.032256,-0.025463,0.029935,0.998781
2011-09-26T15:02:55.176285,1370,-0.030862,0.038210,-0.026179,-0.025395,0.029644,0.998953
2011-09-26T15:02:55.186285,1380,-0.029478,0.031544,-0.020102,-0.025326,0.029353,0.999126
2011-09-26T15:02:55.196285,1390,-0.028094,0.024879,-0.014025,-0.025257,0.029062,0.999298
2011-09-26T15:02:55.206285,1400,-0.026709,0.018213,-0.007948,-0.025189,0.028770,0.999470
2011-09-26T15:02:55.216285,1410,-0.025325,0.011548,-0.001871,-0.025120,0.028479,0.999642
2011-09-26T15:02:55.226285,1420,-0.023941,0.004882,0.004206,-0.025051,0.028188,0.999815
2011-09-26T15:02:55.236285,1430,-0.022556,-0.001783,0.010283,-0.024983,0.027897,0.999987
2011-09-26T15:02:55.246285,1440,-0.021172,-0.008449,0.016359,-0.024914,0.027606,1.000159
2011-09-26T15:02:55.256285,1450,-0.019788,-0.015114,0.022436,-0.024845,0.027315,1.000332
2011-09-26T15:02:55.266285,1460,-0.016340,-0.012541,0.022758,-0.024956,0.027522,1.000092
2011-09-26T15:02:55.276285,1470,-0.012890,-0.009956,0.023072,-0.025067,0.027731,0.999851
2011-09-26T15:02:55.286285,1480,-0.009440,-0.007370,0.023386,-0.025177,0.027939,0.999611
2011-09-26T15:02:55.296285,1490,-0.005989,-0.004784,0.023700,-0.025288,0.028148,0.999371
2011-09-26T15:02:55.306285,1500,-0.002539,-0.002198,0.024014,-0.025399,0.028356,0.999130
2011-09-26T15:02:55.316285,1510,0.000911,0.000388,0.024327,-0.025510,0.028565,0.998890
2011-09-26T15:02:55.326285,1520,0.004362,0.002974,0.024641,-0.025620,0.028773,0.998650
2011-09-26T15:02:55.336285,1530,0.007812,0.005559,0.024955,-0.025731,0.028982,0.998409
2011-09-26T15:02:55.346285,1540,0.011262,0.008145,0.025269,-0.025842,0.029190,0.998169
2011-09-26T15:02:55.356285,1550,0.014713,0.010731,0.025583,-0.025953,0.029399,0.997929
2011-09-26T15:02:55.366285,1560,0.018163,0.013317,0.025896,-0.026063,0.029607,0.997688
2011-09-26T15:02:55.376285,1570,0.014676,0.007733,0.021019,-0.025914,0.029495,0.998054
2011-09-26T15:02:55.386285,1580,0.011148,0.002102,0.016113,-0.025763,0.029381,0.998422
2011-09-26T15:02:55.396285,1590,0.007621,-0.003528,0.011206,-0.025612,0.029267,0.998791
2011-09-26T15:02:55.406285,1600,0.004094,-0.009159,0.006299,-0.025462,0.029153,0.999160
2011-09-26T15:02:55.416285,1610,0.000566,-0.014790,0.001392,-0.025311,0.029040,0.999529
2011-09-26T15:02:55.426285,1620,-0.002961,-0.020420,-0.003515,-0.025160,0.028926,0.999898
2011-09-26T15:02:55.436285,1630,-0.006488,-0.026051,-0.008421,-0.025009,0.028812,1.000266
2011-09-26T15:02:55.446285,1640,-0.010016,-0.031682,-0.013328,-0.024859,0.028698,1.000635
2011-09-26T15:02:55.456285,1650,-0.013543,-0.037313,-0.018235,-0.024708,0.028584,1.001004
2011-09-26T15:02:55.466285,1660,-0.017071,-0.042943,-0.023142,-0.024557,0.028470,1.001373
2011-09-26T15:02:55.476285,1670,-0.012833,-0.035054,-0.019968,-0.024691,0.028574,1.001043
2011-09-26T15:02:55.486285,1680,-0.008567,-0.027115,-0.016765,-0.024826,0.028677,1.000712
2011-09-26T15:02:55.496285,1690,-0.004302,-0.019176,-0.013562,-0.024961,0.028781,1.000380
2011-09-26T15:02:55.506285,1700,-0.000036,-0.011237,-0.010359,-0.025096,0.028885,1.000048
2011-09-26T15:02:55.516285,1710,0.004230,-0.003298,-0.007156,-0.025231,0.028989,0.999716
2011-09-26T15:02:55.526285,1720,0.008495,0.004641,-0.003953,-0.025366,0.029093,0.999384
2011-09-26T15:02:55.536285,1730,0.012761,0.012580,-0.000750,-0.025501,0.029197,0.999052
2011-09-26T15:02:55.546285,1740,0.017027,0.020519,0.002453,-0.025636,0.029301,0.998720
2011-09-26T15:02:55.556285,1750,0.021292,0.028457,0.005656,-0.025771,0.029405,0.998389
2011-09-26T15:02:55.566285,1760,0.025558,0.036396,0.008859,-0.025906,0.029509,0.998057
2011-09-26T15:02:55.576285,1770,0.024234,0.029436,0.010731,-0.025775,0.029257,0.998324
2011-09-26T15:02:55.586285,1780,0.022875,0.022381,0.012595,-0.025642,0.029003,0.998594
2011-09-26T15:02:55.596285,1790,0.021515,0.015326,0.014459,-0.025510,0.028749,0.998865
2011-09-26T15:02:55.606285,1800,0.020156,0.008272,0.016322,-0.025377,0.028495,0.999136
2011-09-26T15:02:55.616285,1810,0.018796,0.001217,0.018186,-0.025244,0.028240,0.999407
2011-09-26T15:02:55.626285,1820,0.017436,-0.005838,0.020050,-0.025112,0.027986,0.999677
2011-09-26T15:02:55.636285,1830,0.016077,-0.012893,0.021913,-0.024979,0.027732,0.999948
2011-09-26T15:02:55.646285,1840,0.014717,-0.019948,0.023777,-0.024846,0.027478,1.000219
2011-09-26T15:02:55.656285,1850,0.013358,-0.027003,0.025641,-0.024713,0.027224,1.000490
2011-09-26T15:02:55.666285,1860,0.011998,-0.034058,0.027505,-0.024581,0.026970,1.000760
2011-09-26T15:02:55.676285,1870,0.010796,-0.030020,0.025874,-0.024700,0.027196,1.000517
2011-09-26T15:02:55.686285,1880,0.009595,-0.025882,0.024212,-0.024821,0.027427,1.000268
2011-09-26T15:02:55.696285,1890,0.008393,-0.021744,0.022550,-0.024942,0.027658,1.000020
2011-09-26T15:02:55.706285,1900,0.007192,-0.017606,0.020887,-0.025063,0.027889,0.999771
2011-09-26T15:02:55.716285,1910,0.005991,-0.013467,0.019225,-0.025184,0.028120,0.999523
2011-09-26T15:02:55.726285,1920,0.004790,-0.009329,0.017563,-0.025305,0.028352,0.999274
2011-09-26T15:02:55.736285,1930,0.003589,-0.005191,0.015901,-0.025426,0.028583,0.999026
2011-09-26T15:02:55.746285,1940,0.002388,-0.001053,0.014239,-0.025547,0.028814,0.998777
2011-09-26T15:02:55.756285,1950,0.001186,0.003085,0.012576,-0.025668,0.029045,0.998528
2011-09-26T15:02:55.766285,1960,-0.000015,0.007224,0.010914,-0.025789,0.029276,0.998280
2011-09-26T15:02:55.776285,1970,-0.001216,0.011362,0.009252,-0.025910,0.029507,0.998031
2011-09-26T15:02:55.786285,1980,-0.000633,0.010414,0.007851,-0.025774,0.029377,0.998288
2011-09-26T15:02:55.796285,1990,-0.000029,0.009405,0.006453,-0.025635,0.029242,0.998550
2011-09-26T15:02:55.806285,2000,0.000576,0.008395,0.005056,-0.025495,0.029108,0.998812
2011-09-26T15:02:55.816285,2010,0.001180,0.007386,0.003658,-0.025356,0.028974,0.999074
2011-09-26T15:02:55.826285,2020,0.001785,0.006376,0.002260,-0.025217,0.028839,0.999337
2011-09-26T15:02:55.836285,2030,0.002389,0.005367,0.000862,-0.025077,0.028705,0.999599
2011-09-26T15:02:55.846285,2040,0.002994,0.004357,-0.000535,-0.024938,0.028570,0.999861
2011-09-26T15:02:55.856285,2050,0.003598,0.003347,-0.001933,-0.024799,0.028436,1.000123
2011-09-26T15:02:55.866285,2060,0.004203,0.002338,-0.003331,-0.024659,0.028301,1.000386
2011-09-26T15:02:55.876285,2070,0.004807,0.001328,-0.004728,-0.024520,0.028167,1.000648
2011-09-26T15:02:55.886285,2080,0.004195,0.006415,0.002151,-0.024677,0.028250,1.000397
2011-09-26T15:02:55.896285,2090,0.003554,0.011648,0.009231,-0.024841,0.028339,1.000133
2011-09-26T15:02:55.906285,2100,0.002912,0.016882,0.016311,-0.025005,0.028428,0.999870
2011-09-26T15:02:55.916285,2110,0.002271,0.022116,0.023390,-0.025169,0.028516,0.999606
2011-09-26T15:02:55.926285,2120,0.001629,0.027350,0.030470,-0.025332,0.028605,0.999343
2011-09-26T15:02:55.936285,2130,0.000988,0.032583,0.037550,-0.025496,0.028694,0.999079
2011-09-26T15:02:55.946285,2140,0.000347,0.037817,0.044629,-0.025660,0.028782,0.998816
2011-09-26T15:02:55.956285,2150,-0.000295,0.043051,0.051709,-0.025824,0.028871,0.998552
2011-09-26T15:02:55.966285,2160,-0.000936,0.048284,0.058789,-0.025988,0.028960,0.998288
2011-09-26T15:02:55.976285,2170,-0.001578,0.053518,0.065868,-0.026152,0.029048,0.998025
2011-09-26T15:02:55.986285,2180,-0.001202,0.049611,0.061086,-0.026022,0.029066,0.998182
2011-09-26T15:02:55.996285,2190,-0.000805,0.045511,0.056053,-0.025886,0.029081,0.998347
2011-09-26T15:02:56.006285,2200,-0.000408,0.041411,0.051020,-0.025749,0.029097,0.998513
2011-09-26T15:02:56.016285,2210,-0.000011,0.037311,0.045987,-0.025613,0.029113,0.998678
2011-09-26T15:02:56.026285,2220,0.000386,0.033210,0.040955,-0.025477,0.029128,0.998844
2011-09-26T15:02:56.036285,2230,0.000783,0.029110,0.035922,-0.025341,0.029144,0.999009
2011-09-26T15:02:56.046285,2240,0.001181,0.025010,0.030889,-0.025205,0.029160,0.999175
2011-09-26T15:02:56.056285,2250,0.001578,0.020910,0.025856,-0.025068,0.029175,0.999340
2011-09-26T15:02:56.066285,2260,0.001975,0.016810,0.020823,-0.024932,0.029191,0.999506
2011-09-26T15:02:56.076285,2270,0.002372,0.012709,0.015790,-0.024796,0.029207,0.999671
2011-09-26T15:02:56.086285,2280,0.002769,0.008609,0.010757,-0.024660,0.029223,0.999837
2011-09-26T15:02:56.096285,2290,0.001118,0.008096,0.006733,-0.024728,0.029217,0.999752
2011-09-26T15:02:56.106285,2300,-0.000579,0.007664,0.002731,-0.024800,0.029211,0.999662
2011-09-26T15:02:56.116285,2310,-0.002277,0.007233,-0.001270,-0.024873,0.029205,0.999572
2011-09-26T15:02:56.126285,2320,-0.003974,0.006801,-0.005271,-0.024945,0.029199,0.999482
2011-09-26T15:02:56.136285,2330,-0.005672,0.006370,-0.009272,-0.025018,0.029193,0.999392
2011-09-26T15:02:56.146285,2340,-0.007369,0.005939,-0.013273,-0.025091,0.029186,0.999302
2011-09-26T15:02:56.156285,2350,-0.009066,0.005507,-0.017275,-0.025163,0.029180,0.999212
2011-09-26T15:02:56.166285,2360,-0.010764,0.005076,-0.021276,-0.025236,0.029174,0.999122
2011-09-26T15:02:56.176285,2370,-0.012461,0.004644,-0.025277,-0.025308,0.029168,0.999032
2011-09-26T15:02:56.186285,2380,-0.014159,0.004213,-0.029278,-0.025381,0.029162,0.998942
2011-09-26T15:02:56.196285,2390,-0.015511,0.008822,-0.025207,-0.025396,0.029216,0.998942
2011-09-26T15:02:56.206285,2400,-0.016859,0.013488,-0.021045,-0.025411,0.029271,0.998943
2011-09-26T15:02:56.216285,2410,-0.018207,0.018154,-0.016883,-0.025426,0.029326,0.998943
2011-09-26T15:02:56.226285,2420,-0.019556,0.022820,-0.012721,-0.025441,0.029381,0.998944
2011-09-26T15:02:56.236285,2430,-0.020904,0.027487,-0.008558,-0.025456,0.029436,0.998944
2011-09-26T15:02:56.246285,2440,-0.022252,0.032153,-0.004396,-0.025470,0.029490,0.998945
2011-09-26T15:02:56.256285,2450,-0.023600,0.036819,-0.000234,-0.025485,0.029545,0.998946
2011-09-26T15:02:56.266285,2460,-0.024949,0.041485,0.003928,-0.025500,0.029600,0.998946
2011-09-26T15:02:56.276285,2470,-0.026297,0.046152,0.008091,-0.025515,0.029655,0.998947
2011-09-26T15:02:56.286285,2480,-0.027645,0.050818,0.012253,-0.025530,0.029710,0.998948
2011-09-26T15:02:56.296285,2490,-0.028993,0.055484,0.016415,-0.025545,0.029765,0.998948
2011-09-26T15:02:56.306285,2500,-0.027356,0.049402,0.012798,-0.025516,0.029543,0.998949
2011-09-26T15:02:56.316285,2510,-0.025696,0.043237,0.009122,-0.025487,0.029319,0.998949
2011-09-26T15:02:56.326285,2520,-0.024036,0.037072,0.005446,-0.025458,0.029095,0.998950
2011-09-26T15:02:56.336285,2530,-0.022375,0.030907,0.001769,-0.025429,0.028871,0.998950
2011-09-26T15:02:56.346285,2540,-0.020715,0.024743,-0.001907,-0.025400,0.028648,0.998950
2011-09-26T15:02:56.356285,2550,-0.019055,0.018578,-0.005583,-0.025371,0.028424,0.998951
2011-09-26T15:02:56.366285,2560,-0.017395,0.012413,-0.009260,-0.025342,0.028200,0.998951
2011-09-26T15:02:56.376285,2570,-0.015734,0.006248,-0.012936,-0.025313,0.027976,0.998952
2011-09-26T15:02:56.386285,2580,-0.014074,0.000084,-0.016612,-0.025284,0.027753,0.998952
2011-09-26T15:02:56.396285,2590,-0.012414,-0.006081,-0.020289,-0.025255,0.027529,0.998953
2011-09-26T15:02:56.406285,2600,-0.007918,-0.004896,-0.018240,-0.025142,0.027778,0.999163
2011-09-26T15:02:56.416285,2610,-0.003407,-0.003675,-0.016163,-0.025028,0.028029,0.999374
2011-09-26T15:02:56.426285,2620,0.001103,-0.002454,-0.014086,-0.024914,0.028281,0.999586
2011-09-26T15:02:56.436285,2630,0.005613,-0.001233,-0.012009,-0.024801,0.028532,0.999797
2011-09-26T15:02:56.446285,2640,0.010123,-0.000012,-0.009932,-0.024687,0.028784,1.000009
2011-09-26T15:02:56.456285,2650,0.014634,0.001210,-0.007855,-0.024573,0.029035,1.000220
2011-09-26T15:02:56.466285,2660,0.019144,0.002431,-0.005778,-0.024459,0.029287,1.000431
2011-09-26T15:02:56.476285,2670,0.023654,0.003652,-0.003701,-0.024346,0.029539,1.000643
2011-09-26T15:02:56.486285,2680,0.028165,0.004873,-0.001624,-0.024232,0.029790,1.000854
2011-09-26T15:02:56.496285,2690,0.032675,0.006094,0.000453,-0.024118,0.030042,1.001065
2011-09-26T15:02:56.506285,2700,0.029819,0.004655,-0.000951,-0.024191,0.029819,1.000982
2011-09-26T15:02:56.516285,2710,0.026919,0.003200,-0.002376,-0.024264,0.029593,1.000898
2011-09-26T15:02:56.526285,2720,0.024018,0.001745,-0.003801,-0.024338,0.029367,1.000813
2011-09-26T15:02:56.536285,2730,0.021118,0.000289,-0.005226,-0.024411,0.029141,1.000728
2011-09-26T15:02:56.546285,2740,0.018218,-0.001166,-0.006651,-0.024485,0.028915,1.000643
2011-09-26T15:02:56.556285,2750,0.015318,-0.002621,-0.008076,-0.024558,0.028689,1.000559
2011-09-26T15:02:56.566285,2760,0.012417,-0.004076,-0.009501,-0.024632,0.028464,1.000474
2011-09-26T15:02:56.576285,2770,0.009517,-0.005531,-0.010926,-0.024705,0.028238,1.000389
2011-09-26T15:02:56.586285,2780,0.006617,-0.006987,-0.012351,-0.024779,0.028012,1.000304
2011-09-26T15:02:56.596285,2790,0.003716,-0.008442,-0.013776,-0.024852,0.027786,1.000220
2011-09-26T15:02:56.606285,2800,0.000816,-0.009897,-0.015201,-0.024926,0.027560,1.000135
2011-09-26T15:02:56.616285,2810,0.002763,-0.006525,-0.013953,-0.025013,0.027727,0.999990
2011-09-26T15:02:56.626285,2820,0.004796,-0.003067,-0.012657,-0.025100,0.027901,0.999844
2011-09-26T15:02:56.636285,2830,0.006828,0.000391,-0.011361,-0.025187,0.028075,0.999699
2011-09-26T15:02:56.646285,2840,0.008861,0.003849,-0.010066,-0.025274,0.028249,0.999553
2011-09-26T15:02:56.656285,2850,0.010894,0.007307,-0.008770,-0.025361,0.028423,0.999407
2011-09-26T15:02:56.666285,2860,0.012926,0.010765,-0.007475,-0.025448,0.028597,0.999261
2011-09-26T15:02:56.676285,2870,0.014959,0.014222,-0.006179,-0.025535,0.028771,0.999116
2011-09-26T15:02:56.686285,2880,0.016992,0.017680,-0.004884,-0.025623,0.028945,0.998970
2011-09-26T15:02:56.696285,2890,0.019024,0.021138,-0.003588,-0.025710,0.029119,0.998824
2011-09-26T15:02:56.706285,2900,0.021057,0.024596,-0.002293,-0.025797,0.029293,0.998678
2011-09-26T15:02:56.716285,2910,0.024705,0.016591,-0.002462,-0.025680,0.029130,0.998872
2011-09-26T15:02:56.726285,2920,0.028374,0.008434,-0.002650,-0.025560,0.028963,0.999070
2011-09-26T15:02:56.736285,2930,0.032044,0.000278,-0.002839,-0.025441,0.028796,0.999268
2011-09-26T15:02:56.746285,2940,0.035713,-0.007878,-0.003027,-0.025322,0.028629,0.999466
2011-09-26T15:02:56.756285,2950,0.039383,-0.016035,-0.003216,-0.025202,0.028462,0.999664
2011-09-26T15:02:56.766285,2960,0.043052,-0.024191,-0.003405,-0.025083,0.028295,0.999863
2011-09-26T15:02:56.776285,2970,0.046722,-0.032347,-0.003593,-0.024963,0.028128,1.000061
2011-09-26T15:02:56.786285,2980,0.050391,-0.040504,-0.003782,-0.024844,0.027960,1.000259
2011-09-26T15:02:56.796285,2990,0.054060,-0.048660,-0.003970,-0.024724,0.027793,1.000457
2011-09-26T15:02:56.806285,3000,0.057730,-0.056817,-0.004159,-0.024605,0.027626,1.000655
2011-09-26T15:02:56.816285,3010,0.046780,-0.051456,-0.002662,-0.024748,0.027791,1.000388
2011-09-26T15:02:56.826285,3020,0.035687,-0.045963,-0.001148,-0.024894,0.027958,1.000116
2011-09-26T15:02:56.836285,3030,0.024595,-0.040470,0.000365,-0.025040,0.028126,0.999844
2011-09-26T15:02:56.846285,3040,0.013502,-0.034978,0.001879,-0.025186,0.028294,0.999572
2011-09-26T15:02:56.856285,3050,0.002409,-0.029485,0.003393,-0.025332,0.028462,0.999300
2011-09-26T15:02:56.866285,3060,-0.008683,-0.023992,0.004906,-0.025478,0.028629,0.999028
2011-09-26T15:02:56.876285,3070,-0.019776,-0.018499,0.006420,-0.025625,0.028797,0.998756
2011-09-26T15:02:56.886285,3080,-0.030869,-0.013006,0.007933,-0.025771,0.028965,0.998484
2011-09-26T15:02:56.896285,3090,-0.041961,-0.007514,0.009447,-0.025917,0.029132,0.998213
2011-09-26T15:02:56.906285,3100,-0.053054,-0.002021,0.010961,-0.026063,0.029300,0.997941
2011-09-26T15:02:56.916285,3110,-0.064147,0.003472,0.012474,-0.026209,0.029468,0.997669
2011-09-26T15:02:56.926285,3120,-0.058196,-0.001120,0.013744,-0.026048,0.029263,0.998020
2011-09-26T15:02:56.936285,3130,-0.052131,-0.005781,0.015012,-0.025884,0.029057,0.998375
2011-09-26T15:02:56.946285,3140,-0.046065,-0.010441,0.016280,-0.025721,0.028850,0.998730
2011-09-26T15:02:56.956285,3150,-0.040000,-0.015101,0.017549,-0.025558,0.028643,0.999085
2011-09-26T15:02:56.966285,3160,-0.033934,-0.019762,0.018817,-0.025394,0.028436,0.999440
2011-09-26T15:02:56.976285,3170,-0.027869,-0.024422,0.020085,-0.025231,0.028229,0.999795
2011-09-26T15:02:56.986285,3180,-0.021803,-0.029082,0.021353,-0.025068,0.028022,1.000150
2011-09-26T15:02:56.996285,3190,-0.015738,-0.033743,0.022621,-0.024904,0.027815,1.000505
2011-09-26T15:02:57.006285,3200,-0.009672,-0.038403,0.023889,-0.024741,0.027608,1.000860
2011-09-26T15:02:57.016285,3210,-0.003607,-0.043063,0.025157,-0.024578,0.027401,1.001215
2011-09-26T15:02:57.026285,3220,-0.003279,-0.039998,0.020820,-0.024714,0.027609,1.000904
2011-09-26T15:02:57.036285,3230,-0.003004,-0.036862,0.016430,-0.024852,0.027820,1.000586
2011-09-26T15:02:57.046285,3240,-0.002730,-0.033725,0.012041,-0.024991,0.028032,1.000269
2011-09-26T15:02:57.056285,3250,-0.002455,-0.030588,0.007651,-0.025130,0.028244,0.999952
2011-09-26T15:02:57.066285,3260,-0.002180,-0.027451,0.003261,-0.025268,0.028456,0.999634
2011-09-26T15:02:57.076285,3270,-0.001905,-0.024315,-0.001128,-0.025407,0.028668,0.999317
2011-09-26T15:02:57.086285,3280,-0.001631,-0.021178,-0.005518,-0.025546,0.028879,0.999000
2011-09-26T15:02:57.096285,3290,-0.001356,-0.018041,-0.009908,-0.025685,0.029091,0.998682
2011-09-26T15:02:57.106285,3300,-0.001081,-0.014904,-0.014297,-0.025823,0.029303,0.998365
2011-09-26T15:02:57.116285,3310,-0.000806,-0.011767,-0.018687,-0.025962,0.029515,0.998048
2011-09-26T15:02:57.126285,3320,-0.000860,-0.009684,-0.017606,-0.025850,0.029486,0.998233
2011-09-26T15:02:57.136285,3330,-0.000925,-0.007634,-0.016349,-0.025731,0.029449,0.998434
2011-09-26T15:02:57.146285,3340,-0.000989,-0.005584,-0.015092,-0.025611,0.029413,0.998635
2011-09-26T15:02:57.156285,3350,-0.001053,-0.003534,-0.013835,-0.025491,0.029376,0.998836
2011-09-26T15:02:57.166285,3360,-0.001117,-0.001484,-0.012578,-0.025371,0.029340,0.999037
2011-09-26T15:02:57.176285,3370,-0.001182,0.000566,-0.011321,-0.025251,0.029303,0.999238
2011-09-26T15:02:57.186285,3380,-0.001246,0.002616,-0.010064,-0.025132,0.029267,0.999439
2011-09-26T15:02:57.196285,3390,-0.001310,0.004666,-0.008808,-0.025012,0.029230,0.999641
2011-09-26T15:02:57.206285,3400,-0.001375,0.006716,-0.007551,-0.024892,0.029194,0.999842
2011-09-26T15:02:57.216285,3410,-0.001439,0.008766,-0.006294,-0.024772,0.029157,1.000043
2011-09-26T15:02:57.226285,3420,-0.001503,0.010816,-0.005037,-0.024653,0.029121,1.000244
2011-09-26T15:02:57.236285,3430,-0.000934,0.009136,-0.004803,-0.024784,0.029073,1.000090
2011-09-26T15:02:57.246285,3440,-0.000358,0.007419,-0.004580,-0.024918,0.029025,0.999933
2011-09-26T15:02:57.256285,3450,0.000218,0.005702,-0.004357,-0.025052,0.028977,0.999776
2011-09-26T15:02:57.266285,3460,0.000794,0.003985,-0.004134,-0.025186,0.028930,0.999618
2011-09-26T15:02:57.276285,3470,0.001371,0.002268,-0.003911,-0.025320,0.028882,0.999461
2011-09-26T15:02:57.286285,3480,0.001947,0.000551,-0.003687,-0.025454,0.028834,0.999304
2011-09-26T15:02:57.296285,3490,0.002523,-0.001166,-0.003464,-0.025588,0.028786,0.999147
2011-09-26T15:02:57.306285,3500,0.003099,-0.002883,-0.003241,-0.025722,0.028738,0.998989
2011-09-26T15:02:57.316285,3510,0.003675,-0.004600,-0.003018,-0.025856,0.028690,0.998832
2011-09-26T15:02:57.326285,3520,0.004251,-0.006317,-0.002795,-0.025990,0.028642,0.998675
2011-09-26T15:02:57.336285,3530,0.005928,-0.001954,-0.000974,-0.025931,0.028720,0.998659
2011-09-26T15:02:57.346285,3540,0.007618,0.002477,0.000865,-0.025870,0.028800,0.998644
2011-09-26T15:02:57.356285,3550,0.009308,0.006908,0.002704,-0.025809,0.028879,0.998629
2011-09-26T15:02:57.366285,3560,0.010998,0.011339,0.004543,-0.025748,0.028958,0.998614
2011-09-26T15:02:57.376285,3570,0.012688,0.015771,0.006381,-0.025687,0.029038,0.998599
2011-09-26T15:02:57.386285,3580,0.014378,0.020202,0.008220,-0.025625,0.029117,0.998584
2011-09-26T15:02:57.396285,3590,0.016067,0.024633,0.010059,-0.025564,0.029197,0.998570
2011-09-26T15:02:57.406285,3600,0.017757,0.029064,0.011898,-0.025503,0.029276,0.998555
2011-09-26T15:02:57.416285,3610,0.019447,0.033495,0.013737,-0.025442,0.029355,0.998540
2011-09-26T15:02:57.426285,3620,0.021137,0.037926,0.015575,-0.025381,0.029435,0.998525
2011-09-26T15:02:57.436285,3630,0.022827,0.042358,0.017414,-0.025319,0.029514,0.998510
2011-09-26T15:02:57.446285,3640,0.020131,0.030381,0.015861,-0.025264,0.029360,0.998696
2011-09-26T15:02:57.456285,3650,0.017394,0.018254,0.014277,-0.025209,0.029204,0.998883
2011-09-26T15:02:57.466285,3660,0.014658,0.006127,0.012693,-0.025154,0.029048,0.999070
2011-09-26T15:02:57.476285,3670,0.011921,-0.006000,0.011109,-0.025098,0.028892,0.999257
2011-09-26T15:02:57.486285,3680,0.009185,-0.018127,0.009525,-0.025043,0.028736,0.999444
2011-09-26T15:02:57.496285,3690,0.006448,-0.030254,0.007942,-0.024988,0.028580,0.999631
2011-09-26T15:02:57.506285,3700,0.003712,-0.042381,0.006358,-0.024933,0.028424,0.999818
2011-09-26T15:02:57.516285,3710,0.000975,-0.054508,0.004774,-0.024877,0.028267,1.000005
2011-09-26T15:02:57.526285,3720,-0.001761,-0.066635,0.003190,-0.024822,0.028111,1.000192
2011-09-26T15:02:57.536285,3730,-0.004497,-0.078763,0.001606,-0.024767,0.027955,1.000379
2011-09-26T15:02:57.546285,3740,-0.002288,-0.068559,0.000783,-0.024816,0.028152,1.000285
2011-09-26T15:02:57.556285,3750,-0.000007,-0.058030,-0.000030,-0.024867,0.028354,1.000187
2011-09-26T15:02:57.566285,3760,0.002274,-0.047500,-0.000842,-0.024918,0.028556,1.000089
2011-09-26T15:02:57.576285,3770,0.004556,-0.036970,-0.001654,-0.024970,0.028757,0.999991
2011-09-26T15:02:57.586285,3780,0.006837,-0.026441,-0.002466,-0.025021,0.028959,0.999893
2011-09-26T15:02:57.596285,3790,0.009119,-0.015911,-0.003278,-0.025072,0.029161,0.999796
2011-09-26T15:02:57.606285,3800,0.011400,-0.005381,-0.004090,-0.025123,0.029363,0.999698
2011-09-26T15:02:57.616285,3810,0.013682,0.005148,-0.004902,-0.025174,0.029565,0.999600
2011-09-26T15:02:57.626285,3820,0.015963,0.015678,-0.005714,-0.025225,0.029766,0.999502
2011-09-26T15:02:57.636285,3830,0.018244,0.026207,-0.006527,-0.025276,0.029968,0.999404
2011-09-26T15:02:57.646285,3840,0.016108,0.020928,-0.008158,-0.025207,0.029754,0.999528
2011-09-26T15:02:57.656285,3850,0.013908,0.015421,-0.009802,-0.025137,0.029534,0.999656
2011-09-26T15:02:57.666285,3860,0.011707,0.009914,-0.011446,-0.025066,0.029314,0.999784
2011-09-26T15:02:57.676285,3870,0.009507,0.004407,-0.013090,-0.024996,0.029094,0.999912
2011-09-26T15:02:57.686285,3880,0.007307,-0.001101,-0.014733,-0.024925,0.028874,1.000040
2011-09-26T15:02:57.696285,3890,0.005106,-0.006608,-0.016377,-0.024855,0.028653,1.000167
2011-09-26T15:02:57.706285,3900,0.002906,-0.012115,-0.018021,-0.024785,0.028433,1.000295
2011-09-26T15:02:57.716285,3910,0.000706,-0.017622,-0.019664,-0.024714,0.028213,1.000423
2011-09-26T15:02:57.726285,3920,-0.001494,-0.023129,-0.021308,-0.024644,0.027993,1.000551
2011-09-26T15:02:57.736285,3930,-0.003695,-0.028636,-0.022952,-0.024573,0.027773,1.000679
2011-09-26T15:02:57.746285,3940,-0.005895,-0.034144,-0.024595,-0.024503,0.027553,1.000807
2011-09-26T15:02:57.756285,3950,-0.006142,-0.029382,-0.019668,-0.024599,0.027801,1.000568
2011-09-26T15:02:57.766285,3960,-0.006360,-0.024465,-0.014642,-0.024698,0.028056,1.000325
2011-09-26T15:02:57.776285,3970,-0.006578,-0.019549,-0.009617,-0.024797,0.028311,1.000081
2011-09-26T15:02:57.786285,3980,-0.006795,-0.014633,-0.004591,-0.024896,0.028566,0.999837
2011-09-26T15:02:57.796285,3990,-0.007013,-0.009716,0.000435,-0.024994,0.028821,0.999594
2011-09-26T15:02:57.806285,4000,-0.007231,-0.004800,0.005461,-0.025093,0.029076,0.999350
2011-09-26T15:02:57.816285,4010,-0.007449,0.000116,0.010487,-0.025192,0.029332,0.999106
2011-09-26T15:02:57.826285,4020,-0.007666,0.005033,0.015513,-0.025291,0.029587,0.998862
2011-09-26T15:02:57.836285,4030,-0.007884,0.009949,0.020539,-0.025390,0.029842,0.998619
2011-09-26T15:02:57.846285,4040,-0.008102,0.014865,0.025565,-0.025489,0.030097,0.998375
2011-09-26T15:02:57.856285,4050,-0.008613,0.011367,0.027227,-0.025446,0.029804,0.998586
2011-09-26T15:02:57.866285,4060,-0.009129,0.007736,0.028837,-0.025401,0.029502,0.998805
2011-09-26T15:02:57.876285,4070,-0.009645,0.004104,0.030446,-0.025355,0.029200,0.999024
2011-09-26T15:02:57.886285,4080,-0.010161,0.000472,0.032055,-0.025310,0.028898,0.999242
2011-09-26T15:02:57.896285,4090,-0.010677,-0.003159,0.033665,-0.025265,0.028596,0.999461
2011-09-26T15:02:57.906285,4100,-0.011193,-0.006791,0.035274,-0.025220,0.028294,0.999679
2011-09-26T15:02:57.916285,4110,-0.011709,-0.010422,0.036883,-0.025175,0.027992,0.999898
2011-09-26T15:02:57.926285,4120,-0.012225,-0.014054,0.038493,-0.025130,0.027690,1.000117
2011-09-26T15:02:57.936285,4130,-0.012741,-0.017685,0.040102,-0.025085,0.027388,1.000335
2011-09-26T15:02:57.946285,4140,-0.013257,-0.021317,0.041712,-0.025040,0.027086,1.000554
2011-09-26T15:02:57.956285,4150,-0.015630,-0.017182,0.042355,-0.025142,0.027288,1.000310
2011-09-26T15:02:57.966285,4160,-0.018032,-0.012925,0.042984,-0.025246,0.027497,1.000058
2011-09-26T15:02:57.976285,4170,-0.020434,-0.008668,0.043612,-0.025350,0.027706,0.999806
2011-09-26T15:02:57.986285,4180,-0.022836,-0.004410,0.044241,-0.025454,0.027915,0.999555
2011-09-26T15:02:57.996285,4190,-0.025238,-0.000153,0.044869,-0.025559,0.028124,0.999303
2011-09-26T15:02:58.006285,4200,-0.027640,0.004104,0.045498,-0.025663,0.028333,0.999052
2011-09-26T15:02:58.016285,4210,-0.030042,0.008361,0.046126,-0.025767,0.028542,0.998800
2011-09-26T15:02:58.026285,4220,-0.032444,0.012619,0.046755,-0.025871,0.028752,0.998548
2011-09-26T15:02:58.036285,4230,-0.034846,0.016876,0.047383,-0.025976,0.028961,0.998297
2011-09-26T15:02:58.046285,4240,-0.037248,0.021133,0.048012,-0.026080,0.029170,0.998045
2011-09-26T15:02:58.056285,4250,-0.039650,0.025390,0.048640,-0.026184,0.029379,0.997794
2011-09-26T15:02:58.066285,4260,-0.031842,0.020215,0.047301,-0.025992,0.029256,0.998139
2011-09-26T15:02:58.076285,4270,-0.023914,0.014930,0.045938,-0.025796,0.029128,0.998491
2011-09-26T15:02:58.086285,4280,-0.015987,0.009645,0.044576,-0.025600,0.029001,0.998843
2011-09-26T15:02:58.096285,4290,-0.008060,0.004359,0.043213,-0.025404,0.028874,0.999195
2011-09-26T15:02:58.106285,4300,-0.000132,-0.000926,0.041851,-0.025208,0.028747,0.999547
2011-09-26T15:02:58.116285,4310,0.007795,-0.006211,0.040489,-0.025012,0.028619,0.999899
2011-09-26T15:02:58.126285,4320,0.015723,-0.011496,0.039126,-0.024816,0.028492,1.000251
2011-09-26T15:02:58.136285,4330,0.023650,-0.016781,0.037764,-0.024620,0.028365,1.000603
2011-09-26T15:02:58.146285,4340,0.031577,-0.022067,0.036401,-0.024424,0.028238,1.000955
2011-09-26T15:02:58.156285,4350,0.039505,-0.027352,0.035039,-0.024228,0.028110,1.001307
2011-09-26T15:02:58.166285,4360,0.035010,-0.026089,0.028712,-0.024429,0.028240,1.000977
2011-09-26T15:02:58.176285,4370,0.030272,-0.024697,0.022288,-0.024637,0.028374,1.000633
2011-09-26T15:02:58.186285,4380,0.025534,-0.023305,0.015864,-0.024845,0.028508,1.000289
2011-09-26T15:02:58.196285,4390,0.020796,-0.021914,0.009440,-0.025053,0.028643,0.999946
2011-09-26T15:02:58.206285,4400,0.016058,-0.020522,0.003016,-0.025261,0.028777,0.999602
2011-09-26T15:02:58.216285,4410,0.011320,-0.019131,-0.003408,-0.025469,0.028911,0.999258
2011-09-26T15:02:58.226285,4420,0.006582,-0.017739,-0.009832,-0.025678,0.029046,0.998914
2011-09-26T15:02:58.236285,4430,0.001844,-0.016348,-0.016256,-0.025886,0.029180,0.998570
2011-09-26T15:02:58.246285,4440,-0.002894,-0.014956,-0.022680,-0.026094,0.029314,0.998227
2011-09-26T15:02:58.256285,4450,-0.007632,-0.013564,-0.029104,-0.026302,0.029449,0.997883
2011-09-26T15:02:58.266285,4460,-0.004319,-0.008751,-0.025419,-0.026189,0.029413,0.998026
2011-09-26T15:02:58.276285,4470,-0.000901,-0.003893,-0.021601,-0.026072,0.029375,0.998175
2011-09-26T15:02:58.286285,4480,0.002517,0.000966,-0.017782,-0.025954,0.029336,0.998324
2011-09-26T15:02:58.296285,4490,0.005936,0.005824,-0.013964,-0.025837,0.029298,0.998473
2011-09-26T15:02:58.306285,4500,0.009354,0.010683,-0.010146,-0.025720,0.029260,0.998622
2011-09-26T15:02:58.316285,4510,0.012772,0.015541,-0.006327,-0.025603,0.029222,0.998771
2011-09-26T15:02:58.326285,4520,0.016190,0.020400,-0.002509,-0.025485,0.029183,0.998921
2011-09-26T15:02:58.336285,4530,0.019609,0.025258,0.001309,-0.025368,0.029145,0.999070
2011-09-26T15:02:58.346285,4540,0.023027,0.030117,0.005128,-0.025251,0.029107,0.999219
2011-09-26T15:02:58.356285,4550,0.026445,0.034975,0.008946,-0.025133,0.029069,0.999368
2011-09-26T15:02:58.366285,4560,0.029863,0.039833,0.012764,-0.025016,0.029031,0.999517
2011-09-26T15:02:58.376285,4570,0.026198,0.033799,0.011355,-0.025039,0.029028,0.999504
2011-09-26T15:02:58.386285,4580,0.022433,0.027609,0.009871,-0.025064,0.029027,0.999489
2011-09-26T15:02:58.396285,4590,0.018667,0.021420,0.008387,-0.025089,0.029025,0.999474
2011-09-26T15:02:58.406285,4600,0.014901,0.015230,0.006903,-0.025114,0.029024,0.999459
2011-09-26T15:02:58.416285,4610,0.011136,0.009040,0.005419,-0.025139,0.029022,0.999443
2011-09-26T15:02:58.426285,4620,0.007370,0.002851,0.003935,-0.025164,0.029021,0.999428
2011-09-26T15:02:58.436285,4630,0.003604,-0.003339,0.002451,-0.025189,0.029019,0.999413
2011-09-26T15:02:58.446285,4640,-0.000161,-0.009528,0.000967,-0.025213,0.029018,0.999398
2011-09-26T15:02:58.456285,4650,-0.003927,-0.015718,-0.000517,-0.025238,0.029016,0.999383
2011-09-26T15:02:58.466285,4660,-0.007693,-0.021907,-0.002001,-0.025263,0.029015,0.999367
2011-09-26T15:02:58.476285,4670,-0.005545,-0.017381,-0.003518,-0.024703,0.029273,0.999059
2011-09-26T15:02:58.486285,4680,-0.003320,-0.012714,-0.005036,-0.024135,0.029535,0.998746
2011-09-26T15:02:58.496285,4690,-0.001094,-0.008046,-0.006553,-0.023567,0.029796,0.998434
2011-09-26T15:02:58.506285,4700,0.001132,-0.003378,-0.008071,-0.022999,0.030058,0.998121
2011-09-26T15:02:58.516285,4710,0.003358,0.001290,-0.009588,-0.022431,0.030319,0.997809
2011-09-26T15:02:58.526285,4720,0.005584,0.005958,-0.011106,-0.021863,0.030581,0.997497
2011-09-26T15:02:58.536285,4730,0.007810,0.010626,-0.012623,-0.021294,0.030843,0.997184
2011-09-26T15:02:58.546285,4740,0.010035,0.015294,-0.014141,-0.020726,0.031104,0.996872
2011-09-26T15:02:58.556285,4750,0.012261,0.019962,-0.015658,-0.020158,0.031366,0.996559
2011-09-26T15:02:58.566285,4760,0.014487,0.024630,-0.017176,-0.019590,0.031627,0.996247
2011-09-26T15:02:58.576285,4770,0.007889,-0.006207,-0.009106,-0.016115,0.031083,0.995506
2011-09-26T15:02:58.586285,4780,0.001160,-0.037573,-0.000893,-0.012596,0.030526,0.994758
2011-09-26T15:02:58.596285,4790,-0.005569,-0.068939,0.007320,-0.009077,0.029970,0.994010
2011-09-26T15:02:58.606285,4800,-0.012298,-0.100305,0.015533,-0.005558,0.029413,0.993263
2011-09-26T15:02:58.616285,4810,-0.019027,-0.131672,0.023746,-0.002040,0.028856,0.992515
2011-09-26T15:02:58.626285,4820,-0.025757,-0.163038,0.031959,0.001479,0.028300,0.991768
2011-09-26T15:02:58.636285,4830,-0.032486,-0.194404,0.040172,0.004998,0.027743,0.991020
2011-09-26T15:02:58.646285,4840,-0.039215,-0.225771,0.048385,0.008517,0.027187,0.990272
2011-09-26T15:02:58.656285,4850,-0.045944,-0.257137,0.056598,0.012035,0.026630,0.989525
2011-09-26T15:02:58.666285,4860,-0.052674,-0.288503,0.064811,0.015554,0.026073,0.988777
2011-09-26T15:02:58.676285,4870,-0.059403,-0.319870,0.073024,0.019073,0.025517,0.988030
2011-09-26T15:02:58.686285,4880,-0.059405,-0.329557,0.073588,0.020506,0.025883,0.989541
2011-09-26T15:02:58.696285,4890,-0.059264,-0.338779,0.073988,0.021894,0.026269,0.991100
2011-09-26T15:02:58.706285,4900,-0.059122,-0.348001,0.074388,0.023282,0.026655,0.992660
2011-09-26T15:02:58.716285,4910,-0.058980,-0.357224,0.074789,0.024671,0.027041,0.994220
2011-09-26T15:02:58.726285,4920,-0.058839,-0.366446,0.075189,0.026059,0.027427,0.995780
2011-09-26T15:02:58.736285,4930,-0.058697,-0.375668,0.075589,0.027447,0.027813,0.997339
2011-09-26T15:02:58.746285,4940,-0.058555,-0.384890,0.075989,0.028835,0.028199,0.998899
2011-09-26T15:02:58.756285,4950,-0.058413,-0.394112,0.076390,0.030224,0.028585,1.000459
2011-09-26T15:02:58.766285,4960,-0.058272,-0.403334,0.076790,0.031612,0.028971,1.002018
2011-09-26T15:02:58.776285,4970,-0.058130,-0.412556,0.077190,0.033000,0.029357,1.003578
2011-09-26T15:02:58.786285,4980,-0.053068,-0.387191,0.070520,0.032547,0.028936,1.004287
2011-09-26T15:02:58.796285,4990,-0.047918,-0.361209,0.063724,0.032061,0.028501,1.004981
2011-09-26T15:02:58.806285,5000,-0.042769,-0.335227,0.056928,0.031575,0.028066,1.005676
2011-09-26T15:02:58.816285,5010,-0.037619,-0.309245,0.050133,0.031089,0.027631,1.006370
2011-09-26T15:02:58.826285,5020,-0.032470,-0.283263,0.043337,0.030602,0.027196,1.007064
2011-09-26T15:02:58.836285,5030,-0.027320,-0.257282,0.036541,0.030116,0.026761,1.007758
2011-09-26T15:02:58.846285,5040,-0.022171,-0.231300,0.029745,0.029630,0.026325,1.008452
2011-09-26T15:02:58.856285,5050,-0.017021,-0.205318,0.022949,0.029144,0.025890,1.009146
2011-09-26T15:02:58.866285,5060,-0.011872,-0.179336,0.016153,0.028658,0.025455,1.009840
2011-09-26T15:02:58.876285,5070,-0.006722,-0.153354,0.009357,0.028172,0.025020,1.010535
2011-09-26T15:02:58.886285,5080,-0.001573,-0.127373,0.002561,0.027686,0.024585,1.011229
2011-09-26T15:02:58.896285,5090,0.009150,-0.107339,0.013499,0.027432,0.024840,1.010794
2011-09-26T15:02:58.906285,5100,0.019965,-0.087404,0.024729,0.027181,0.025106,1.010340
2011-09-26T15:02:58.916285,5110,0.030781,-0.067468,0.035959,0.026930,0.025372,1.009886
2011-09-26T15:02:58.926285,5120,0.041596,-0.047533,0.047189,0.026680,0.025638,1.009433
2011-09-26T15:02:58.936285,5130,0.052411,-0.027597,0.058419,0.026429,0.025905,1.008979
2011-09-26T15:02:58.946285,5140,0.063226,-0.007662,0.069649,0.026179,0.026171,1.008525
2011-09-26T15:02:58.956285,5150,0.074041,0.012274,0.080879,0.025928,0.026437,1.008072
2011-09-26T15:02:58.966285,5160,0.084856,0.032209,0.092109,0.025677,0.026703,1.007618
2011-09-26T15:02:58.976285,5170,0.095672,0.052145,0.103339,0.025427,0.026969,1.007164
2011-09-26T15:02:58.986285,5180,0.106487,0.072080,0.114569,0.025176,0.027235,1.006711
2011-09-26T15:02:58.996285,5190,0.106006,0.081364,0.111614,0.024954,0.027424,1.006291
2011-09-26T15:02:59.006285,5200,0.105296,0.090432,0.108371,0.024733,0.027612,1.005873
2011-09-26T15:02:59.016285,5210,0.104586,0.099500,0.105129,0.024512,0.027799,1.005454
2011-09-26T15:02:59.026285,5220,0.103876,0.108567,0.101886,0.024291,0.027987,1.005036
2011-09-26T15:02:59.036285,5230,0.103166,0.117635,0.098643,0.024069,0.028174,1.004617
2011-09-26T15:02:59.046285,5240,0.102456,0.126703,0.095400,0.023848,0.028362,1.004198
2011-09-26T15:02:59.056285,5250,0.101746,0.135770,0.092157,0.023627,0.028549,1.003780
2011-09-26T15:02:59.066285,5260,0.101036,0.144838,0.088914,0.023406,0.028737,1.003361
2011-09-26T15:02:59.076285,5270,0.100326,0.153906,0.085671,0.023184,0.028924,1.002943
2011-09-26T15:02:59.086285,5280,0.099616,0.162974,0.082428,0.022963,0.029112,1.002524
2011-09-26T15:02:59.096285,5290,0.100645,0.167974,0.083071,0.023027,0.029224,1.001943
2011-09-26T15:02:59.106285,5300,0.101740,0.172824,0.083859,0.023101,0.029334,1.001355
2011-09-26T15:02:59.116285,5310,0.102834,0.177673,0.084647,0.023176,0.029443,1.000768
2011-09-26T15:02:59.126285,5320,0.103928,0.182522,0.085435,0.023250,0.029553,1.000180
2011-09-26T15:02:59.136285,5330,0.105023,0.187371,0.086224,0.023325,0.029662,0.999593
2011-09-26T15:02:59.146285,5340,0.106117,0.192220,0.087012,0.023399,0.029772,0.999005
2011-09-26T15:02:59.156285,5350,0.107211,0.197069,0.087800,0.023474,0.029882,0.998418
2011-09-26T15:02:59.166285,5360,0.108305,0.201918,0.088588,0.023548,0.029991,0.997830
2011-09-26T15:02:59.176285,5370,0.109400,0.206768,0.089376,0.023623,0.030101,0.997243
2011-09-26T15:02:59.186285,5380,0.110494,0.211617,0.090164,0.023697,0.030210,0.996655
2011-09-26T15:02:59.196285,5390,0.111588,0.216466,0.090952,0.023772,0.030320,0.996068
2011-09-26T15:02:59.206285,5400,0.095218,0.201666,0.095664,0.024204,0.030133,0.996188
2011-09-26T15:02:59.216285,5410,0.078506,0.186482,0.100452,0.024643,0.029940,0.996322
2011-09-26T15:02:59.226285,5420,0.061793,0.171297,0.105241,0.025082,0.029747,0.996456
2011-09-26T15:02:59.236285,5430,0.045081,0.156113,0.110029,0.025521,0.029554,0.996590
2011-09-26T15:02:59.246285,5440,0.028368,0.140928,0.114818,0.025960,0.029361,0.996724
2011-09-26T15:02:59.256285,5450,0.011656,0.125743,0.119606,0.026399,0.029167,0.996858
2011-09-26T15:02:59.266285,5460,-0.005056,0.110559,0.124395,0.026838,0.028974,0.996992
2011-09-26T15:02:59.276285,5470,-0.021769,0.095374,0.129183,0.027277,0.028781,0.997126
2011-09-26T15:02:59.286285,5480,-0.038481,0.080190,0.133972,0.027716,0.028588,0.997260
2011-09-26T15:02:59.296285,5490,-0.055194,0.065005,0.138760,0.028155,0.028395,0.997395
2011-09-26T15:02:59.306285,5500,-0.052009,0.053390,0.142234,0.029997,0.028446,0.996910
2011-09-26T15:02:59.316285,5510,-0.048449,0.041843,0.145682,0.031866,0.028501,0.996413
2011-09-26T15:02:59.326285,5520,-0.044889,0.030296,0.149131,0.033734,0.028556,0.995916
2011-09-26T15:02:59.336285,5530,-0.041329,0.018748,0.152580,0.035603,0.028612,0.995419
2011-09-26T15:02:59.346285,5540,-0.037769,0.007201,0.156029,0.037472,0.028667,0.994923
2011-09-26T15:02:59.356285,5550,-0.034209,-0.004347,0.159477,0.039340,0.028722,0.994426
2011-09-26T15:02:59.366285,5560,-0.030649,-0.015894,0.162926,0.041209,0.028778,0.993929
2011-09-26T15:02:59.376285,5570,-0.027090,-0.027442,0.166375,0.043077,0.028833,0.993433
2011-09-26T15:02:59.386285,5580,-0.023530,-0.038989,0.169823,0.044946,0.028888,0.992936
2011-09-26T15:02:59.396285,5590,-0.019970,-0.050537,0.173272,0.046815,0.028944,0.992439
2011-09-26T15:02:59.406285,5600,-0.023709,-0.078353,0.174635,0.049565,0.029018,0.992383
2011-09-26T15:02:59.416285,5610,-0.027597,-0.106499,0.175955,0.052334,0.029094,0.992335
2011-09-26T15:02:59.426285,5620,-0.031484,-0.134646,0.177275,0.055102,0.029169,0.992288
2011-09-26T15:02:59.436285,5630,-0.035372,-0.162792,0.178596,0.057871,0.029244,0.992240
2011-09-26T15:02:59.446285,5640,-0.039260,-0.190939,0.179916,0.060640,0.029320,0.992192
2011-09-26T15:02:59.456285,5650,-0.043147,-0.219085,0.181236,0.063408,0.029395,0.992145
2011-09-26T15:02:59.466285,5660,-0.047035,-0.247232,0.182557,0.066177,0.029470,0.992097
2011-09-26T15:02:59.476285,5670,-0.050922,-0.275378,0.183877,0.068946,0.029546,0.992050
2011-09-26T15:02:59.486285,5680,-0.054810,-0.303525,0.185197,0.071714,0.029621,0.992002
2011-09-26T15:02:59.496285,5690,-0.058698,-0.331671,0.186518,0.074483,0.029696,0.991955
2011-09-26T15:02:59.506285,5700,-0.062585,-0.359818,0.187838,0.077251,0.029772,0.991907
2011-09-26T15:02:59.516285,5710,-0.060001,-0.371186,0.187980,0.078914,0.029487,0.993236
2011-09-26T15:02:59.526285,5720,-0.057286,-0.382217,0.188099,0.080554,0.029195,0.994592
2011-09-26T15:02:59.536285,5730,-0.054571,-0.393248,0.188218,0.082194,0.028904,0.995949
2011-09-26T15:02:59.546285,5740,-0.051857,-0.404279,0.188336,0.083834,0.028612,0.997305
2011-09-26T15:02:59.556285,5750,-0.049142,-0.415309,0.188455,0.085474,0.028320,0.998661
2011-09-26T15:02:59.566285,5760,-0.046427,-0.426340,0.188574,0.087114,0.028028,1.000018
2011-09-26T15:02:59.576285,5770,-0.043712,-0.437371,0.188692,0.088754,0.027737,1.001374
2011-09-26T15:02:59.586285,5780,-0.040998,-0.448402,0.188811,0.090394,0.027445,1.002731
2011-09-26T15:02:59.596285,5790,-0.038283,-0.459433,0.188930,0.092034,0.027153,1.004087
2011-09-26T15:02:59.606285,5800,-0.035568,-0.470464,0.189048,0.093674,0.026862,1.005443
2011-09-26T15:02:59.616285,5810,-0.020871,-0.446450,0.193078,0.095580,0.026715,1.005388
2011-09-26T15:02:59.626285,5820,-0.005688,-0.421017,0.197266,0.097496,0.026575,1.005277
2011-09-26T15:02:59.636285,5830,0.009494,-0.395583,0.201453,0.099413,0.026434,1.005165
2011-09-26T15:02:59.646285,5840,0.024677,-0.370150,0.205641,0.101329,0.026294,1.005053
2011-09-26T15:02:59.656285,5850,0.039859,-0.344717,0.209829,0.103245,0.026154,1.004941
2011-09-26T15:02:59.666285,5860,0.055042,-0.319284,0.214017,0.105162,0.026013,1.004829
2011-09-26T15:02:59.676285,5870,0.070225,-0.293850,0.218205,0.107078,0.025873,1.004717
2011-09-26T15:02:59.686285,5880,0.085407,-0.268417,0.222393,0.108995,0.025732,1.004605
2011-09-26T15:02:59.696285,5890,0.100590,-0.242984,0.226580,0.110911,0.025592,1.004493
2011-09-26T15:02:59.706285,5900,0.115772,-0.217551,0.230768,0.112828,0.025451,1.004381
2011-09-26T15:02:59.716285,5910,0.130955,-0.192118,0.234956,0.114744,0.025311,1.004269
2011-09-26T15:02:59.726285,5920,0.152318,-0.173321,0.242027,0.116045,0.025529,1.004256
2011-09-26T15:02:59.736285,5930,0.173815,-0.154669,0.249162,0.117333,0.025754,1.004245
2011-09-26T15:02:59.746285,5940,0.195313,-0.136018,0.256296,0.118620,0.025980,1.004234
2011-09-26T15:02:59.756285,5950,0.216811,-0.117366,0.263431,0.119908,0.026205,1.004223
2011-09-26T15:02:59.766285,5960,0.238309,-0.098715,0.270565,0.121196,0.026431,1.004212
2011-09-26T15:02:59.776285,5970,0.259807,-0.080063,0.277700,0.122483,0.026656,1.004201
2011-09-26T15:02:59.786285,5980,0.281305,-0.061412,0.284835,0.123771,0.026881,1.004190
2011-09-26T15:02:59.796285,5990,0.302803,-0.042760,0.291969,0.125059,0.027107,1.004179
2011-09-26T15:02:59.806285,6000,0.324301,-0.024109,0.299104,0.126346,0.027332,1.004168
2011-09-26T15:02:59.816285,6010,0.345799,-0.005458,0.306238,0.127634,0.027558,1.004156
2011-09-26T15:02:59.826285,6020,0.347976,0.008503,0.304481,0.128559,0.028193,1.003618
2011-09-26T15:02:59.836285,6030,0.349742,0.022365,0.302535,0.129476,0.028837,1.003068
2011-09-26T15:02:59.846285,6040,0.351509,0.036226,0.300590,0.130392,0.029480,1.002518
2011-09-26T15:02:59.856285,6050,0.353276,0.050087,0.298644,0.131309,0.030124,1.001969
2011-09-26T15:02:59.866285,6060,0.355042,0.063948,0.296698,0.132226,0.030768,1.001419
2011-09-26T15:02:59.876285,6070,0.356809,0.077810,0.294752,0.133143,0.031412,1.000869
2011-09-26T15:02:59.886285,6080,0.358576,0.091671,0.292807,0.134060,0.032055,1.000320
2011-09-26T15:02:59.896285,6090,0.360342,0.105532,0.290861,0.134977,0.032699,0.999770
2011-09-26T15:02:59.906285,6100,0.362109,0.119393,0.288915,0.135894,0.033343,0.999220
2011-09-26T15:02:59.916285,6110,0.363876,0.133254,0.286969,0.136811,0.033987,0.998670
2011-09-26T15:02:59.926285,6120,0.345139,0.135022,0.289176,0.137112,0.034069,0.999109
2011-09-26T15:02:59.936285,6130,0.325966,0.136532,0.291470,0.137399,0.034139,0.999569
2011-09-26T15:02:59.946285,6140,0.306793,0.138043,0.293765,0.137687,0.034209,1.000029
2011-09-26T15:02:59.956285,6150,0.287621,0.139553,0.296060,0.137975,0.034279,1.000489
2011-09-26T15:02:59.966285,6160,0.268448,0.141064,0.298354,0.138263,0.034349,1.000948
2011-09-26T15:02:59.976285,6170,0.249276,0.142574,0.300649,0.138551,0.034419,1.001408
2011-09-26T15:02:59.986285,6180,0.230103,0.144085,0.302944,0.138839,0.034489,1.001868
2011-09-26T15:02:59.996285,6190,0.210931,0.145595,0.305238,0.139127,0.034559,1.002328
2011-09-26T15:03:00.006285,6200,0.191758,0.147106,0.307533,0.139415,0.034629,1.002788
2011-09-26T15:03:00.016285,6210,0.172586,0.148616,0.309828,0.139703,0.034699,1.003248
2011-09-26T15:03:00.026285,6220,0.153413,0.150127,0.312122,0.139991,0.034769,1.003707
2011-09-26T15:03:00.036285,6230,0.136138,0.170471,0.314925,0.139815,0.034357,1.003867
2011-09-26T15:03:00.046285,6240,0.118905,0.191243,0.317740,0.139630,0.033934,1.004019
2011-09-26T15:03:00.056285,6250,0.101673,0.212015,0.320555,0.139444,0.033511,1.004172
2011-09-26T15:03:00.066285,6260,0.084441,0.232787,0.323370,0.139258,0.033088,1.004324
2011-09-26T15:03:00.076285,6270,0.067208,0.253559,0.326184,0.139072,0.032665,1.004476
2011-09-26T15:03:00.086285,6280,0.049976,0.274331,0.328999,0.138886,0.032242,1.004629
2011-09-26T15:03:00.096285,6290,0.032744,0.295103,0.331814,0.138700,0.031820,1.004781
2011-09-26T15:03:00.106285,6300,0.015511,0.315875,0.334629,0.138514,0.031397,1.004934
2011-09-26T15:03:00.116285,6310,-0.001721,0.336647,0.337444,0.138329,0.030974,1.005086
2011-09-26T15:03:00.126285,6320,-0.018953,0.357419,0.340258,0.138143,0.030551,1.005239
2011-09-26T15:03:00.136285,6330,-0.026929,0.353625,0.344669,0.137672,0.030590,1.005182
2011-09-26T15:03:00.146285,6340,-0.034614,0.349060,0.349130,0.137193,0.030643,1.005119
2011-09-26T15:03:00.156285,6350,-0.042300,0.344496,0.353591,0.136713,0.030697,1.005056
2011-09-26T15:03:00.166285,6360,-0.049985,0.339931,0.358052,0.136233,0.030750,1.004994
2011-09-26T15:03:00.176285,6370,-0.057671,0.335366,0.362512,0.135754,0.030804,1.004931
2011-09-26T15:03:00.186285,6380,-0.065356,0.330801,0.366973,0.135274,0.030857,1.004868
2011-09-26T15:03:00.196285,6390,-0.073041,0.326236,0.371434,0.134795,0.030911,1.004805
2011-09-26T15:03:00.206285,6400,-0.080727,0.321671,0.375895,0.134315,0.030964,1.004742
2011-09-26T15:03:00.216285,6410,-0.088412,0.317107,0.380356,0.133836,0.031017,1.004679
2011-09-26T15:03:00.226285,6420,-0.096097,0.312542,0.384817,0.133356,0.031071,1.004616
2011-09-26T15:03:00.236285,6430,-0.093853,0.297924,0.391254,0.133199,0.031096,1.004317
2011-09-26T15:03:00.246285,6440,-0.091361,0.283055,0.397741,0.133050,0.031120,1.004012
2011-09-26T15:03:00.256285,6450,-0.088870,0.268187,0.404228,0.132901,0.031144,1.003706
2011-09-26T15:03:00.266285,6460,-0.086378,0.253318,0.410715,0.132752,0.031168,1.003401
2011-09-26T15:03:00.276285,6470,-0.083886,0.238450,0.417202,0.132603,0.031192,1.003096
2011-09-26T15:03:00.286285,6480,-0.081395,0.223581,0.423689,0.132453,0.031216,1.002791
2011-09-26T15:03:00.296285,6490,-0.078903,0.208713,0.430176,0.132304,0.031240,1.002486
2011-09-26T15:03:00.306285,6500,-0.076411,0.193844,0.436663,0.132155,0.031264,1.002180
2011-09-26T15:03:00.316285,6510,-0.073920,0.178976,0.443150,0.132006,0.031288,1.001875
2011-09-26T15:03:00.326285,6520,-0.071428,0.164107,0.449637,0.131857,0.031311,1.001570
2011-09-26T15:03:00.336285,6530,-0.068936,0.149239,0.456124,0.131708,0.031335,1.001265
2011-09-26T15:03:00.346285,6540,-0.073665,0.137800,0.464357,0.131799,0.031254,1.000590
2011-09-26T15:03:00.356285,6550,-0.078544,0.126433,0.472627,0.131894,0.031171,0.999907
2011-09-26T15:03:00.366285,6560,-0.083423,0.115066,0.480897,0.131990,0.031088,0.999225
2011-09-26T15:03:00.376285,6570,-0.088302,0.103699,0.489167,0.132086,0.031005,0.998542
2011-09-26T15:03:00.386285,6580,-0.093182,0.092332,0.497437,0.132181,0.030922,0.997860
2011-09-26T15:03:00.396285,6590,-0.098061,0.080966,0.505706,0.132277,0.030839,0.997177
2011-09-26T15:03:00.406285,6600,-0.102940,0.069599,0.513976,0.132372,0.030755,0.996494
2011-09-26T15:03:00.416285,6610,-0.107820,0.058232,0.522246,0.132468,0.030672,0.995812
2011-09-26T15:03:00.426285,6620,-0.112699,0.046865,0.530516,0.132564,0.030589,0.995129
2011-09-26T15:03:00.436285,6630,-0.117578,0.035498,0.538786,0.132659,0.030506,0.994447
2011-09-26T15:03:00.446285,6640,-0.113952,-0.005510,0.542234,0.132002,0.030987,0.994488
2011-09-26T15:03:00.456285,6650,-0.110078,-0.047378,0.545542,0.131322,0.031485,0.994550
2011-09-26T15:03:00.466285,6660,-0.106204,-0.089247,0.548851,0.130642,0.031982,0.994612
2011-09-26T15:03:00.476285,6670,-0.102330,-0.131115,0.552159,0.129962,0.032480,0.994675
2011-09-26T15:03:00.486285,6680,-0.098456,-0.172984,0.555467,0.129283,0.032977,0.994737
2011-09-26T15:03:00.496285,6690,-0.094582,-0.214852,0.558775,0.128603,0.033475,0.994799
2011-09-26T15:03:00.506285,6700,-0.090708,-0.256721,0.562083,0.127923,0.033972,0.994861
2011-09-26T15:03:00.516285,6710,-0.086834,-0.298589,0.565392,0.127244,0.034470,0.994923
2011-09-26T15:03:00.526285,6720,-0.082960,-0.340458,0.568700,0.126564,0.034967,0.994986
2011-09-26T15:03:00.536285,6730,-0.079086,-0.382326,0.572008,0.125884,0.035465,0.995048
2011-09-26T15:03:00.546285,6740,-0.062497,-0.433702,0.569369,0.126613,0.034737,0.995478
2011-09-26T15:03:00.556285,6750,-0.045623,-0.485292,0.566597,0.127374,0.033982,0.995917
2011-09-26T15:03:00.566285,6760,-0.028748,-0.536882,0.563824,0.128135,0.033226,0.996356
2011-09-26T15:03:00.576285,6770,-0.011873,-0.588472,0.561051,0.128896,0.032471,0.996795
2011-09-26T15:03:00.586285,6780,0.005002,-0.640062,0.558279,0.129657,0.031716,0.997234
2011-09-26T15:03:00.596285,6790,0.021877,-0.691651,0.555506,0.130418,0.030961,0.997673
2011-09-26T15:03:00.606285,6800,0.038752,-0.743241,0.552734,0.131179,0.030206,0.998111
2011-09-26T15:03:00.616285,6810,0.055627,-0.794831,0.549961,0.131940,0.029450,0.998550
2011-09-26T15:03:00.626285,6820,0.072501,-0.846421,0.547188,0.132701,0.028695,0.998989
2011-09-26T15:03:00.636285,6830,0.089376,-0.898011,0.544416,0.133462,0.027940,0.999428
2011-09-26T15:03:00.646285,6840,0.106251,-0.949601,0.541643,0.134223,0.027185,0.999867
2011-09-26T15:03:00.656285,6850,0.126790,-0.926285,0.544575,0.135979,0.027424,0.999772
2011-09-26T15:03:00.666285,6860,0.147428,-0.900937,0.547661,0.137761,0.027689,0.999662
2011-09-26T15:03:00.676285,6870,0.168067,-0.875588,0.550747,0.139543,0.027955,0.999553
2011-09-26T15:03:00.686285,6880,0.188705,-0.850240,0.553833,0.141325,0.028221,0.999443
2011-09-26T15:03:00.696285,6890,0.209343,-0.824892,0.556919,0.143107,0.028487,0.999334
2011-09-26T15:03:00.706285,6900,0.229981,-0.799544,0.560005,0.144889,0.028753,0.999224
2011-09-26T15:03:00.716285,6910,0.250620,-0.774196,0.563092,0.146671,0.029019,0.999115
2011-09-26T15:03:00.726285,6920,0.271258,-0.748848,0.566178,0.148453,0.029285,0.999005
2011-09-26T15:03:00.736285,6930,0.291896,-0.723500,0.569264,0.150235,0.029551,0.998896
2011-09-26T15:03:00.746285,6940,0.312535,-0.698151,0.572350,0.152018,0.029817,0.998786
2011-09-26T15:03:00.756285,6950,0.357014,-0.645753,0.564251,0.153003,0.029353,0.999133
2011-09-26T15:03:00.766285,6960,0.402063,-0.592710,0.555886,0.153969,0.028872,0.999491
2011-09-26T15:03:00.776285,6970,0.447111,-0.539666,0.547520,0.154936,0.028391,0.999849
2011-09-26T15:03:00.786285,6980,0.492160,-0.486623,0.539154,0.155902,0.027910,1.000207
2011-09-26T15:03:00.796285,6990,0.537208,-0.433579,0.530789,0.156868,0.027429,1.000565
2011-09-26T15:03:00.806285,7000,0.582257,-0.380536,0.522423,0.157835,0.026949,1.000923
2011-09-26T15:03:00.816285,7010,0.627305,-0.327492,0.514057,0.158801,0.026468,1.001281
2011-09-26T15:03:00.826285,7020,0.672354,-0.274449,0.505691,0.159767,0.025987,1.001639
2011-09-26T15:03:00.836285,7030,0.717402,-0.221405,0.497326,0.160734,0.025506,1.001997
2011-09-26T15:03:00.846285,7040,0.762450,-0.168362,0.488960,0.161700,0.025025,1.002355
2011-09-26T15:03:00.856285,7050,0.755678,-0.139654,0.479291,0.162728,0.025979,1.001237
2011-09-26T15:03:00.866285,7060,0.747717,-0.111504,0.469592,0.163757,0.026966,1.000086
2011-09-26T15:03:00.876285,7070,0.739756,-0.083354,0.459893,0.164787,0.027953,0.998934
2011-09-26T15:03:00.886285,7080,0.731795,-0.055204,0.450194,0.165816,0.028939,0.997783
2011-09-26T15:03:00.896285,7090,0.723834,-0.027054,0.440495,0.166845,0.029926,0.996631
2011-09-26T15:03:00.906285,7100,0.715873,0.001096,0.430796,0.167874,0.030913,0.995480
2011-09-26T15:03:00.916285,7110,0.707912,0.029246,0.421097,0.168904,0.031900,0.994329
2011-09-26T15:03:00.926285,7120,0.699951,0.057396,0.411398,0.169933,0.032887,0.993177
2011-09-26T15:03:00.936285,7130,0.691990,0.085546,0.401699,0.170962,0.033874,0.992026
2011-09-26T15:03:00.946285,7140,0.684029,0.113696,0.392000,0.171992,0.034861,0.990874
2011-09-26T15:03:00.956285,7150,0.676068,0.141846,0.382302,0.173021,0.035847,0.989723
2011-09-26T15:03:00.966285,7160,0.646697,0.156466,0.381836,0.173688,0.036969,0.990065
2011-09-26T15:03:00.976285,7170,0.616762,0.170729,0.381614,0.174345,0.038094,0.990447
2011-09-26T15:03:00.986285,7180,0.586827,0.184992,0.381392,0.175002,0.039218,0.990829
2011-09-26T15:03:00.996285,7190,0.556892,0.199255,0.381170,0.175660,0.040343,0.991211
2011-09-26T15:03:01.006285,7200,0.526957,0.213518,0.380948,0.176317,0.041468,0.991593
2011-09-26T15:03:01.016285,7210,0.497022,0.227781,0.380726,0.176974,0.042593,0.991975
2011-09-26T15:03:01.026285,7220,0.467087,0.242044,0.380504,0.177631,0.043718,0.992356
2011-09-26T15:03:01.036285,7230,0.437151,0.256307,0.380282,0.178289,0.044843,0.992738
2011-09-26T15:03:01.046285,7240,0.407216,0.270570,0.380060,0.178946,0.045968,0.993120
2011-09-26T15:03:01.056285,7250,0.377281,0.284833,0.379838,0.179603,0.047093,0.993502
2011-09-26T15:03:01.066285,7260,0.386638,0.310228,0.354271,0.179574,0.044984,0.992425
2011-09-26T15:03:01.076285,7270,0.397015,0.335912,0.328047,0.179527,0.042792,0.991311
2011-09-26T15:03:01.086285,7280,0.407392,0.361597,0.301822,0.179480,0.040599,0.990196
2011-09-26T15:03:01.096285,7290,0.417769,0.387281,0.275597,0.179433,0.038407,0.989081
2011-09-26T15:03:01.106285,7300,0.428147,0.412966,0.249373,0.179387,0.036214,0.987967
2011-09-26T15:03:01.116285,7310,0.438524,0.438650,0.223148,0.179340,0.034022,0.986852
2011-09-26T15:03:01.126285,7320,0.448901,0.464334,0.196924,0.179293,0.031829,0.985737
2011-09-26T15:03:01.136285,7330,0.459278,0.490019,0.170699,0.179246,0.029637,0.984623
2011-09-26T15:03:01.146285,7340,0.469656,0.515703,0.144474,0.179199,0.027444,0.983508
2011-09-26T15:03:01.156285,7350,0.480033,0.541387,0.118250,0.179152,0.025252,0.982393
2011-09-26T15:03:01.166285,7360,0.490410,0.567072,0.092025,0.179105,0.023059,0.981279
2011-09-26T15:03:01.176285,7370,0.562607,0.511876,0.072891,0.178491,0.022675,0.982463
2011-09-26T15:03:01.186285,7380,0.636842,0.454014,0.053991,0.177859,0.022351,0.983723
2011-09-26T15:03:01.196285,7390,0.711077,0.396153,0.035091,0.177226,0.022027,0.984984
2011-09-26T15:03:01.206285,7400,0.785311,0.338291,0.016191,0.176593,0.021703,0.986244
2011-09-26T15:03:01.216285,7410,0.859546,0.280430,-0.002709,0.175961,0.021379,0.987504
2011-09-26T15:03:01.226285,7420,0.933781,0.222568,-0.021609,0.175328,0.021055,0.988764
2011-09-26T15:03:01.236285,7430,1.008016,0.164706,-0.040509,0.174695,0.020731,0.990025
2011-09-26T15:03:01.246285,7440,1.082251,0.106845,-0.059409,0.174062,0.020407,0.991285
2011-09-26T15:03:01.256285,7450,1.156485,0.048983,-0.078309,0.173430,0.020083,0.992545
2011-09-26T15:03:01.266285,7460,1.230720,-0.008878,-0.097209,0.172797,0.019759,0.993805
2011-09-26T15:03:01.276285,7470,1.309244,-0.072073,-0.121650,0.173015,0.021440,0.996743
2011-09-26T15:03:01.286285,7480,1.387896,-0.135427,-0.146256,0.173259,0.023181,0.999731
2011-09-26T15:03:01.296285,7490,1.466548,-0.198781,-0.170862,0.173503,0.024922,1.002719
2011-09-26T15:03:01.306285,7500,1.545200,-0.262134,-0.195468,0.173746,0.026663,1.005708
2011-09-26T15:03:01.316285,7510,1.623853,-0.325488,-0.220075,0.173990,0.028404,1.008696
2011-09-26T15:03:01.326285,7520,1.702505,-0.388842,-0.244681,0.174234,0.030145,1.011684
2011-09-26T15:03:01.336285,7530,1.781157,-0.452195,-0.269287,0.174477,0.031886,1.014672
2011-09-26T15:03:01.346285,7540,1.859809,-0.515549,-0.293893,0.174721,0.033627,1.017660
2011-09-26T15:03:01.356285,7550,1.938461,-0.578903,-0.318499,0.174965,0.035368,1.020648
2011-09-26T15:03:01.366285,7560,2.017113,-0.642257,-0.343105,0.175208,0.037109,1.023636
2011-09-26T15:03:01.376285,7570,1.951450,-0.555317,-0.379140,0.173953,0.038508,1.027773
2011-09-26T15:03:01.386285,7580,1.882160,-0.464600,-0.415461,0.172660,0.039898,1.031939
2011-09-26T15:03:01.396285,7590,1.812871,-0.373884,-0.451783,0.171366,0.041288,1.036106
2011-09-26T15:03:01.406285,7600,1.743582,-0.283167,-0.488105,0.170073,0.042678,1.040272
2011-09-26T15:03:01.416285,7610,1.674293,-0.192451,-0.524427,0.168780,0.044069,1.044438
2011-09-26T15:03:01.426285,7620,1.605004,-0.101734,-0.560749,0.167487,0.045459,1.048604
2011-09-26T15:03:01.436285,7630,1.535714,-0.011018,-0.597070,0.166194,0.046849,1.052770
2011-09-26T15:03:01.446285,7640,1.466425,0.079699,-0.633392,0.164901,0.048240,1.056936
2011-09-26T15:03:01.456285,7650,1.397136,0.170415,-0.669714,0.163608,0.049630,1.061102
2011-09-26T15:03:01.466285,7660,1.327847,0.261132,-0.706036,0.162315,0.051020,1.065269
2011-09-26T15:03:01.476285,7670,1.258557,0.351848,-0.742358,0.161021,0.052410,1.069435
2011-09-26T15:03:01.486285,7680,1.087489,0.456608,-0.766652,0.158087,0.053847,1.064553
2011-09-26T15:03:01.496285,7690,0.913650,0.561750,-0.790619,0.155108,0.055286,1.059424
2011-09-26T15:03:01.506285,7700,0.739810,0.666892,-0.814585,0.152128,0.056724,1.054296
2011-09-26T15:03:01.516285,7710,0.565970,0.772034,-0.838552,0.149149,0.058163,1.049168
2011-09-26T15:03:01.526285,7720,0.392130,0.877176,-0.862518,0.146170,0.059601,1.044039
2011-09-26T15:03:01.536285,7730,0.218290,0.982318,-0.886485,0.143190,0.061040,1.038911
2011-09-26T15:03:01.546285,7740,0.044450,1.087460,-0.910452,0.140211,0.062478,1.033783
2011-09-26T15:03:01.556285,7750,-0.129390,1.192602,-0.934418,0.137232,0.063916,1.028654
2011-09-26T15:03:01.566285,7760,-0.303230,1.297744,-0.958385,0.134253,0.065355,1.023526
2011-09-26T15:03:01.576285,7770,-0.477070,1.402886,-0.982352,0.131273,0.066793,1.018398
2011-09-26T15:03:01.586285,7780,-0.556262,1.188741,-0.987266,0.129336,0.064134,1.010420
2011-09-26T15:03:01.596285,7790,-0.632565,0.964852,-0.991598,0.127431,0.061350,1.002355
2011-09-26T15:03:01.606285,7800,-0.708869,0.740963,-0.995931,0.125526,0.058565,0.994290
2011-09-26T15:03:01.616285,7810,-0.785172,0.517074,-1.000264,0.123620,0.055781,0.986225
2011-09-26T15:03:01.626285,7820,-0.861476,0.293185,-1.004597,0.121715,0.052997,0.978161
2011-09-26T15:03:01.636285,7830,-0.937780,0.069296,-1.008929,0.119810,0.050212,0.970096
2011-09-26T15:03:01.646285,7840,-1.014083,-0.154593,-1.013262,0.117905,0.047428,0.962031
2011-09-26T15:03:01.656285,7850,-1.090387,-0.378482,-1.017595,0.115999,0.044644,0.953966
2011-09-26T15:03:01.666285,7860,-1.166690,-0.602371,-1.021927,0.114094,0.041859,0.945901
2011-09-26T15:03:01.676285,7870,-1.242994,-0.826260,-1.026260,0.112189,0.039075,0.937837
2011-09-26T15:03:01.686285,7880,-1.346727,-1.031652,-1.046881,0.110220,0.039002,0.937132
2011-09-26T15:03:01.696285,7890,-1.451473,-1.236362,-1.068103,0.108248,0.039029,0.936699
2011-09-26T15:03:01.706285,7900,-1.556220,-1.441071,-1.089325,0.106277,0.039056,0.936266
2011-09-26T15:03:01.716285,7910,-1.660966,-1.645781,-1.110547,0.104306,0.039083,0.935833
2011-09-26T15:03:01.726285,7920,-1.765712,-1.850491,-1.131769,0.102334,0.039110,0.935400
2011-09-26T15:03:01.736285,7930,-1.870458,-2.055200,-1.152991,0.100363,0.039138,0.934967
2011-09-26T15:03:01.746285,7940,-1.975204,-2.259910,-1.174213,0.098392,0.039165,0.934534
2011-09-26T15:03:01.756285,7950,-2.079950,-2.464620,-1.195435,0.096420,0.039192,0.934102
2011-09-26T15:03:01.766285,7960,-2.184696,-2.669330,-1.216657,0.094449,0.039219,0.933669
2011-09-26T15:03:01.776285,7970,-2.289442,-2.874039,-1.237879,0.092478,0.039246,0.933236
2011-09-26T15:03:01.786285,7980,-2.394188,-3.078749,-1.259100,0.090506,0.039273,0.932803
2011-09-26T15:03:01.796285,7990,-2.327584,-3.156524,-1.308097,0.090761,0.035709,0.936916
2011-09-26T15:03:01.806285,8000,-2.256278,-3.230815,-1.357856,0.091076,0.032047,0.941155
2011-09-26T15:03:01.816285,8010,-2.184972,-3.305107,-1.407616,0.091392,0.028384,0.945393
2011-09-26T15:03:01.826285,8020,-2.113666,-3.379398,-1.457375,0.091707,0.024722,0.949631
2011-09-26T15:03:01.836285,8030,-2.042360,-3.453689,-1.507134,0.092023,0.021060,0.953870
2011-09-26T15:03:01.846285,8040,-1.971054,-3.527981,-1.556893,0.092339,0.017397,0.958108
2011-09-26T15:03:01.856285,8050,-1.899748,-3.602272,-1.606652,0.092654,0.013735,0.962346
2011-09-26T15:03:01.866285,8060,-1.828442,-3.676564,-1.656411,0.092970,0.010072,0.966585
2011-09-26T15:03:01.876285,8070,-1.757136,-3.750855,-1.706170,0.093285,0.006410,0.970823
2011-09-26T15:03:01.886285,8080,-1.685830,-3.825147,-1.755929,0.093601,0.002748,0.975061
2011-09-26T15:03:01.896285,8090,-1.367710,-3.802447,-1.786153,0.093407,-0.002450,0.983942
2011-09-26T15:03:01.906285,8100,-1.041641,-3.776624,-1.815747,0.093196,-0.007697,0.992971
2011-09-26T15:03:01.916285,8110,-0.715573,-3.750801,-1.845341,0.092985,-0.012944,1.002001
2011-09-26T15:03:01.926285,8120,-0.389504,-3.724977,-1.874936,0.092775,-0.018190,1.011031
2011-09-26T15:03:01.936285,8130,-0.063435,-3.699154,-1.904530,0.092564,-0.023437,1.020060
2011-09-26T15:03:01.946285,8140,0.262633,-3.673331,-1.934124,0.092354,-0.028684,1.029090
2011-09-26T15:03:01.956285,8150,0.588702,-3.647508,-1.963719,0.092143,-0.033931,1.038120
2011-09-26T15:03:01.966285,8160,0.914770,-3.621684,-1.993313,0.091932,-0.039178,1.047149
2011-09-26T15:03:01.976285,8170,1.240839,-3.595861,-2.022907,0.091722,-0.044425,1.056179
2011-09-26T15:03:01.986285,8180,1.566908,-3.570038,-2.052502,0.091511,-0.049672,1.065209
2011-09-26T15:03:01.996285,8190,1.868207,-3.415775,-2.094590,0.093084,-0.046178,1.062939
2011-09-26T15:03:02.006285,8200,2.168662,-3.257127,-2.137104,0.094717,-0.042386,1.060284
2011-09-26T15:03:02.016285,8210,2.469116,-3.098480,-2.179618,0.096351,-0.038594,1.057629
2011-09-26T15:03:02.026285,8220,2.769570,-2.939833,-2.222132,0.097984,-0.034802,1.054974
2011-09-26T15:03:02.036285,8230,3.070024,-2.781185,-2.264647,0.099618,-0.031011,1.052319
2011-09-26T15:03:02.046285,8240,3.370478,-2.622538,-2.307161,0.101252,-0.027219,1.049664
2011-09-26T15:03:02.056285,8250,3.670933,-2.463891,-2.349675,0.102885,-0.023427,1.047009
2011-09-26T15:03:02.066285,8260,3.971387,-2.305243,-2.392190,0.104519,-0.019635,1.044354
2011-09-26T15:03:02.076285,8270,4.271841,-2.146596,-2.434704,0.106152,-0.015843,1.041699
2011-09-26T15:03:02.086285,8280,4.572295,-1.987949,-2.477218,0.107786,-0.012051,1.039044
2011-09-26T15:03:02.096285,8290,4.872749,-1.829301,-2.519732,0.109419,-0.008259,1.036389
2011-09-26T15:03:02.106285,8300,4.813884,-1.743465,-2.552228,0.107292,0.000625,1.037639
2011-09-26T15:03:02.116285,8310,4.736893,-1.661301,-2.584217,0.104975,0.009767,1.039087
2011-09-26T15:03:02.126285,8320,4.659902,-1.579137,-2.616207,0.102658,0.018908,1.040535
2011-09-26T15:03:02.136285,8330,4.582911,-1.496973,-2.648197,0.100341,0.028049,1.041982
2011-09-26T15:03:02.146285,8340,4.505920,-1.414809,-2.680187,0.098024,0.037191,1.043430
2011-09-26T15:03:02.156285,8350,4.428929,-1.332646,-2.712177,0.095706,0.046332,1.044877
2011-09-26T15:03:02.166285,8360,4.351938,-1.250482,-2.744167,0.093389,0.055473,1.046325
2011-09-26T15:03:02.176285,8370,4.274947,-1.168318,-2.776156,0.091072,0.064614,1.047772
2011-09-26T15:03:02.186285,8380,4.197956,-1.086154,-2.808146,0.088755,0.073756,1.049220
2011-09-26T15:03:02.196285,8390,4.120965,-1.003991,-2.840136,0.086438,0.082897,1.050667
2011-09-26T15:03:02.206285,8400,3.687299,-0.830072,-2.899001,0.087564,0.087828,1.050835
2011-09-26T15:03:02.216285,8410,3.242637,-0.653325,-2.958694,0.088796,0.092630,1.050963
2011-09-26T15:03:02.226285,8420,2.797974,-0.476577,-3.018387,0.090027,0.097431,1.051091
2011-09-26T15:03:02.236285,8430,2.353312,-0.299830,-3.078081,0.091259,0.102232,1.051219
2011-09-26T15:03:02.246285,8440,1.908650,-0.123083,-3.137774,0.092491,0.107034,1.051347
2011-09-26T15:03:02.256285,8450,1.463987,0.053664,-3.197467,0.093723,0.111835,1.051474
2011-09-26T15:03:02.266285,8460,1.019325,0.230412,-3.257161,0.094955,0.116637,1.051602
2011-09-26T15:03:02.276285,8470,0.574663,0.407159,-3.316854,0.096187,0.121438,1.051730
2011-09-26T15:03:02.286285,8480,0.130000,0.583906,-3.376547,0.097419,0.126239,1.051858
2011-09-26T15:03:02.296285,8490,-0.314662,0.760653,-3.436240,0.098651,0.131041,1.051986
2011-09-26T15:03:02.306285,8500,-0.759324,0.937401,-3.495934,0.099883,0.135842,1.052114
2011-09-26T15:03:02.316285,8510,-1.278317,1.151275,-3.570650,0.099549,0.130015,1.049660
2011-09-26T15:03:02.326285,8520,-1.799688,1.366336,-3.645847,0.099166,0.123848,1.047122
2011-09-26T15:03:02.336285,8530,-2.321059,1.581398,-3.721045,0.098783,0.117681,1.044585
2011-09-26T15:03:02.346285,8540,-2.842430,1.796460,-3.796242,0.098399,0.111513,1.042047
2011-09-26T15:03:02.356285,8550,-3.363801,2.011522,-3.871439,0.098016,0.105346,1.039510
2011-09-26T15:03:02.366285,8560,-3.885172,2.226584,-3.946636,0.097632,0.099179,1.036972
2011-09-26T15:03:02.376285,8570,-4.406543,2.441645,-4.021833,0.097249,0.093012,1.034435
2011-09-26T15:03:02.386285,8580,-4.927914,2.656707,-4.097031,0.096866,0.086844,1.031898
2011-09-26T15:03:02.396285,8590,-5.449285,2.871769,-4.172228,0.096482,0.080677,1.029360
2011-09-26T15:03:02.406285,8600,-5.970656,3.086831,-4.247425,0.096099,0.074510,1.026823
2011-09-26T15:03:02.416285,8610,-5.855136,3.038792,-4.342141,0.093566,0.059533,1.022502
2011-09-26T15:03:02.426285,8620,-5.722335,2.983614,-4.437387,0.090975,0.044316,1.018132
2011-09-26T15:03:02.436285,8630,-5.589534,2.928436,-4.532633,0.088383,0.029100,1.013763
2011-09-26T15:03:02.446285,8640,-5.456734,2.873258,-4.627879,0.085792,0.013884,1.009393
2011-09-26T15:03:02.456285,8650,-5.323933,2.818080,-4.723124,0.083201,-0.001332,1.005024
2011-09-26T15:03:02.466285,8660,-5.191133,2.762903,-4.818370,0.080610,-0.016549,1.000654
2011-09-26T15:03:02.476285,8670,-5.058332,2.707725,-4.913616,0.078018,-0.031765,0.996285
2011-09-26T15:03:02.486285,8680,-4.925531,2.652547,-5.008862,0.075427,-0.046981,0.991915
2011-09-26T15:03:02.496285,8690,-4.792731,2.597369,-5.104108,0.072836,-0.062198,0.987546
2011-09-26T15:03:02.506285,8700,-4.659930,2.542191,-5.199353,0.070245,-0.077414,0.983176
2011-09-26T15:03:02.516285,8710,-4.215425,2.367091,-5.255336,0.070682,-0.082062,0.981822
2011-09-26T15:03:02.526285,8720,-3.761738,2.188459,-5.310161,0.071210,-0.086400,0.980557
2011-09-26T15:03:02.536285,8730,-3.308052,2.009827,-5.364987,0.071737,-0.090737,0.979291
2011-09-26T15:03:02.546285,8740,-2.854365,1.831195,-5.419813,0.072264,-0.095074,0.978026
2011-09-26T15:03:02.556285,8750,-2.400678,1.652563,-5.474639,0.072791,-0.099411,0.976760
2011-09-26T15:03:02.566285,8760,-1.946992,1.473931,-5.529464,0.073318,-0.103749,0.975495
2011-09-26T15:03:02.576285,8770,-1.493305,1.295298,-5.584290,0.073845,-0.108086,0.974229
2011-09-26T15:03:02.586285,8780,-1.039618,1.116666,-5.639116,0.074373,-0.112423,0.972964
2011-09-26T15:03:02.596285,8790,-0.585932,0.938034,-5.693942,0.074900,-0.116760,0.971698
2011-09-26T15:03:02.606285,8800,-0.132245,0.759402,-5.748767,0.075427,-0.121098,0.970433
2011-09-26T15:03:02.616285,8810,0.321442,0.580770,-5.803593,0.075954,-0.125435,0.969167
2011-09-26T15:03:02.626285,8820,0.623871,0.378309,-5.906765,0.076420,-0.116572,0.966040
2011-09-26T15:03:02.636285,8830,0.920797,0.174980,-6.011695,0.076884,-0.107228,0.962844
2011-09-26T15:03:02.646285,8840,1.217723,-0.028348,-6.116626,0.077348,-0.097885,0.959649
2011-09-26T15:03:02.656285,8850,1.514649,-0.231676,-6.221557,0.077811,-0.088542,0.956453
2011-09-26T15:03:02.666285,8860,1.811575,-0.435004,-6.326487,0.078275,-0.079198,0.953258
2011-09-26T15:03:02.676285,8870,2.108501,-0.638333,-6.431418,0.078739,-0.069855,0.950062
2011-09-26T15:03:02.686285,8880,2.405427,-0.841661,-6.536348,0.079203,-0.060511,0.946867
2011-09-26T15:03:02.696285,8890,2.702353,-1.044989,-6.641279,0.079666,-0.051168,0.943672
2011-09-26T15:03:02.706285,8900,2.999279,-1.248317,-6.746210,0.080130,-0.041825,0.940476
2011-09-26T15:03:02.716285,8910,3.296205,-1.451645,-6.851140,0.080594,-0.032481,0.937281
2011-09-26T15:03:02.726285,8920,3.218455,-1.517096,-6.961495,0.082721,-0.025999,0.943827
2011-09-26T15:03:02.736285,8930,3.127278,-1.577606,-7.072043,0.084907,-0.019620,0.950723
2011-09-26T15:03:02.746285,8940,3.036101,-1.638116,-7.182592,0.087094,-0.013241,0.957618
2011-09-26T15:03:02.756285,8950,2.944925,-1.698625,-7.293140,0.089280,-0.006862,0.964514
2011-09-26T15:03:02.766285,8960,2.853748,-1.759135,-7.403689,0.091466,-0.000482,0.971409
2011-09-26T15:03:02.776285,8970,2.762571,-1.819645,-7.514238,0.093653,0.005897,0.978305
2011-09-26T15:03:02.786285,8980,2.671395,-1.880155,-7.624786,0.095839,0.012276,0.985200
2011-09-26T15:03:02.796285,8990,2.580218,-1.940664,-7.735335,0.098025,0.018655,0.992096
2011-09-26T15:03:02.806285,9000,2.489041,-2.001174,-7.845884,0.100212,0.025035,0.998991
2011-09-26T15:03:02.816285,9010,2.397865,-2.061684,-7.956432,0.102398,0.031414,1.005887
2011-09-26T15:03:02.826285,9020,2.076585,-2.094012,-8.015202,0.101902,0.028164,0.999606
2011-09-26T15:03:02.836285,9030,1.746908,-2.125312,-8.072081,0.101308,0.024563,0.992844
2011-09-26T15:03:02.846285,9040,1.417232,-2.156612,-8.128961,0.100715,0.020962,0.986081
2011-09-26T15:03:02.856285,9050,1.087555,-2.187912,-8.185841,0.100121,0.017361,0.979319
2011-09-26T15:03:02.866285,9060,0.757879,-2.219212,-8.242721,0.099527,0.013760,0.972557
2011-09-26T15:03:02.876285,9070,0.428202,-2.250512,-8.299601,0.098933,0.010159,0.965795
2011-09-26T15:03:02.886285,9080,0.098526,-2.281811,-8.356481,0.098339,0.006558,0.959033
2011-09-26T15:03:02.896285,9090,-0.231151,-2.313111,-8.413361,0.097746,0.002956,0.952271
2011-09-26T15:03:02.906285,9100,-0.560827,-2.344411,-8.470240,0.097152,-0.000645,0.945509
2011-09-26T15:03:02.916285,9110,-0.890504,-2.375711,-8.527120,0.096558,-0.004246,0.938747
2011-09-26T15:03:02.926285,9120,-1.220180,-2.407011,-8.584000,0.095964,-0.007847,0.931985
2011-09-26T15:03:02.936285,9130,-1.376655,-2.375184,-8.624907,0.095172,-0.010978,0.944885
2011-09-26T15:03:02.946285,9140,-1.527031,-2.341134,-8.665251,0.094374,-0.014093,0.958478
2011-09-26T15:03:02.956285,9150,-1.677408,-2.307084,-8.705596,0.093575,-0.017207,0.972071
2011-09-26T15:03:02.966285,9160,-1.827785,-2.273034,-8.745940,0.092776,-0.020322,0.985664
2011-09-26T15:03:02.976285,9170,-1.978161,-2.238984,-8.786284,0.091978,-0.023436,0.999257
2011-09-26T15:03:02.986285,9180,-2.128538,-2.204933,-8.826629,0.091179,-0.026551,1.012850
2011-09-26T15:03:02.996285,9190,-2.278914,-2.170883,-8.866973,0.090380,-0.029665,1.026443
2011-09-26T15:03:03.006285,9200,-2.429291,-2.136833,-8.907317,0.089582,-0.032780,1.040036
2011-09-26T15:03:03.016285,9210,-2.579668,-2.102783,-8.947662,0.088783,-0.035895,1.053629
2011-09-26T15:03:03.026285,9220,-2.730044,-2.068733,-8.988006,0.087984,-0.039009,1.067222
2011-09-26T15:03:03.036285,9230,-2.597403,-1.891154,-9.109779,0.087348,-0.043140,1.066725
2011-09-26T15:03:03.046285,9240,-2.453489,-1.707858,-9.234796,0.086717,-0.047311,1.065667
2011-09-26T15:03:03.056285,9250,-2.309575,-1.524562,-9.359813,0.086087,-0.051482,1.064610
2011-09-26T15:03:03.066285,9260,-2.165661,-1.341266,-9.484829,0.085457,-0.055653,1.063552
2011-09-26T15:03:03.076285,9270,-2.021747,-1.157970,-9.609846,0.084827,-0.059824,1.062494
2011-09-26T15:03:03.086285,9280,-1.877832,-0.974674,-9.734863,0.084197,-0.063996,1.061436
2011-09-26T15:03:03.096285,9290,-1.733918,-0.791378,-9.859880,0.083566,-0.068167,1.060379
2011-09-26T15:03:03.106285,9300,-1.590004,-0.608082,-9.984896,0.082936,-0.072338,1.059321
2011-09-26T15:03:03.116285,9310,-1.446090,-0.424786,-10.109913,0.082306,-0.076509,1.058263
2011-09-26T15:03:03.126285,9320,-1.302176,-0.241490,-10.234930,0.081676,-0.080680,1.057205
2011-09-26T15:03:03.136285,9330,-1.261512,-0.115730,-10.350543,0.080677,-0.080688,1.055698
2011-09-26T15:03:03.146285,9340,-1.225610,0.007376,-10.465722,0.079660,-0.080505,1.054169
2011-09-26T15:03:03.156285,9350,-1.189709,0.130481,-10.580901,0.078644,-0.080321,1.052641
2011-09-26T15:03:03.166285,9360,-1.153807,0.253587,-10.696081,0.077628,-0.080137,1.051113
2011-09-26T15:03:03.176285,9370,-1.117906,0.376693,-10.811260,0.076611,-0.079953,1.049585
2011-09-26T15:03:03.186285,9380,-1.082004,0.499799,-10.926439,0.075595,-0.079769,1.048056
2011-09-26T15:03:03.196285,9390,-1.046103,0.622905,-11.041618,0.074579,-0.079586,1.046528
2011-09-26T15:03:03.206285,9400,-1.010201,0.746010,-11.156798,0.073563,-0.079402,1.045000
2011-09-26T15:03:03.216285,9410,-0.974300,0.869116,-11.271977,0.072546,-0.079218,1.043471
2011-09-26T15:03:03.226285,9420,-0.938398,0.992222,-11.387156,0.071530,-0.079034,1.041943
2011-09-26T15:03:03.236285,9430,-0.902497,1.115328,-11.502335,0.070514,-0.078850,1.040415
2011-09-26T15:03:03.246285,9440,-0.786510,1.078084,-11.599986,0.069289,-0.082309,1.034724
2011-09-26T15:03:03.256285,9450,-0.667523,1.034834,-11.696979,0.068055,-0.085904,1.028878
2011-09-26T15:03:03.266285,9460,-0.548536,0.991584,-11.793972,0.066822,-0.089500,1.023031
2011-09-26T15:03:03.276285,9470,-0.429549,0.948334,-11.890966,0.065589,-0.093095,1.017184
2011-09-26T15:03:03.286285,9480,-0.310562,0.905083,-11.987959,0.064356,-0.096690,1.011338
2011-09-26T15:03:03.296285,9490,-0.191575,0.861833,-12.084953,0.063123,-0.100285,1.005491
2011-09-26T15:03:03.306285,9500,-0.072588,0.818583,-12.181946,0.061889,-0.103881,0.999644
2011-09-26T15:03:03.316285,9510,0.046399,0.775332,-12.278940,0.060656,-0.107476,0.993798
2011-09-26T15:03:03.326285,9520,0.165386,0.732082,-12.375933,0.059423,-0.111071,0.987951
2011-09-26T15:03:03.336285,9530,0.284373,0.688832,-12.472926,0.058190,-0.114666,0.982105
2011-09-26T15:03:03.346285,9540,0.384664,0.584640,-12.506811,0.058508,-0.113504,0.982692
2011-09-26T15:03:03.356285,9550,0.484292,0.478290,-12.538461,0.058881,-0.112174,0.983508
2011-09-26T15:03:03.366285,9560,0.583920,0.371940,-12.570111,0.059255,-0.110843,0.984324
2011-09-26T15:03:03.376285,9570,0.683548,0.265589,-12.601761,0.059628,-0.109512,0.985140
2011-09-26T15:03:03.386285,9580,0.783176,0.159239,-12.633411,0.060001,-0.108182,0.985955
2011-09-26T15:03:03.396285,9590,0.882804,0.052889,-12.665061,0.060374,-0.106851,0.986771
2011-09-26T15:03:03.406285,9600,0.982433,-0.053461,-12.696710,0.060747,-0.105520,0.987587
2011-09-26T15:03:03.416285,9610,1.082061,-0.159811,-12.728360,0.061121,-0.104190,0.988403
2011-09-26T15:03:03.426285,9620,1.181689,-0.266162,-12.760010,0.061494,-0.102859,0.989218
2011-09-26T15:03:03.436285,9630,1.281317,-0.372512,-12.791660,0.061867,-0.101529,0.990034
2011-09-26T15:03:03.446285,9640,1.380945,-0.478862,-12.823310,0.062240,-0.100198,0.990850
2011-09-26T15:03:03.456285,9650,1.327683,-0.464524,-12.872313,0.062806,-0.098089,0.990063
2011-09-26T15:03:03.466285,9660,1.269314,-0.446154,-12.921896,0.063378,-0.095954,0.989224
2011-09-26T15:03:03.476285,9670,1.210946,-0.427784,-12.971478,0.063950,-0.093818,0.988384
2011-09-26T15:03:03.486285,9680,1.152577,-0.409415,-13.021061,0.064522,-0.091683,0.987544
2011-09-26T15:03:03.496285,9690,1.094208,-0.391045,-13.070644,0.065094,-0.089548,0.986704
2011-09-26T15:03:03.506285,9700,1.035839,-0.372675,-13.120227,0.065667,-0.087413,0.985864
2011-09-26T15:03:03.516285,9710,0.977470,-0.354305,-13.169810,0.066239,-0.085278,0.985024
2011-09-26T15:03:03.526285,9720,0.919101,-0.335936,-13.219392,0.066811,-0.083142,0.984184
2011-09-26T15:03:03.536285,9730,0.860732,-0.317566,-13.268975,0.067383,-0.081007,0.983345
2011-09-26T15:03:03.546285,9740,0.802363,-0.299196,-13.318558,0.067955,-0.078872,0.982505
2011-09-26T15:03:03.556285,9750,0.607994,-0.314988,-13.364038,0.066360,-0.078081,0.982821
2011-09-26T15:03:03.566285,9760,0.408368,-0.332101,-13.409359,0.064682,-0.077341,0.983182
2011-09-26T15:03:03.576285,9770,0.208743,-0.349213,-13.454680,0.063003,-0.076602,0.983542
2011-09-26T15:03:03.586285,9780,0.009118,-0.366325,-13.500001,0.061325,-0.075863,0.983903
2011-09-26T15:03:03.596285,9790,-0.190508,-0.383438,-13.545323,0.059646,-0.075124,0.984264
2011-09-26T15:03:03.606285,9800,-0.390133,-0.400550,-13.590644,0.057968,-0.074384,0.984625
2011-09-26T15:03:03.616285,9810,-0.589758,-0.417662,-13.635965,0.056289,-0.073645,0.984986
2011-09-26T15:03:03.626285,9820,-0.789383,-0.434775,-13.681286,0.054610,-0.072906,0.985347
2011-09-26T15:03:03.636285,9830,-0.989009,-0.451887,-13.726608,0.052932,-0.072166,0.985707
2011-09-26T15:03:03.646285,9840,-1.188634,-0.469000,-13.771929,0.051253,-0.071427,0.986068
2011-09-26T15:03:03.656285,9850,-1.247276,-0.504932,-13.803329,0.050748,-0.076252,0.987314
2011-09-26T15:03:03.666285,9860,-1.299626,-0.541703,-13.834108,0.050295,-0.081325,0.988600
2011-09-26T15:03:03.676285,9870,-1.351975,-0.578475,-13.864887,0.049843,-0.086397,0.989886
2011-09-26T15:03:03.686285,9880,-1.404325,-0.615247,-13.895666,0.049390,-0.091470,0.991172
2011-09-26T15:03:03.696285,9890,-1.456674,-0.652019,-13.926445,0.048937,-0.096543,0.992457
2011-09-26T15:03:03.706285,9900,-1.509024,-0.688791,-13.957224,0.048484,-0.101616,0.993743
2011-09-26T15:03:03.716285,9910,-1.561373,-0.725563,-13.988003,0.048031,-0.106689,0.995029
2011-09-26T15:03:03.726285,9920,-1.613723,-0.762335,-14.018782,0.047578,-0.111761,0.996315
2011-09-26T15:03:03.736285,9930,-1.666072,-0.799107,-14.049561,0.047126,-0.116834,0.997600
2011-09-26T15:03:03.746285,9940,-1.718422,-0.835879,-14.080340,0.046673,-0.121907,0.998886
2011-09-26T15:03:03.756285,9950,-1.770772,-0.872651,-14.111119,0.046220,-0.126980,1.000172
2011-09-26T15:03:03.766285,9960,-1.628425,-0.831562,-14.120832,0.046776,-0.128645,1.005599
2011-09-26T15:03:03.776285,9970,-1.478427,-0.787414,-14.129716,0.047371,-0.130175,1.011190
2011-09-26T15:03:03.786285,9980,-1.328429,-0.743266,-14.138601,0.047966,-0.131706,1.016780
2011-09-26T15:03:03.796285,9990,-1.178430,-0.699117,-14.147486,0.048562,-0.133237,1.022370
2011-09-26T15:03:03.806285,10000,-1.028432,-0.654969,-14.156370,0.049157,-0.134768,1.027961
2011-09-26T15:03:03.816285,10010,-0.878433,-0.610820,-14.165255,0.049752,-0.136299,1.033551
2011-09-26T15:03:03.826285,10020,-0.728435,-0.566672,-14.174139,0.050347,-0.137829,1.039142
2011-09-26T15:03:03.836285,10030,-0.578437,-0.522524,-14.183024,0.050943,-0.139360,1.044732
2011-09-26T15:03:03.846285,10040,-0.428438,-0.478375,-14.191908,0.051538,-0.140891,1.050322
2011-09-26T15:03:03.856285,10050,-0.278440,-0.434227,-14.200793,0.052133,-0.142422,1.055913
2011-09-26T15:03:03.866285,10060,-0.218105,-0.408498,-14.261961,0.052908,-0.140821,1.049456
2011-09-26T15:03:03.876285,10070,-0.161226,-0.383478,-14.325144,0.053690,-0.139100,1.042534
2011-09-26T15:03:03.886285,10080,-0.104347,-0.358459,-14.388327,0.054472,-0.137379,1.035613
2011-09-26T15:03:03.896285,10090,-0.047468,-0.333440,-14.451510,0.055254,-0.135658,1.028692
2011-09-26T15:03:03.906285,10100,0.009411,-0.308421,-14.514693,0.056035,-0.133937,1.021770
2011-09-26T15:03:03.916285,10110,0.066290,-0.283402,-14.577875,0.056817,-0.132216,1.014849
2011-09-26T15:03:03.926285,10120,0.123169,-0.258382,-14.641058,0.057599,-0.130496,1.007927
2011-09-26T15:03:03.936285,10130,0.180048,-0.233363,-14.704241,0.058381,-0.128775,1.001006
2011-09-26T15:03:03.946285,10140,0.236927,-0.208344,-14.767424,0.059162,-0.127054,0.994085
2011-09-26T15:03:03.956285,10150,0.293806,-0.183325,-14.830607,0.059944,-0.125333,0.987163
2011-09-26T15:03:03.966285,10160,0.267989,-0.219512,-14.859235,0.060617,-0.124997,0.987371
2011-09-26T15:03:03.976285,10170,0.238905,-0.258117,-14.886498,0.061286,-0.124717,0.987861
2011-09-26T15:03:03.986285,10180,0.209821,-0.296723,-14.913761,0.061954,-0.124436,0.988351
2011-09-26T15:03:03.996285,10190,0.180737,-0.335328,-14.941024,0.062623,-0.124156,0.988841
2011-09-26T15:03:04.006285,10200,0.151653,-0.373934,-14.968286,0.063292,-0.123875,0.989331
2011-09-26T15:03:04.016285,10210,0.122569,-0.412539,-14.995549,0.063960,-0.123594,0.989821
2011-09-26T15:03:04.026285,10220,0.093485,-0.451145,-15.022812,0.064629,-0.123314,0.990311
2011-09-26T15:03:04.036285,10230,0.064401,-0.489750,-15.050075,0.065297,-0.123033,0.990801
2011-09-26T15:03:04.046285,10240,0.035317,-0.528356,-15.077338,0.065966,-0.122753,0.991290
2011-09-26T15:03:04.056285,10250,0.006233,-0.566961,-15.104600,0.066635,-0.122472,0.991780
2011-09-26T15:03:04.066285,10260,-0.022851,-0.605567,-15.131863,0.067303,-0.122191,0.992270
2011-09-26T15:03:04.076285,10270,-0.190435,-0.623985,-15.131044,0.067590,-0.122553,0.991235
2011-09-26T15:03:04.086285,10280,-0.363550,-0.641598,-15.129104,0.067862,-0.122941,0.990139
2011-09-26T15:03:04.096285,10290,-0.536665,-0.659210,-15.127163,0.068133,-0.123328,0.989042
2011-09-26T15:03:04.106285,10300,-0.709780,-0.676823,-15.125223,0.068405,-0.123715,0.987946
2011-09-26T15:03:04.116285,10310,-0.882895,-0.694435,-15.123282,0.068676,-0.124103,0.986850
2011-09-26T15:03:04.126285,10320,-1.056010,-0.712048,-15.121341,0.068948,-0.124490,0.985754
2011-09-26T15:03:04.136285,10330,-1.229125,-0.729660,-15.119401,0.069219,-0.124878,0.984658
2011-09-26T15:03:04.146285,10340,-1.402240,-0.747273,-15.117460,0.069491,-0.125265,0.983561
2011-09-26T15:03:04.156285,10350,-1.575355,-0.764885,-15.115520,0.069762,-0.125652,0.982465
2011-09-26T15:03:04.166285,10360,-1.748470,-0.782497,-15.113579,0.070034,-0.126040,0.981369
2011-09-26T15:03:04.176285,10370,-1.692216,-0.771801,-15.141814,0.069709,-0.128242,0.984918
2011-09-26T15:03:04.186285,10380,-1.625553,-0.759820,-15.171417,0.069357,-0.130527,0.988678
2011-09-26T15:03:04.196285,10390,-1.558890,-0.747838,-15.201021,0.069005,-0.132811,0.992438
2011-09-26T15:03:04.206285,10400,-1.492228,-0.735857,-15.230624,0.068654,-0.135096,0.996198
2011-09-26T15:03:04.216285,10410,-1.425565,-0.723876,-15.260228,0.068302,-0.137380,0.999958
2011-09-26T15:03:04.226285,10420,-1.358902,-0.711895,-15.289831,0.067950,-0.139665,1.003718
2011-09-26T15:03:04.236285,10430,-1.292240,-0.699914,-15.319435,0.067598,-0.141949,1.007478
2011-09-26T15:03:04.246285,10440,-1.225577,-0.687932,-15.349039,0.067246,-0.144234,1.011238
2011-09-26T15:03:04.256285,10450,-1.158914,-0.675951,-15.378642,0.066894,-0.146519,1.014998
2011-09-26T15:03:04.266285,10460,-1.092251,-0.663970,-15.408246,0.066542,-0.148803,1.018758
2011-09-26T15:03:04.276285,10470,-1.025589,-0.651989,-15.437849,0.066190,-0.151088,1.022518
2011-09-26T15:03:04.286285,10480,-0.991985,-0.616863,-15.435863,0.066817,-0.152622,1.022263
2011-09-26T15:03:04.296285,10490,-0.960243,-0.580434,-15.432098,0.067498,-0.154114,1.021781
2011-09-26T15:03:04.306285,10500,-0.928501,-0.544005,-15.428333,0.068179,-0.155606,1.021299
2011-09-26T15:03:04.316285,10510,-0.896759,-0.507575,-15.424568,0.068861,-0.157098,1.020817
2011-09-26T15:03:04.326285,10520,-0.865017,-0.471146,-15.420803,0.069542,-0.158590,1.020335
2011-09-26T15:03:04.336285,10530,-0.833275,-0.434717,-15.417038,0.070223,-0.160082,1.019853
2011-09-26T15:03:04.346285,10540,-0.801533,-0.398288,-15.413273,0.070905,-0.161574,1.019371
2011-09-26T15:03:04.356285,10550,-0.769791,-0.361858,-15.409507,0.071586,-0.163067,1.018889
2011-09-26T15:03:04.366285,10560,-0.738049,-0.325429,-15.405742,0.072268,-0.164559,1.018407
2011-09-26T15:03:04.376285,10570,-0.706308,-0.289000,-15.401977,0.072949,-0.166051,1.017925
2011-09-26T15:03:04.386285,10580,-0.586556,-0.195242,-15.381889,0.072538,-0.165249,1.016892
2011-09-26T15:03:04.396285,10590,-0.461465,-0.098005,-15.360810,0.072061,-0.164309,1.015826
2011-09-26T15:03:04.406285,10600,-0.336374,-0.000768,-15.339731,0.071584,-0.163369,1.014760
2011-09-26T15:03:04.416285,10610,-0.211282,0.096468,-15.318652,0.071106,-0.162429,1.013694
2011-09-26T15:03:04.426285,10620,-0.086191,0.193705,-15.297573,0.070629,-0.161488,1.012628
2011-09-26T15:03:04.436285,10630,0.038900,0.290942,-15.276494,0.070152,-0.160548,1.011562
2011-09-26T15:03:04.446285,10640,0.163991,0.388178,-15.255415,0.069675,-0.159608,1.010496
2011-09-26T15:03:04.456285,10650,0.289082,0.485415,-15.234336,0.069198,-0.158668,1.009430
2011-09-26T15:03:04.466285,10660,0.414174,0.582652,-15.213257,0.068721,-0.157727,1.008364
2011-09-26T15:03:04.476285,10670,0.539265,0.679888,-15.192178,0.068243,-0.156787,1.007298
2011-09-26T15:03:04.486285,10680,0.469988,0.689307,-15.141555,0.067560,-0.153999,1.005994
2011-09-26T15:03:04.496285,10690,0.389742,0.693770,-15.089264,0.066864,-0.151106,1.004676
2011-09-26T15:03:04.506285,10700,0.309497,0.698233,-15.036974,0.066169,-0.148213,1.003359
2011-09-26T15:03:04.516285,10710,0.229251,0.702696,-14.984683,0.065473,-0.145320,1.002041
2011-09-26T15:03:04.526285,10720,0.149006,0.707159,-14.932393,0.064778,-0.142428,1.000724
2011-09-26T15:03:04.536285,10730,0.068760,0.711622,-14.880102,0.064082,-0.139535,0.999406
2011-09-26T15:03:04.546285,10740,-0.011485,0.716084,-14.827811,0.063387,-0.136642,0.998089
2011-09-26T15:03:04.556285,10750,-0.091731,0.720547,-14.775521,0.062692,-0.133750,0.996771
2011-09-26T15:03:04.566285,10760,-0.171977,0.725010,-14.723230,0.061996,-0.130857,0.995454
2011-09-26T15:03:04.576285,10770,-0.252222,0.729473,-14.670940,0.061301,-0.127964,0.994136
2011-09-26T15:03:04.586285,10780,-0.332468,0.733936,-14.618649,0.060605,-0.125071,0.992819
2011-09-26T15:03:04.596285,10790,-0.317128,0.739203,-14.555943,0.059985,-0.127596,0.994441
2011-09-26T15:03:04.606285,10800,-0.295503,0.744523,-14.492553,0.059370,-0.130477,0.996256
2011-09-26T15:03:04.616285,10810,-0.273879,0.749842,-14.429162,0.058755,-0.133358,0.998071
2011-09-26T15:03:04.626285,10820,-0.252254,0.755162,-14.365772,0.058141,-0.136240,0.999886
2011-09-26T15:03:04.636285,10830,-0.230630,0.760482,-14.302381,0.057526,-0.139121,1.001702
2011-09-26T15:03:04.646285,10840,-0.209005,0.765801,-14.238991,0.056911,-0.142002,1.003517
2011-09-26T15:03:04.656285,10850,-0.187380,0.771121,-14.175600,0.056296,-0.144883,1.005332
2011-09-26T15:03:04.666285,10860,-0.165756,0.776440,-14.112210,0.055681,-0.147764,1.007147
2011-09-26T15:03:04.676285,10870,-0.144131,0.781760,-14.048819,0.055066,-0.150645,1.008963
2011-09-26T15:03:04.686285,10880,-0.122507,0.787080,-13.985429,0.054451,-0.153526,1.010778
2011-09-26T15:03:04.696285,10890,-0.091477,0.777443,-13.844796,0.054115,-0.152776,1.008592
2011-09-26T15:03:04.706285,10900,-0.059890,0.766919,-13.699581,0.053795,-0.151811,1.006168
2011-09-26T15:03:04.716285,10910,-0.028303,0.756395,-13.554366,0.053475,-0.150845,1.003745
2011-09-26T15:03:04.726285,10920,0.003285,0.745871,-13.409151,0.053156,-0.149879,1.001321
2011-09-26T15:03:04.736285,10930,0.034872,0.735347,-13.263936,0.052836,-0.148914,0.998897
2011-09-26T15:03:04.746285,10940,0.066460,0.724824,-13.118721,0.052516,-0.147948,0.996474
2011-09-26T15:03:04.756285,10950,0.098047,0.714300,-12.973506,0.052196,-0.146983,0.994050
2011-09-26T15:03:04.766285,10960,0.129634,0.703776,-12.828290,0.051876,-0.146017,0.991627
2011-09-26T15:03:04.776285,10970,0.161222,0.693252,-12.683075,0.051557,-0.145051,0.989203
2011-09-26T15:03:04.786285,10980,0.192809,0.682728,-12.537860,0.051237,-0.144086,0.986780
2011-09-26T15:03:04.796285,10990,0.276543,0.628297,-12.423535,0.050913,-0.141847,0.985858
2011-09-26T15:03:04.806285,11000,0.362620,0.571892,-12.310599,0.050589,-0.139551,0.985003
2011-09-26T15:03:04.816285,11010,0.448697,0.515488,-12.197662,0.050265,-0.137255,0.984148
2011-09-26T15:03:04.826285,11020,0.534775,0.459083,-12.084726,0.049941,-0.134959,0.983294
2011-09-26T15:03:04.836285,11030,0.620852,0.402678,-11.971789,0.049616,-0.132662,0.982439
2011-09-26T15:03:04.846285,11040,0.706929,0.346274,-11.858853,0.049292,-0.130366,0.981585
2011-09-26T15:03:04.856285,11050,0.793006,0.289869,-11.745916,0.048968,-0.128070,0.980730
2011-09-26T15:03:04.866285,11060,0.879084,0.233464,-11.632980,0.048644,-0.125774,0.979875
2011-09-26T15:03:04.876285,11070,0.965161,0.177060,-11.520043,0.048320,-0.123478,0.979021
2011-09-26T15:03:04.886285,11080,1.051238,0.120655,-11.407107,0.047996,-0.121182,0.978166
2011-09-26T15:03:04.896285,11090,1.137316,0.064250,-11.294170,0.047672,-0.118886,0.977312
2011-09-26T15:03:04.906285,11100,1.124859,0.019894,-11.136506,0.047661,-0.117140,0.980535
2011-09-26T15:03:04.916285,11110,1.108403,-0.023974,-10.977027,0.047663,-0.115416,0.983925
2011-09-26T15:03:04.926285,11120,1.091947,-0.067842,-10.817547,0.047665,-0.113693,0.987314
2011-09-26T15:03:04.936285,11130,1.075490,-0.111710,-10.658067,0.047667,-0.111969,0.990704
2011-09-26T15:03:04.946285,11140,1.059034,-0.155578,-10.498588,0.047669,-0.110246,0.994093
2011-09-26T15:03:04.956285,11150,1.042577,-0.199445,-10.339108,0.047671,-0.108522,0.997483
2011-09-26T15:03:04.966285,11160,1.026121,-0.243313,-10.179628,0.047673,-0.106799,1.000872
2011-09-26T15:03:04.976285,11170,1.009664,-0.287181,-10.020149,0.047676,-0.105075,1.004261
2011-09-26T15:03:04.986285,11180,0.993208,-0.331049,-9.860669,0.047678,-0.103352,1.007651
2011-09-26T15:03:04.996285,11190,0.976751,-0.374916,-9.701189,0.047680,-0.101628,1.011040
2011-09-26T15:03:05.006285,11200,1.019636,-0.384144,-9.512743,0.048024,-0.099809,1.009887
2011-09-26T15:03:05.016285,11210,1.065213,-0.391799,-9.322983,0.048384,-0.097985,1.008527
2011-09-26T15:03:05.026285,11220,1.110791,-0.399454,-9.133223,0.048744,-0.096161,1.007167
2011-09-26T15:03:05.036285,11230,1.156368,-0.407109,-8.943463,0.049103,-0.094338,1.005807
2011-09-26T15:03:05.046285,11240,1.201945,-0.414765,-8.753702,0.049463,-0.092514,1.004447
2011-09-26T15:03:05.056285,11250,1.247523,-0.422420,-8.563942,0.049823,-0.090690,1.003087
2011-09-26T15:03:05.066285,11260,1.293100,-0.430075,-8.374182,0.050183,-0.088867,1.001727
2011-09-26T15:03:05.076285,11270,1.338677,-0.437730,-8.184421,0.050542,-0.087043,1.000368
2011-09-26T15:03:05.086285,11280,1.384255,-0.445385,-7.994661,0.050902,-0.085219,0.999008
2011-09-26T15:03:05.096285,11290,1.429832,-0.453041,-7.804901,0.051262,-0.083395,0.997648
2011-09-26T15:03:05.106285,11300,1.401593,-0.423219,-7.614693,0.051515,-0.080234,0.997879
2011-09-26T15:03:05.116285,11310,1.368659,-0.391013,-7.424456,0.051762,-0.076987,0.998212
2011-09-26T15:03:05.126285,11320,1.335724,-0.358807,-7.234219,0.052008,-0.073740,0.998544
2011-09-26T15:03:05.136285,11330,1.302789,-0.326601,-7.043983,0.052254,-0.070493,0.998877
2011-09-26T15:03:05.146285,11340,1.269854,-0.294395,-6.853746,0.052501,-0.067246,0.999210
2011-09-26T15:03:05.156285,11350,1.236919,-0.262188,-6.663509,0.052747,-0.063999,0.999542
2011-09-26T15:03:05.166285,11360,1.203984,-0.229982,-6.473273,0.052994,-0.060752,0.999875
2011-09-26T15:03:05.176285,11370,1.171049,-0.197776,-6.283036,0.053240,-0.057505,1.000208
2011-09-26T15:03:05.186285,11380,1.138114,-0.165570,-6.092800,0.053487,-0.054258,1.000540
2011-09-26T15:03:05.196285,11390,1.105179,-0.133364,-5.902563,0.053733,-0.051011,1.000873
2011-09-26T15:03:05.206285,11400,1.072245,-0.101158,-5.712326,0.053980,-0.047765,1.001206
2011-09-26T15:03:05.216285,11410,1.061389,-0.070874,-5.539948,0.053749,-0.045904,1.000940
2011-09-26T15:03:05.226285,11420,1.051644,-0.040686,-5.368468,0.053494,-0.044112,1.000644
2011-09-26T15:03:05.236285,11430,1.041899,-0.010498,-5.196988,0.053239,-0.042321,1.000349
2011-09-26T15:03:05.246285,11440,1.032154,0.019689,-5.025509,0.052985,-0.040530,1.000053
2011-09-26T15:03:05.256285,11450,1.022409,0.049877,-4.854029,0.052730,-0.038739,0.999757
2011-09-26T15:03:05.266285,11460,1.012664,0.080065,-4.682549,0.052475,-0.036947,0.999462
2011-09-26T15:03:05.276285,11470,1.002919,0.110252,-4.511069,0.052220,-0.035156,0.999166
2011-09-26T15:03:05.286285,11480,0.993174,0.140440,-4.339589,0.051966,-0.033365,0.998870
2011-09-26T15:03:05.296285,11490,0.983429,0.170627,-4.168110,0.051711,-0.031574,0.998574
2011-09-26T15:03:05.306285,11500,0.973684,0.200815,-3.996630,0.051456,-0.029782,0.998279
2011-09-26T15:03:05.316285,11510,0.969394,0.261317,-3.866556,0.052413,-0.027127,1.000075
2011-09-26T15:03:05.326285,11520,0.965363,0.323254,-3.738443,0.053428,-0.024431,1.001970
2011-09-26T15:03:05.336285,11530,0.961331,0.385191,-3.610330,0.054442,-0.021734,1.003865
2011-09-26T15:03:05.346285,11540,0.957299,0.447128,-3.482216,0.055456,-0.019038,1.005760
2011-09-26T15:03:05.356285,11550,0.953268,0.509065,-3.354103,0.056471,-0.016342,1.007655
2011-09-26T15:03:05.366285,11560,0.949236,0.571002,-3.225990,0.057485,-0.013645,1.009550
2011-09-26T15:03:05.376285,11570,0.945205,0.632939,-3.097877,0.058500,-0.010949,1.011446
2011-09-26T15:03:05.386285,11580,0.941173,0.694876,-2.969764,0.059514,-0.008253,1.013341
2011-09-26T15:03:05.396285,11590,0.937142,0.756813,-2.841650,0.060529,-0.005556,1.015236
2011-09-26T15:03:05.406285,11600,0.933110,0.818750,-2.713537,0.061543,-0.002860,1.017131
2011-09-26T15:03:05.416285,11610,0.892910,0.898214,-2.664171,0.060808,-0.001522,1.015090
2011-09-26T15:03:05.426285,11620,0.851049,0.978483,-2.618420,0.059992,-0.000247,1.012868
2011-09-26T15:03:05.436285,11630,0.809188,1.058752,-2.572669,0.059176,0.001028,1.010646
2011-09-26T15:03:05.446285,11640,0.767328,1.139021,-2.526919,0.058360,0.002303,1.008424
2011-09-26T15:03:05.456285,11650,0.725467,1.219289,-2.481168,0.057544,0.003578,1.006203
2011-09-26T15:03:05.466285,11660,0.683606,1.299558,-2.435417,0.056728,0.004854,1.003981
2011-09-26T15:03:05.476285,11670,0.641745,1.379827,-2.389666,0.055912,0.006129,1.001759
2011-09-26T15:03:05.486285,11680,0.599884,1.460095,-2.343916,0.055097,0.007404,0.999537
2011-09-26T15:03:05.496285,11690,0.558023,1.540364,-2.298165,0.054281,0.008679,0.997316
2011-09-26T15:03:05.506285,11700,0.516162,1.620633,-2.252414,0.053465,0.009954,0.995094
2011-09-26T15:03:05.516285,11710,0.474302,1.700902,-2.206663,0.052649,0.011230,0.992872
2011-09-26T15:03:05.526285,11720,0.444492,1.653385,-2.197056,0.051826,0.012002,0.992600
2011-09-26T15:03:05.536285,11730,0.415270,1.599635,-2.189211,0.051002,0.012749,0.992424
2011-09-26T15:03:05.546285,11740,0.386049,1.545886,-2.181366,0.050178,0.013497,0.992247
2011-09-26T15:03:05.556285,11750,0.356827,1.492136,-2.173521,0.049355,0.014245,0.992071
2011-09-26T15:03:05.566285,11760,0.327606,1.438386,-2.165677,0.048531,0.014992,0.991894
2011-09-26T15:03:05.576285,11770,0.298384,1.384637,-2.157832,0.047707,0.015740,0.991718
2011-09-26T15:03:05.586285,11780,0.269162,1.330887,-2.149987,0.046884,0.016487,0.991542
2011-09-26T15:03:05.596285,11790,0.239941,1.277138,-2.142142,0.046060,0.017235,0.991365
2011-09-26T15:03:05.606285,11800,0.210719,1.223388,-2.134298,0.045236,0.017983,0.991189
2011-09-26T15:03:05.616285,11810,0.181497,1.169638,-2.126453,0.044413,0.018730,0.991012
2011-09-26T15:03:05.626285,11820,0.159738,1.049243,-2.141403,0.044105,0.018292,0.990041
2011-09-26T15:03:05.636285,11830,0.138499,0.924190,-2.157947,0.043834,0.017770,0.989014
2011-09-26T15:03:05.646285,11840,0.117261,0.799136,-2.174491,0.043563,0.017248,0.987988
2011-09-26T15:03:05.656285,11850,0.096023,0.674083,-2.191035,0.043292,0.016727,0.986961
2011-09-26T15:03:05.666285,11860,0.074785,0.549030,-2.207579,0.043021,0.016205,0.985935
2011-09-26T15:03:05.676285,11870,0.053547,0.423976,-2.224122,0.042750,0.015684,0.984908
2011-09-26T15:03:05.686285,11880,0.032309,0.298923,-2.240666,0.042479,0.015162,0.983881
2011-09-26T15:03:05.696285,11890,0.011071,0.173869,-2.257210,0.042208,0.014641,0.982855
2011-09-26T15:03:05.706285,11900,-0.010167,0.048816,-2.273754,0.041937,0.014119,0.981828
2011-09-26T15:03:05.716285,11910,-0.031405,-0.076238,-2.290297,0.041665,0.013598,0.980802
2011-09-26T15:03:05.726285,11920,0.011570,-0.219041,-2.290165,0.042018,0.011156,0.978204
2011-09-26T15:03:05.736285,11930,0.057783,-0.362739,-2.289192,0.042402,0.008618,0.975526
2011-09-26T15:03:05.746285,11940,0.103995,-0.506438,-2.288218,0.042786,0.006079,0.972849
2011-09-26T15:03:05.756285,11950,0.150208,-0.650136,-2.287245,0.043170,0.003541,0.970172
2011-09-26T15:03:05.766285,11960,0.196420,-0.793834,-2.286272,0.043554,0.001003,0.967495
2011-09-26T15:03:05.776285,11970,0.242633,-0.937533,-2.285299,0.043938,-0.001536,0.964818
2011-09-26T15:03:05.786285,11980,0.288845,-1.081231,-2.284325,0.044322,-0.004074,0.962140
2011-09-26T15:03:05.796285,11990,0.335058,-1.224929,-2.283352,0.044706,-0.006613,0.959463
2011-09-26T15:03:05.806285,12000,0.381270,-1.368627,-2.282379,0.045090,-0.009151,0.956786
2011-09-26T15:03:05.816285,12010,0.427483,-1.512326,-2.281406,0.045474,-0.011689,0.954109
2011-09-26T15:03:05.826285,12020,0.473696,-1.656024,-2.280432,0.045858,-0.014228,0.951431
2011-09-26T15:03:05.836285,12030,0.498884,-1.701239,-2.254250,0.047220,-0.011979,0.956036
2011-09-26T15:03:05.846285,12040,0.522992,-1.741390,-2.226772,0.048632,-0.009485,0.961016
2011-09-26T15:03:05.856285,12050,0.547099,-1.781542,-2.199294,0.050045,-0.006991,0.965995
2011-09-26T15:03:05.866285,12060,0.571207,-1.821693,-2.171816,0.051457,-0.004497,0.970975
2011-09-26T15:03:05.876285,12070,0.595314,-1.861844,-2.144337,0.052870,-0.002003,0.975954
2011-09-26T15:03:05.886285,12080,0.619422,-1.901996,-2.116859,0.054282,0.000492,0.980933
2011-09-26T15:03:05.896285,12090,0.643529,-1.942147,-2.089381,0.055695,0.002986,0.985913
2011-09-26T15:03:05.906285,12100,0.667637,-1.982298,-2.061903,0.057107,0.005480,0.990892
2011-09-26T15:03:05.916285,12110,0.691744,-2.022450,-2.034424,0.058520,0.007974,0.995872
2011-09-26T15:03:05.926285,12120,0.715852,-2.062601,-2.006946,0.059932,0.010469,1.000851
2011-09-26T15:03:05.936285,12130,0.675233,-1.942813,-2.028994,0.060701,0.011409,1.005140
2011-09-26T15:03:05.946285,12140,0.631392,-1.815064,-2.053507,0.061438,0.012272,1.009394
2011-09-26T15:03:05.956285,12150,0.587551,-1.687315,-2.078019,0.062174,0.013136,1.013649
2011-09-26T15:03:05.966285,12160,0.543710,-1.559566,-2.102532,0.062911,0.013999,1.017903
2011-09-26T15:03:05.976285,12170,0.499869,-1.431818,-2.127045,0.063648,0.014862,1.022158
2011-09-26T15:03:05.986285,12180,0.456028,-1.304069,-2.151558,0.064385,0.015725,1.026412
2011-09-26T15:03:05.996285,12190,0.412187,-1.176320,-2.176070,0.065121,0.016589,1.030667
2011-09-26T15:03:06.006285,12200,0.368346,-1.048571,-2.200583,0.065858,0.017452,1.034921
2011-09-26T15:03:06.016285,12210,0.324505,-0.920822,-2.225096,0.066595,0.018315,1.039176
2011-09-26T15:03:06.026285,12220,0.280664,-0.793074,-2.249609,0.067332,0.019178,1.043430
2011-09-26T15:03:06.036285,12230,0.236823,-0.665325,-2.274121,0.068069,0.020042,1.047685
2011-09-26T15:03:06.046285,12240,0.179309,-0.521509,-2.267961,0.067151,0.019085,1.049132
2011-09-26T15:03:06.056285,12250,0.121203,-0.376998,-2.260472,0.066162,0.018050,1.050458
2011-09-26T15:03:06.066285,12260,0.063097,-0.232486,-2.252983,0.065173,0.017015,1.051784
2011-09-26T15:03:06.076285,12270,0.004990,-0.087975,-2.245494,0.064184,0.015980,1.053110
2011-09-26T15:03:06.086285,12280,-0.053116,0.056537,-2.238005,0.063195,0.014945,1.054436
2011-09-26T15:03:06.096285,12290,-0.111222,0.201048,-2.230517,0.062206,0.013910,1.055762
2011-09-26T15:03:06.106285,12300,-0.169328,0.345560,-2.223028,0.061217,0.012875,1.057088
2011-09-26T15:03:06.116285,12310,-0.227434,0.490071,-2.215539,0.060228,0.011840,1.058414
2011-09-26T15:03:06.126285,12320,-0.285541,0.634583,-2.208050,0.059239,0.010805,1.059740
2011-09-26T15:03:06.136285,12330,-0.343647,0.779094,-2.200561,0.058250,0.009770,1.061066
2011-09-26T15:03:06.146285,12340,-0.399130,0.783339,-2.188149,0.057304,0.011082,1.054225
2011-09-26T15:03:06.156285,12350,-0.454439,0.778280,-2.175411,0.056361,0.012550,1.046843
2011-09-26T15:03:06.166285,12360,-0.509747,0.773221,-2.162672,0.055417,0.014018,1.039461
2011-09-26T15:03:06.176285,12370,-0.565056,0.768162,-2.149933,0.054474,0.015487,1.032078
2011-09-26T15:03:06.186285,12380,-0.620365,0.763103,-2.137195,0.053530,0.016955,1.024696
2011-09-26T15:03:06.196285,12390,-0.675674,0.758044,-2.124456,0.052587,0.018423,1.017314
2011-09-26T15:03:06.206285,12400,-0.730983,0.752984,-2.111717,0.051644,0.019891,1.009932
2011-09-26T15:03:06.216285,12410,-0.786292,0.747925,-2.098978,0.050700,0.021359,1.002549
2011-09-26T15:03:06.226285,12420,-0.841601,0.742866,-2.086240,0.049757,0.022827,0.995167
2011-09-26T15:03:06.236285,12430,-0.896909,0.737807,-2.073501,0.048814,0.024296,0.987785
2011-09-26T15:03:06.246285,12440,-0.884330,0.610131,-2.075305,0.047997,0.022216,0.984197
2011-09-26T15:03:06.256285,12450,-0.868656,0.476865,-2.077772,0.047185,0.019976,0.980783
2011-09-26T15:03:06.266285,12460,-0.852982,0.343599,-2.080239,0.046374,0.017735,0.977368
2011-09-26T15:03:06.276285,12470,-0.837307,0.210333,-2.082707,0.045563,0.015494,0.973954
2011-09-26T15:03:06.286285,12480,-0.821633,0.077067,-2.085174,0.044752,0.013253,0.970539
2011-09-26T15:03:06.296285,12490,-0.805959,-0.056199,-2.087641,0.043940,0.011012,0.967125
2011-09-26T15:03:06.306285,12500,-0.790285,-0.189465,-2.090108,0.043129,0.008771,0.963711
2011-09-26T15:03:06.316285,12510,-0.774610,-0.322731,-2.092575,0.042318,0.006530,0.960296
2011-09-26T15:03:06.326285,12520,-0.758936,-0.455998,-2.095042,0.041507,0.004289,0.956882
2011-09-26T15:03:06.336285,12530,-0.743262,-0.589264,-2.097509,0.040696,0.002049,0.953467
2011-09-26T15:03:06.346285,12540,-0.727587,-0.722530,-2.099976,0.039884,-0.000192,0.950053
2011-09-26T15:03:06.356285,12550,-0.691045,-0.812929,-2.080865,0.040260,-0.000357,0.953741
2011-09-26T15:03:06.366285,12560,-0.653431,-0.901129,-2.060647,0.040696,-0.000415,0.957793
2011-09-26T15:03:06.376285,12570,-0.615818,-0.989328,-2.040429,0.041132,-0.000474,0.961845
2011-09-26T15:03:06.386285,12580,-0.578204,-1.077528,-2.020210,0.041568,-0.000532,0.965898
2011-09-26T15:03:06.396285,12590,-0.540591,-1.165728,-1.999992,0.042005,-0.000590,0.969950
2011-09-26T15:03:06.406285,12600,-0.502977,-1.253928,-1.979774,0.042441,-0.000648,0.974002
2011-09-26T15:03:06.416285,12610,-0.465364,-1.342127,-1.959556,0.042877,-0.000707,0.978055
2011-09-26T15:03:06.426285,12620,-0.427750,-1.430327,-1.939337,0.043313,-0.000765,0.982107
2011-09-26T15:03:06.436285,12630,-0.390137,-1.518527,-1.919119,0.043750,-0.000823,0.986159
2011-09-26T15:03:06.446285,12640,-0.352523,-1.606727,-1.898901,0.044186,-0.000881,0.990211
2011-09-26T15:03:06.456285,12650,-0.314292,-1.568974,-1.904224,0.045265,-0.000166,0.994481
2011-09-26T15:03:06.466285,12660,-0.276028,-1.524786,-1.910853,0.046377,0.000590,0.998762
2011-09-26T15:03:06.476285,12670,-0.237765,-1.480598,-1.917481,0.047489,0.001345,1.003043
2011-09-26T15:03:06.486285,12680,-0.199502,-1.436410,-1.924110,0.048601,0.002101,1.007324
2011-09-26T15:03:06.496285,12690,-0.161239,-1.392222,-1.930738,0.049713,0.002856,1.011605
2011-09-26T15:03:06.506285,12700,-0.122975,-1.348035,-1.937367,0.050825,0.003612,1.015886
2011-09-26T15:03:06.516285,12710,-0.084712,-1.303847,-1.943995,0.051937,0.004367,1.020167
2011-09-26T15:03:06.526285,12720,-0.046449,-1.259659,-1.950624,0.053049,0.005122,1.024448
2011-09-26T15:03:06.536285,12730,-0.008185,-1.215471,-1.957252,0.054161,0.005878,1.028729
2011-09-26T15:03:06.546285,12740,0.030078,-1.171283,-1.963880,0.055273,0.006633,1.033009
2011-09-26T15:03:06.556285,12750,0.025378,-1.042097,-1.954428,0.055738,0.005324,1.033543
2011-09-26T15:03:06.566285,12760,0.018440,-0.908484,-1.944138,0.056168,0.003906,1.033881
2011-09-26T15:03:06.576285,12770,0.011502,-0.774871,-1.933847,0.056599,0.002489,1.034219
2011-09-26T15:03:06.586285,12780,0.004564,-0.641257,-1.923557,0.057029,0.001072,1.034557
2011-09-26T15:03:06.596285,12790,-0.002374,-0.507644,-1.913267,0.057460,-0.000345,1.034895
2011-09-26T15:03:06.606285,12800,-0.009312,-0.374031,-1.902977,0.057891,-0.001762,1.035233
2011-09-26T15:03:06.616285,12810,-0.016249,-0.240417,-1.892687,0.058321,-0.003179,1.035571
2011-09-26T15:03:06.626285,12820,-0.023187,-0.106804,-1.882396,0.058752,-0.004596,1.035909
2011-09-26T15:03:06.636285,12830,-0.030125,0.026809,-1.872106,0.059182,-0.006013,1.036247
2011-09-26T15:03:06.646285,12840,-0.037063,0.160423,-1.861816,0.059613,-0.007431,1.036585
2011-09-26T15:03:06.656285,12850,-0.044001,0.294036,-1.851526,0.060044,-0.008848,1.036924
2011-09-26T15:03:06.666285,12860,-0.046754,0.367342,-1.840190,0.058807,-0.008215,1.033633
2011-09-26T15:03:06.676285,12870,-0.049267,0.437205,-1.828794,0.057476,-0.007465,1.030135
2011-09-26T15:03:06.686285,12880,-0.051781,0.507068,-1.817398,0.056144,-0.006716,1.026637
2011-09-26T15:03:06.696285,12890,-0.054294,0.576931,-1.806003,0.054813,-0.005966,1.023139
2011-09-26T15:03:06.706285,12900,-0.056808,0.646794,-1.794607,0.053481,-0.005216,1.019641
2011-09-26T15:03:06.716285,12910,-0.059321,0.716658,-1.783211,0.052150,-0.004467,1.016144
2011-09-26T15:03:06.726285,12920,-0.061835,0.786521,-1.771816,0.050818,-0.003717,1.012646
2011-09-26T15:03:06.736285,12930,-0.064348,0.856384,-1.760420,0.049487,-0.002967,1.009148
2011-09-26T15:03:06.746285,12940,-0.066862,0.926247,-1.749024,0.048155,-0.002217,1.005650
2011-09-26T15:03:06.756285,12950,-0.069375,0.996110,-1.737629,0.046824,-0.001468,1.002152
2011-09-26T15:03:06.766285,12960,-0.071888,1.065973,-1.726233,0.045492,-0.000718,0.998654
2011-09-26T15:03:06.776285,12970,-0.074402,1.135836,-1.714838,0.044161,0.000032,0.995157
2011-09-26T15:03:06.786285,12980,-0.076915,1.205698,-1.703442,0.042829,0.000781,0.991659
2011-09-26T15:03:06.796285,12990,-0.079429,1.275561,-1.692047,0.041498,0.001531,0.988161
2011-09-26T15:03:06.806285,13000,-0.081942,1.345424,-1.680651,0.040166,0.002281,0.984663
2011-09-26T15:03:06.816285,13010,-0.084456,1.415286,-1.669255,0.038835,0.003030,0.981165
2011-09-26T15:03:06.826285,13020,-0.086969,1.485149,-1.657860,0.037503,0.003780,0.977668
2011-09-26T15:03:06.836285,13030,-0.089483,1.555012,-1.646464,0.036172,0.004530,0.974170
2011-09-26T15:03:06.846285,13040,-0.091996,1.624874,-1.635069,0.034840,0.005280,0.970672
2011-09-26T15:03:06.856285,13050,-0.094510,1.694737,-1.623673,0.033508,0.006029,0.967174
2011-09-26T15:03:06.866285,13060,-0.064402,1.525390,-1.585206,0.033065,0.006333,0.967857
2011-09-26T15:03:06.876285,13070,-0.032551,1.343266,-1.545293,0.032668,0.006613,0.968764
2011-09-26T15:03:06.886285,13080,-0.000701,1.161141,-1.505379,0.032271,0.006893,0.969670
2011-09-26T15:03:06.896285,13090,0.031150,0.979017,-1.465466,0.031875,0.007173,0.970577
2011-09-26T15:03:06.906285,13100,0.063001,0.796893,-1.425553,0.031478,0.007453,0.971483
2011-09-26T15:03:06.916285,13110,0.094851,0.614768,-1.385640,0.031082,0.007733,0.972390
2011-09-26T15:03:06.926285,13120,0.126702,0.432644,-1.345726,0.030685,0.008013,0.973296
2011-09-26T15:03:06.936285,13130,0.158552,0.250519,-1.305813,0.030289,0.008293,0.974203
2011-09-26T15:03:06.946285,13140,0.190403,0.068395,-1.265900,0.029892,0.008573,0.975109
2011-09-26T15:03:06.956285,13150,0.222254,-0.113729,-1.225987,0.029496,0.008853,0.976015
2011-09-26T15:03:06.966285,13160,0.254104,-0.295854,-1.186073,0.029099,0.009133,0.976922
2011-09-26T15:03:06.976285,13170,0.286993,-0.429648,-1.158506,0.029942,0.009316,0.975500
2011-09-26T15:03:06.986285,13180,0.319937,-0.560832,-1.131605,0.030852,0.009493,0.973952
2011-09-26T15:03:06.996285,13190,0.352882,-0.692017,-1.104704,0.031761,0.009670,0.972404
2011-09-26T15:03:07.006285,13200,0.385827,-0.823201,-1.077804,0.032671,0.009847,0.970856
2011-09-26T15:03:07.016285,13210,0.418771,-0.954385,-1.050903,0.033581,0.010024,0.969308
2011-09-26T15:03:07.026285,13220,0.451716,-1.085570,-1.024002,0.034491,0.010201,0.967760
2011-09-26T15:03:07.036285,13230,0.484660,-1.216754,-0.997101,0.035401,0.010378,0.966212
2011-09-26T15:03:07.046285,13240,0.517605,-1.347939,-0.970201,0.036310,0.010555,0.964665
2011-09-26T15:03:07.056285,13250,0.550550,-1.479123,-0.943300,0.037220,0.010732,0.963117
2011-09-26T15:03:07.066285,13260,0.583494,-1.610308,-0.916399,0.038130,0.010909,0.961569
2011-09-26T15:03:07.076285,13270,0.568482,-1.633723,-0.884010,0.039098,0.011517,0.966112
2011-09-26T15:03:07.086285,13280,0.550768,-1.651068,-0.851313,0.040070,0.012150,0.970999
2011-09-26T15:03:07.096285,13290,0.533055,-1.668413,-0.818615,0.041042,0.012782,0.975886
2011-09-26T15:03:07.106285,13300,0.515341,-1.685759,-0.785917,0.042014,0.013415,0.980773
2011-09-26T15:03:07.116285,13310,0.497628,-1.703104,-0.753220,0.042986,0.014047,0.985659
2011-09-26T15:03:07.126285,13320,0.479914,-1.720449,-0.720522,0.043958,0.014679,0.990546
2011-09-26T15:03:07.136285,13330,0.462201,-1.737794,-0.687824,0.044930,0.015312,0.995433
2011-09-26T15:03:07.146285,13340,0.444487,-1.755140,-0.655127,0.045901,0.015944,1.000319
2011-09-26T15:03:07.156285,13350,0.426774,-1.772485,-0.622429,0.046873,0.016577,1.005206
2011-09-26T15:03:07.166285,13360,0.409060,-1.789830,-0.589731,0.047845,0.017209,1.010093
2011-09-26T15:03:07.176285,13370,0.382935,-1.676052,-0.582378,0.048381,0.019193,1.013668
2011-09-26T15:03:07.186285,13380,0.356309,-1.554466,-0.576533,0.048891,0.021256,1.017164
2011-09-26T15:03:07.196285,13390,0.329683,-1.432881,-0.570689,0.049402,0.023320,1.020661
2011-09-26T15:03:07.206285,13400,0.303056,-1.311295,-0.564845,0.049912,0.025384,1.024157
2011-09-26T15:03:07.216285,13410,0.276430,-1.189709,-0.559000,0.050422,0.027448,1.027654
2011-09-26T15:03:07.226285,13420,0.249804,-1.068123,-0.553156,0.050932,0.029512,1.031151
2011-09-26T15:03:07.236285,13430,0.223178,-0.946537,-0.547312,0.051443,0.031575,1.034647
2011-09-26T15:03:07.246285,13440,0.196552,-0.824951,-0.541467,0.051953,0.033639,1.038144
2011-09-26T15:03:07.256285,13450,0.169925,-0.703365,-0.535623,0.052463,0.035703,1.041640
2011-09-26T15:03:07.266285,13460,0.143299,-0.581779,-0.529779,0.052973,0.037767,1.045137
2011-09-26T15:03:07.276285,13470,0.116673,-0.460193,-0.523934,0.053483,0.039830,1.048634
2011-09-26T15:03:07.286285,13480,0.075657,-0.351207,-0.515368,0.053120,0.038349,1.047548
2011-09-26T15:03:07.296285,13490,0.033806,-0.242953,-0.506644,0.052705,0.036661,1.046197
2011-09-26T15:03:07.306285,13500,-0.008046,-0.134699,-0.497920,0.052291,0.034974,1.044846
2011-09-26T15:03:07.316285,13510,-0.049897,-0.026445,-0.489197,0.051876,0.033286,1.043494
2011-09-26T15:03:07.326285,13520,-0.091749,0.081809,-0.480473,0.051462,0.031599,1.042143
2011-09-26T15:03:07.336285,13530,-0.133600,0.190063,-0.471749,0.051047,0.029911,1.040791
2011-09-26T15:03:07.346285,13540,-0.175452,0.298317,-0.463025,0.050633,0.028224,1.039440
