pc_time,ts_ms,gyroX,gyroY,gyroZ,accelX,accelY,accelZ
2011-09-26T14:05:36.012555,0,-1.136671,-1.685406,-24.698559,0.075817,-0.158298,1.056935
2011-09-26T14:05:36.022555,10,-1.188099,-1.598891,-24.681048,0.075297,-0.156885,1.053262
2011-09-26T14:05:36.032555,20,-1.239527,-1.512375,-24.663538,0.074777,-0.155473,1.049590
2011-09-26T14:05:36.042555,30,-1.290956,-1.425860,-24.646028,0.074256,-0.154061,1.045917
2011-09-26T14:05:36.052555,40,-1.342384,-1.339345,-24.628517,0.073736,-0.152648,1.042245
2011-09-26T14:05:36.062555,50,-1.393813,-1.252830,-24.611007,0.073215,-0.151236,1.038572
2011-09-26T14:05:36.072555,60,-1.445241,-1.166314,-24.593497,0.072695,-0.149823,1.034900
2011-09-26T14:05:36.082555,70,-1.496669,-1.079799,-24.575986,0.072175,-0.148411,1.031227
2011-09-26T14:05:36.092555,80,-1.548098,-0.993284,-24.558476,0.071654,-0.146999,1.027555
2011-09-26T14:05:36.102555,90,-1.599526,-0.906768,-24.540965,0.071134,-0.145586,1.023882
2011-09-26T14:05:36.112555,100,-1.650954,-0.820253,-24.523455,0.070614,-0.144174,1.020210
2011-09-26T14:05:36.122555,110,-1.702383,-0.733738,-24.505945,0.070093,-0.142762,1.016537
2011-09-26T14:05:36.132555,120,-1.742341,-0.678290,-24.579815,0.070244,-0.144152,1.018949
2011-09-26T14:05:36.142555,130,-1.782258,-0.622955,-24.654016,0.070396,-0.145552,1.021383
2011-09-26T14:05:36.152555,140,-1.822175,-0.567621,-24.728218,0.070549,-0.146953,1.023816
2011-09-26T14:05:36.162555,150,-1.862092,-0.512286,-24.802419,0.070702,-0.148353,1.026250
2011-09-26T14:05:36.172555,160,-1.902009,-0.456951,-24.876621,0.070854,-0.149754,1.028684
2011-09-26T14:05:36.182555,170,-1.941925,-0.401616,-24.950822,0.071007,-0.151154,1.031117
2011-09-26T14:05:36.192555,180,-1.981842,-0.346281,-25.025024,0.071160,-0.152554,1.033551
2011-09-26T14:05:36.202555,190,-2.021759,-0.290946,-25.099225,0.071312,-0.153955,1.035985
2011-09-26T14:05:36.212555,200,-2.061676,-0.235611,-25.173427,0.071465,-0.155355,1.038418
2011-09-26T14:05:36.222555,210,-2.101574,-0.180290,-25.247614,0.071617,-0.156758,1.040851
2011-09-26T14:05:36.232555,220,-2.109463,-0.149075,-25.297346,0.070358,-0.161481,1.041238
2011-09-26T14:05:36.242555,230,-2.117351,-0.117859,-25.347078,0.069099,-0.166205,1.041626
2011-09-26T14:05:36.252555,240,-2.125240,-0.086643,-25.396809,0.067840,-0.170929,1.042013
2011-09-26T14:05:36.262555,250,-2.133129,-0.055427,-25.446541,0.066581,-0.175653,1.042400
2011-09-26T14:05:36.272555,260,-2.141018,-0.024211,-25.496273,0.065322,-0.180376,1.042787
2011-09-26T14:05:36.282555,270,-2.148906,0.007004,-25.546005,0.064063,-0.185100,1.043175
2011-09-26T14:05:36.292555,280,-2.156795,0.038220,-25.595737,0.062804,-0.189824,1.043562
2011-09-26T14:05:36.302555,290,-2.164684,0.069436,-25.645469,0.061545,-0.194548,1.043949
2011-09-26T14:05:36.312555,300,-2.172573,0.100652,-25.695200,0.060286,-0.199271,1.044337
2011-09-26T14:05:36.322555,310,-2.180462,0.131868,-25.744932,0.059027,-0.203995,1.044724
2011-09-26T14:05:36.332555,320,-2.188350,0.163083,-25.794664,0.057768,-0.208719,1.045111
2011-09-26T14:05:36.342555,330,-1.822675,0.227843,-25.797721,0.057209,-0.212790,1.042465
2011-09-26T14:05:36.352555,340,-1.456359,0.292660,-25.800698,0.056652,-0.216860,1.039813
2011-09-26T14:05:36.362555,350,-1.090044,0.357477,-25.803675,0.056094,-0.220930,1.037162
2011-09-26T14:05:36.372555,360,-0.723729,0.422293,-25.806652,0.055536,-0.225000,1.034510
2011-09-26T14:05:36.382555,370,-0.357414,0.487110,-25.809629,0.054979,-0.229070,1.031859
2011-09-26T14:05:36.392555,380,0.008901,0.551927,-25.812606,0.054421,-0.233140,1.029207
2011-09-26T14:05:36.402555,390,0.375217,0.616744,-25.815583,0.053863,-0.237211,1.026556
2011-09-26T14:05:36.412555,400,0.741532,0.681561,-25.818559,0.053306,-0.241281,1.023904
2011-09-26T14:05:36.422555,410,1.107847,0.746378,-25.821536,0.052748,-0.245351,1.021253
2011-09-26T14:05:36.432555,420,1.474162,0.811194,-25.824513,0.052190,-0.249421,1.018601
2011-09-26T14:05:36.442555,430,1.562727,0.749870,-25.785991,0.053199,-0.245156,1.010714
2011-09-26T14:05:36.452555,440,1.645793,0.686049,-25.746648,0.054240,-0.240726,1.002724
2011-09-26T14:05:36.462555,450,1.728860,0.622229,-25.707304,0.055280,-0.236296,0.994733
2011-09-26T14:05:36.472555,460,1.811926,0.558408,-25.667961,0.056320,-0.231866,0.986742
2011-09-26T14:05:36.482555,470,1.894993,0.494587,-25.628618,0.057361,-0.227435,0.978752
2011-09-26T14:05:36.492555,480,1.978060,0.430766,-25.589274,0.058401,-0.223005,0.970761
2011-09-26T14:05:36.502555,490,2.061126,0.366945,-25.549931,0.059441,-0.218575,0.962770
2011-09-26T14:05:36.512555,500,2.144193,0.303124,-25.510587,0.060482,-0.214145,0.954780
2011-09-26T14:05:36.522555,510,2.227259,0.239303,-25.471244,0.061522,-0.209715,0.946789
2011-09-26T14:05:36.532555,520,2.310326,0.175482,-25.431900,0.062562,-0.205285,0.938799
2011-09-26T14:05:36.542555,530,2.310680,0.085216,-25.436625,0.062976,-0.199359,0.938174
2011-09-26T14:05:36.552555,540,2.310198,-0.005317,-25.441794,0.063383,-0.193418,0.937624
2011-09-26T14:05:36.562555,550,2.309716,-0.095850,-25.446964,0.063791,-0.187477,0.937074
2011-09-26T14:05:36.572555,560,2.309234,-0.186384,-25.452134,0.064198,-0.181536,0.936524
2011-09-26T14:05:36.582555,570,2.308752,-0.276917,-25.457304,0.064606,-0.175595,0.935974
2011-09-26T14:05:36.592555,580,2.308270,-0.367451,-25.462473,0.065013,-0.169654,0.935424
2011-09-26T14:05:36.602555,590,2.307788,-0.457984,-25.467643,0.065420,-0.163713,0.934874
2011-09-26T14:05:36.612555,600,2.307305,-0.548517,-25.472813,0.065828,-0.157772,0.934324
2011-09-26T14:05:36.622555,610,2.306823,-0.639051,-25.477983,0.066235,-0.151831,0.933774
2011-09-26T14:05:36.632555,620,2.306341,-0.729584,-25.483152,0.066643,-0.145890,0.933224
2011-09-26T14:05:36.642555,630,2.305859,-0.820118,-25.488322,0.067050,-0.139949,0.932674
2011-09-26T14:05:36.652555,640,1.851862,-0.835997,-25.409938,0.070100,-0.140250,0.937509
2011-09-26T14:05:36.662555,650,1.395080,-0.851418,-25.331041,0.073166,-0.140589,0.942377
2011-09-26T14:05:36.672555,660,0.938298,-0.866839,-25.252144,0.076232,-0.140929,0.947246
2011-09-26T14:05:36.682555,670,0.481515,-0.882261,-25.173247,0.079298,-0.141268,0.952114
2011-09-26T14:05:36.692555,680,0.024733,-0.897682,-25.094350,0.082364,-0.141607,0.956983
2011-09-26T14:05:36.702555,690,-0.432049,-0.913103,-25.015453,0.085430,-0.141946,0.961851
2011-09-26T14:05:36.712555,700,-0.888831,-0.928524,-24.936556,0.088496,-0.142286,0.966720
2011-09-26T14:05:36.722555,710,-1.345613,-0.943945,-24.857659,0.091562,-0.142625,0.971588
2011-09-26T14:05:36.732555,720,-1.802396,-0.959366,-24.778762,0.094628,-0.142964,0.976457
2011-09-26T14:05:36.742555,730,-2.259178,-0.974787,-24.699864,0.097694,-0.143303,0.981325
2011-09-26T14:05:36.752555,740,-2.295648,-0.935767,-24.567016,0.095214,-0.147899,0.990064
2011-09-26T14:05:36.762555,750,-2.329194,-0.896368,-24.433793,0.092695,-0.152525,0.998829
2011-09-26T14:05:36.772555,760,-2.362740,-0.856969,-24.300569,0.090176,-0.157150,1.007595
2011-09-26T14:05:36.782555,770,-2.396285,-0.817570,-24.167346,0.087657,-0.161776,1.016360
2011-09-26T14:05:36.792555,780,-2.429831,-0.778171,-24.034123,0.085138,-0.166402,1.025126
2011-09-26T14:05:36.802555,790,-2.463377,-0.738772,-23.900899,0.082619,-0.171027,1.033891
2011-09-26T14:05:36.812555,800,-2.496923,-0.699373,-23.767676,0.080100,-0.175653,1.042657
2011-09-26T14:05:36.822555,810,-2.530469,-0.659974,-23.634452,0.077582,-0.180278,1.051422
2011-09-26T14:05:36.832555,820,-2.564015,-0.620575,-23.501229,0.075063,-0.184904,1.060188
2011-09-26T14:05:36.842555,830,-2.597561,-0.581176,-23.368005,0.072544,-0.189529,1.068953
2011-09-26T14:05:36.852555,840,-2.298071,-0.606753,-23.233330,0.070205,-0.192001,1.067526
2011-09-26T14:05:36.862555,850,-1.997374,-0.632567,-23.098649,0.067867,-0.194465,1.066061
2011-09-26T14:05:36.872555,860,-1.696677,-0.658380,-22.963968,0.065528,-0.196928,1.064596
2011-09-26T14:05:36.882555,870,-1.395980,-0.684193,-22.829287,0.063190,-0.199392,1.063132
2011-09-26T14:05:36.892555,880,-1.095282,-0.710006,-22.694606,0.060852,-0.201856,1.061667
2011-09-26T14:05:36.902555,890,-0.794585,-0.735820,-22.559925,0.058514,-0.204320,1.060202
2011-09-26T14:05:36.912555,900,-0.493888,-0.761633,-22.425244,0.056176,-0.206783,1.058738
2011-09-26T14:05:36.922555,910,-0.193191,-0.787446,-22.290563,0.053838,-0.209247,1.057273
2011-09-26T14:05:36.932555,920,0.107506,-0.813260,-22.155883,0.051499,-0.211711,1.055808
2011-09-26T14:05:36.942555,930,0.408204,-0.839073,-22.021202,0.049161,-0.214175,1.054344
2011-09-26T14:05:36.952555,940,0.444871,-1.005189,-21.859172,0.049477,-0.210365,1.044177
2011-09-26T14:05:36.962555,950,0.480633,-1.171787,-21.697048,0.049801,-0.206533,1.033980
2011-09-26T14:05:36.972555,960,0.516394,-1.338385,-21.534924,0.050126,-0.202702,1.023783
2011-09-26T14:05:36.982555,970,0.552156,-1.504983,-21.372800,0.050450,-0.198871,1.013586
2011-09-26T14:05:36.992555,980,0.587918,-1.671581,-21.210676,0.050774,-0.195039,1.003389
2011-09-26T14:05:37.002555,990,0.623680,-1.838178,-21.048552,0.051099,-0.191208,0.993192
2011-09-26T14:05:37.012555,1000,0.659441,-2.004776,-20.886428,0.051423,-0.187377,0.982995
2011-09-26T14:05:37.022555,1010,0.695203,-2.171374,-20.724304,0.051748,-0.183545,0.972798
2011-09-26T14:05:37.032555,1020,0.730965,-2.337972,-20.562180,0.052072,-0.179714,0.962601
2011-09-26T14:05:37.042555,1030,0.766727,-2.504570,-20.400056,0.052397,-0.175882,0.952405
2011-09-26T14:05:37.052555,1040,0.802489,-2.671167,-20.237932,0.052721,-0.172051,0.942208
2011-09-26T14:05:37.062555,1050,1.049965,-3.020463,-20.059034,0.053449,-0.168470,0.938606
2011-09-26T14:05:37.072555,1060,1.303050,-3.374597,-19.879691,0.054188,-0.164896,0.935179
2011-09-26T14:05:37.082555,1070,1.556135,-3.728732,-19.700348,0.054927,-0.161322,0.931751
2011-09-26T14:05:37.092555,1080,1.809219,-4.082867,-19.521005,0.055665,-0.157747,0.928324
2011-09-26T14:05:37.102555,1090,2.062304,-4.437002,-19.341662,0.056404,-0.154173,0.924897
2011-09-26T14:05:37.112555,1100,2.315389,-4.791137,-19.162319,0.057143,-0.150599,0.921470
2011-09-26T14:05:37.122555,1110,2.568474,-5.145272,-18.982976,0.057881,-0.147025,0.918043
2011-09-26T14:05:37.132555,1120,2.821558,-5.499406,-18.803633,0.058620,-0.143450,0.914615
2011-09-26T14:05:37.142555,1130,3.074643,-5.853541,-18.624290,0.059359,-0.139876,0.911188
2011-09-26T14:05:37.152555,1140,3.327728,-6.207676,-18.444947,0.060097,-0.136302,0.907761
2011-09-26T14:05:37.162555,1150,2.898661,-6.265554,-18.286111,0.063902,-0.130394,0.918384
2011-09-26T14:05:37.172555,1160,2.462205,-6.320223,-18.127498,0.067740,-0.124461,0.929158
2011-09-26T14:05:37.182555,1170,2.025748,-6.374891,-17.968884,0.071578,-0.118528,0.939933
2011-09-26T14:05:37.192555,1180,1.589291,-6.429560,-17.810270,0.075416,-0.112596,0.950708
2011-09-26T14:05:37.202555,1190,1.152834,-6.484229,-17.651657,0.079254,-0.106663,0.961483
2011-09-26T14:05:37.212555,1200,0.716377,-6.538897,-17.493043,0.083092,-0.100730,0.972258
2011-09-26T14:05:37.222555,1210,0.279921,-6.593566,-17.334429,0.086930,-0.094797,0.983033
2011-09-26T14:05:37.232555,1220,-0.156536,-6.648235,-17.175816,0.090768,-0.088864,0.993808
2011-09-26T14:05:37.242555,1230,-0.592993,-6.702903,-17.017202,0.094606,-0.082931,1.004582
2011-09-26T14:05:37.252555,1240,-1.029450,-6.757572,-16.858588,0.098444,-0.076998,1.015357
2011-09-26T14:05:37.262555,1250,-1.465906,-6.812240,-16.699975,0.102282,-0.071065,1.026132
2011-09-26T14:05:37.272555,1260,-1.639009,-6.491053,-16.550175,0.105720,-0.074208,1.035485
2011-09-26T14:05:37.282555,1270,-1.810409,-6.167436,-16.400432,0.109155,-0.077409,1.044828
2011-09-26T14:05:37.292555,1280,-1.981810,-5.843819,-16.250689,0.112591,-0.080610,1.054172
2011-09-26T14:05:37.302555,1290,-2.153210,-5.520202,-16.100947,0.116027,-0.083811,1.063515
2011-09-26T14:05:37.312555,1300,-2.324611,-5.196586,-15.951204,0.119462,-0.087012,1.072859
2011-09-26T14:05:37.322555,1310,-2.496011,-4.872969,-15.801461,0.122898,-0.090214,1.082202
2011-09-26T14:05:37.332555,1320,-2.667411,-4.549352,-15.651718,0.126333,-0.093415,1.091546
2011-09-26T14:05:37.342555,1330,-2.838812,-4.225735,-15.501975,0.129769,-0.096616,1.100890
2011-09-26T14:05:37.352555,1340,-3.010212,-3.902118,-15.352232,0.133204,-0.099817,1.110233
2011-09-26T14:05:37.362555,1350,-3.181613,-3.578502,-15.202490,0.136640,-0.103018,1.119577
2011-09-26T14:05:37.372555,1360,-3.216012,-3.171080,-15.037041,0.135540,-0.104827,1.119989
2011-09-26T14:05:37.382555,1370,-3.249584,-2.763151,-14.871498,0.134413,-0.106628,1.120347
2011-09-26T14:05:37.392555,1380,-3.283156,-2.355223,-14.705955,0.133286,-0.108429,1.120706
2011-09-26T14:05:37.402555,1390,-3.316727,-1.947295,-14.540412,0.132159,-0.110230,1.121064
2011-09-26T14:05:37.412555,1400,-3.350299,-1.539366,-14.374869,0.131032,-0.112030,1.121423
2011-09-26T14:05:37.422555,1410,-3.383870,-1.131438,-14.209325,0.129904,-0.113831,1.121781
2011-09-26T14:05:37.432555,1420,-3.417442,-0.723510,-14.043782,0.128777,-0.115632,1.122139
2011-09-26T14:05:37.442555,1430,-3.451014,-0.315581,-13.878239,0.127650,-0.117433,1.122498
2011-09-26T14:05:37.452555,1440,-3.484585,0.092347,-13.712696,0.126523,-0.119234,1.122856
2011-09-26T14:05:37.462555,1450,-3.518157,0.500275,-13.547152,0.125396,-0.121034,1.123214
2011-09-26T14:05:37.472555,1460,-3.412569,0.792672,-13.423808,0.123276,-0.124154,1.119436
2011-09-26T14:05:37.482555,1470,-3.304946,1.083379,-13.301081,0.121141,-0.127293,1.115597
2011-09-26T14:05:37.492555,1480,-3.197324,1.374087,-13.178353,0.119006,-0.130432,1.111758
2011-09-26T14:05:37.502555,1490,-3.089702,1.664795,-13.055626,0.116871,-0.133571,1.107919
2011-09-26T14:05:37.512555,1500,-2.982080,1.955503,-12.932898,0.114737,-0.136710,1.104080
2011-09-26T14:05:37.522555,1510,-2.874458,2.246210,-12.810171,0.112602,-0.139849,1.100241
2011-09-26T14:05:37.532555,1520,-2.766836,2.536918,-12.687443,0.110467,-0.142988,1.096402
2011-09-26T14:05:37.542555,1530,-2.659214,2.827626,-12.564716,0.108332,-0.146127,1.092563
2011-09-26T14:05:37.552555,1540,-2.551591,3.118334,-12.441988,0.106198,-0.149266,1.088725
2011-09-26T14:05:37.562555,1550,-2.443969,3.409042,-12.319261,0.104063,-0.152405,1.084886
2011-09-26T14:05:37.572555,1560,-2.336347,3.699749,-12.196533,0.101928,-0.155544,1.081047
2011-09-26T14:05:37.582555,1570,-2.100068,3.643931,-12.056992,0.100955,-0.153371,1.067033
2011-09-26T14:05:37.592555,1580,-1.862135,3.583657,-11.917235,0.099996,-0.151129,1.052889
2011-09-26T14:05:37.602555,1590,-1.624202,3.523383,-11.777478,0.099038,-0.148888,1.038744
2011-09-26T14:05:37.612555,1600,-1.386269,3.463109,-11.637721,0.098079,-0.146646,1.024600
2011-09-26T14:05:37.622555,1610,-1.148336,3.402835,-11.497964,0.097121,-0.144404,1.010456
2011-09-26T14:05:37.632555,1620,-0.910403,3.342561,-11.358207,0.096162,-0.142163,0.996311
2011-09-26T14:05:37.642555,1630,-0.672470,3.282287,-11.218450,0.095204,-0.139921,0.982167
2011-09-26T14:05:37.652555,1640,-0.434537,3.222013,-11.078693,0.094245,-0.137680,0.968022
2011-09-26T14:05:37.662555,1650,-0.196604,3.161739,-10.938936,0.093287,-0.135438,0.953878
2011-09-26T14:05:37.672555,1660,0.041329,3.101465,-10.799179,0.092328,-0.133196,0.939734
2011-09-26T14:05:37.682555,1670,0.092167,2.943708,-10.673989,0.091981,-0.128432,0.938525
2011-09-26T14:05:37.692555,1680,0.141518,2.785176,-10.548915,0.091638,-0.123648,0.937418
2011-09-26T14:05:37.702555,1690,0.190869,2.626644,-10.423842,0.091296,-0.118864,0.936312
2011-09-26T14:05:37.712555,1700,0.240220,2.468113,-10.298768,0.090953,-0.114080,0.935206
2011-09-26T14:05:37.722555,1710,0.289571,2.309581,-10.173695,0.090611,-0.109296,0.934100
2011-09-26T14:05:37.732555,1720,0.338923,2.151049,-10.048621,0.090268,-0.104513,0.932993
2011-09-26T14:05:37.742555,1730,0.388274,1.992517,-9.923547,0.089925,-0.099729,0.931887
2011-09-26T14:05:37.752555,1740,0.437625,1.833986,-9.798474,0.089583,-0.094945,0.930781
2011-09-26T14:05:37.762555,1750,0.486976,1.675454,-9.673400,0.089240,-0.090161,0.929675
2011-09-26T14:05:37.772555,1760,0.536327,1.516922,-9.548326,0.088897,-0.085377,0.928569
2011-09-26T14:05:37.782555,1770,0.501907,1.403063,-9.405115,0.089684,-0.082911,0.931273
2011-09-26T14:05:37.792555,1780,0.466784,1.289580,-9.261751,0.090480,-0.080465,0.934009
2011-09-26T14:05:37.802555,1790,0.431661,1.176097,-9.118387,0.091275,-0.078019,0.936746
2011-09-26T14:05:37.812555,1800,0.396537,1.062613,-8.975023,0.092071,-0.075573,0.939482
2011-09-26T14:05:37.822555,1810,0.361414,0.949130,-8.831659,0.092867,-0.073127,0.942219
2011-09-26T14:05:37.832555,1820,0.326291,0.835646,-8.688295,0.093663,-0.070681,0.944955
2011-09-26T14:05:37.842555,1830,0.291168,0.722163,-8.544932,0.094458,-0.068235,0.947692
2011-09-26T14:05:37.852555,1840,0.256044,0.608679,-8.401568,0.095254,-0.065789,0.950428
2011-09-26T14:05:37.862555,1850,0.220921,0.495196,-8.258204,0.096050,-0.063343,0.953165
2011-09-26T14:05:37.872555,1860,0.185798,0.381712,-8.114840,0.096846,-0.060897,0.955901
2011-09-26T14:05:37.882555,1870,0.123985,0.393584,-7.922785,0.097596,-0.059409,0.960171
2011-09-26T14:05:37.892555,1880,0.061970,0.406403,-7.730362,0.098346,-0.057928,0.964453
2011-09-26T14:05:37.902555,1890,-0.000044,0.419221,-7.537939,0.099097,-0.056447,0.968734
2011-09-26T14:05:37.912555,1900,-0.062059,0.432040,-7.345516,0.099847,-0.054967,0.973016
2011-09-26T14:05:37.922555,1910,-0.124073,0.444859,-7.153093,0.100597,-0.053486,0.977297
2011-09-26T14:05:37.932555,1920,-0.186088,0.457677,-6.960670,0.101347,-0.052005,0.981579
2011-09-26T14:05:37.942555,1930,-0.248102,0.470496,-6.768247,0.102097,-0.050524,0.985860
2011-09-26T14:05:37.952555,1940,-0.310117,0.483314,-6.575824,0.102848,-0.049043,0.990142
2011-09-26T14:05:37.962555,1950,-0.372131,0.496133,-6.383401,0.103598,-0.047562,0.994423
2011-09-26T14:05:37.972555,1960,-0.434146,0.508952,-6.190979,0.104348,-0.046082,0.998705
2011-09-26T14:05:37.982555,1970,-0.456072,0.509207,-6.027763,0.104244,-0.045210,1.000165
2011-09-26T14:05:37.992555,1980,-0.477548,0.509321,-5.864875,0.104131,-0.044345,1.001593
2011-09-26T14:05:38.002555,1990,-0.499023,0.509435,-5.701987,0.104018,-0.043480,1.003021
2011-09-26T14:05:38.012555,2000,-0.520499,0.509549,-5.539100,0.103904,-0.042615,1.004449
2011-09-26T14:05:38.022555,2010,-0.541975,0.509663,-5.376212,0.103791,-0.041750,1.005878
2011-09-26T14:05:38.032555,2020,-0.563451,0.509777,-5.213324,0.103678,-0.040885,1.007306
2011-09-26T14:05:38.042555,2030,-0.584927,0.509891,-5.050436,0.103564,-0.040020,1.008734
2011-09-26T14:05:38.052555,2040,-0.606402,0.510005,-4.887549,0.103451,-0.039155,1.010163
2011-09-26T14:05:38.062555,2050,-0.627878,0.510119,-4.724661,0.103337,-0.038290,1.011591
2011-09-26T14:05:38.072555,2060,-0.649354,0.510233,-4.561773,0.103224,-0.037424,1.013019
2011-09-26T14:05:38.082555,2070,-0.670830,0.510347,-4.398885,0.103111,-0.036559,1.014447
2011-09-26T14:05:38.092555,2080,-0.650661,0.505984,-4.259136,0.102595,-0.036949,1.012656
2011-09-26T14:05:38.102555,2090,-0.629595,0.501524,-4.119885,0.102070,-0.037365,1.010796
2011-09-26T14:05:38.112555,2100,-0.608528,0.497064,-3.980635,0.101546,-0.037781,1.008935
2011-09-26T14:05:38.122555,2110,-0.587462,0.492605,-3.841385,0.101021,-0.038197,1.007075
2011-09-26T14:05:38.132555,2120,-0.566395,0.488145,-3.702134,0.100497,-0.038613,1.005215
2011-09-26T14:05:38.142555,2130,-0.545329,0.483685,-3.562884,0.099972,-0.039029,1.003354
2011-09-26T14:05:38.152555,2140,-0.524262,0.479225,-3.423633,0.099448,-0.039445,1.001494
2011-09-26T14:05:38.162555,2150,-0.503196,0.474766,-3.284383,0.098923,-0.039861,0.999633
2011-09-26T14:05:38.172555,2160,-0.482129,0.470306,-3.145132,0.098399,-0.040278,0.997773
2011-09-26T14:05:38.182555,2170,-0.461062,0.465846,-3.005882,0.097874,-0.040694,0.995912
2011-09-26T14:05:38.192555,2180,-0.363317,0.441222,-2.875235,0.098255,-0.039822,0.995955
2011-09-26T14:05:38.202555,2190,-0.264412,0.416293,-2.744718,0.098649,-0.038931,0.996025
2011-09-26T14:05:38.212555,2200,-0.165507,0.391364,-2.614201,0.099043,-0.038039,0.996096
2011-09-26T14:05:38.222555,2210,-0.066602,0.366435,-2.483684,0.099438,-0.037148,0.996167
2011-09-26T14:05:38.232555,2220,0.032303,0.341507,-2.353167,0.099832,-0.036256,0.996238
2011-09-26T14:05:38.242555,2230,0.131208,0.316578,-2.222650,0.100226,-0.035365,0.996309
2011-09-26T14:05:38.252555,2240,0.230113,0.291649,-2.092133,0.100620,-0.034474,0.996380
2011-09-26T14:05:38.262555,2250,0.329018,0.266720,-1.961616,0.101015,-0.033582,0.996451
2011-09-26T14:05:38.272555,2260,0.427923,0.241791,-1.831100,0.101409,-0.032691,0.996522
2011-09-26T14:05:38.282555,2270,0.526828,0.216862,-1.700583,0.101803,-0.031800,0.996593
2011-09-26T14:05:38.292555,2280,0.586823,0.142940,-1.606716,0.101291,-0.029738,0.995875
2011-09-26T14:05:38.302555,2290,0.646365,0.068447,-1.513275,0.100767,-0.027663,0.995148
2011-09-26T14:05:38.312555,2300,0.705908,-0.006045,-1.419834,0.100244,-0.025588,0.994421
2011-09-26T14:05:38.322555,2310,0.765450,-0.080538,-1.326393,0.099721,-0.023513,0.993693
2011-09-26T14:05:38.332555,2320,0.824992,-0.155030,-1.232953,0.099198,-0.021438,0.992966
2011-09-26T14:05:38.342555,2330,0.884535,-0.229523,-1.139512,0.098674,-0.019363,0.992239
2011-09-26T14:05:38.352555,2340,0.944077,-0.304015,-1.046071,0.098151,-0.017288,0.991512
2011-09-26T14:05:38.362555,2350,1.003620,-0.378508,-0.952631,0.097628,-0.015213,0.990785
2011-09-26T14:05:38.372555,2360,1.063162,-0.453000,-0.859190,0.097104,-0.013138,0.990058
2011-09-26T14:05:38.382555,2370,1.122705,-0.527493,-0.765749,0.096581,-0.011063,0.989331
2011-09-26T14:05:38.392555,2380,1.182247,-0.601985,-0.672309,0.096058,-0.008988,0.988604
2011-09-26T14:05:38.402555,2390,1.145297,-0.684421,-0.599084,0.096801,-0.005625,0.988046
2011-09-26T14:05:38.412555,2400,1.107311,-0.766942,-0.526077,0.097558,-0.002248,0.987490
2011-09-26T14:05:38.422555,2410,1.069324,-0.849464,-0.453069,0.098314,0.001129,0.986934
2011-09-26T14:05:38.432555,2420,1.031338,-0.931985,-0.380062,0.099071,0.004507,0.986378
2011-09-26T14:05:38.442555,2430,0.993352,-1.014506,-0.307054,0.099828,0.007884,0.985822
2011-09-26T14:05:38.452555,2440,0.955366,-1.097027,-0.234047,0.100584,0.011261,0.985267
2011-09-26T14:05:38.462555,2450,0.917380,-1.179548,-0.161040,0.101341,0.014638,0.984711
2011-09-26T14:05:38.472555,2460,0.879394,-1.262069,-0.088032,0.102098,0.018015,0.984155
2011-09-26T14:05:38.482555,2470,0.841408,-1.344591,-0.015025,0.102854,0.021393,0.983599
2011-09-26T14:05:38.492555,2480,0.803422,-1.427112,0.057983,0.103611,0.024770,0.983043
2011-09-26T14:05:38.502555,2490,0.772973,-1.395044,0.111057,0.105297,0.025302,0.986413
2011-09-26T14:05:38.512555,2500,0.742621,-1.361523,0.163879,0.106994,0.025797,0.989833
2011-09-26T14:05:38.522555,2510,0.712268,-1.328002,0.216700,0.108692,0.026293,0.993253
2011-09-26T14:05:38.532555,2520,0.681916,-1.294480,0.269522,0.110390,0.026789,0.996672
2011-09-26T14:05:38.542555,2530,0.651563,-1.260959,0.322344,0.112087,0.027285,1.000092
2011-09-26T14:05:38.552555,2540,0.621211,-1.227438,0.375165,0.113785,0.027781,1.003512
2011-09-26T14:05:38.562555,2550,0.590858,-1.193917,0.427987,0.115483,0.028276,1.006931
2011-09-26T14:05:38.572555,2560,0.560506,-1.160396,0.480808,0.117180,0.028772,1.010351
2011-09-26T14:05:38.582555,2570,0.530153,-1.126875,0.533630,0.118878,0.029268,1.013771
2011-09-26T14:05:38.592555,2580,0.499801,-1.093353,0.586452,0.120576,0.029764,1.017190
2011-09-26T14:05:38.602555,2590,0.453050,-0.961542,0.612129,0.120920,0.029949,1.017161
2011-09-26T14:05:38.612555,2600,0.406055,-0.828265,0.637401,0.121244,0.030130,1.017079
2011-09-26T14:05:38.622555,2610,0.359060,-0.694988,0.662674,0.121569,0.030311,1.016998
2011-09-26T14:05:38.632555,2620,0.312065,-0.561711,0.687946,0.121893,0.030492,1.016917
2011-09-26T14:05:38.642555,2630,0.265070,-0.428434,0.713219,0.122217,0.030673,1.016835
2011-09-26T14:05:38.652555,2640,0.218075,-0.295157,0.738491,0.122542,0.030853,1.016754
2011-09-26T14:05:38.662555,2650,0.171080,-0.161879,0.763764,0.122866,0.031034,1.016673
2011-09-26T14:05:38.672555,2660,0.124084,-0.028602,0.789036,0.123190,0.031215,1.016591
2011-09-26T14:05:38.682555,2670,0.077089,0.104675,0.814309,0.123515,0.031396,1.016510
2011-09-26T14:05:38.692555,2680,0.030094,0.237952,0.839581,0.123839,0.031577,1.016429
2011-09-26T14:05:38.702555,2690,-0.016901,0.371229,0.864854,0.124163,0.031757,1.016347
2011-09-26T14:05:38.712555,2700,-0.044586,0.496430,0.869242,0.123638,0.031323,1.019829
2011-09-26T14:05:38.722555,2710,-0.072025,0.621528,0.873363,0.123102,0.030881,1.023356
2011-09-26T14:05:38.732555,2720,-0.099463,0.746626,0.877485,0.122566,0.030438,1.026883
2011-09-26T14:05:38.742555,2730,-0.126901,0.871724,0.881606,0.122030,0.029996,1.030410
2011-09-26T14:05:38.752555,2740,-0.154340,0.996822,0.885727,0.121494,0.029554,1.033938
2011-09-26T14:05:38.762555,2750,-0.181778,1.121920,0.889849,0.120958,0.029112,1.037465
2011-09-26T14:05:38.772555,2760,-0.209217,1.247018,0.893970,0.120422,0.028669,1.040992
2011-09-26T14:05:38.782555,2770,-0.236655,1.372116,0.898092,0.119886,0.028227,1.044519
2011-09-26T14:05:38.792555,2780,-0.264094,1.497214,0.902213,0.119350,0.027785,1.048046
2011-09-26T14:05:38.802555,2790,-0.291532,1.622311,0.906334,0.118814,0.027342,1.051573
2011-09-26T14:05:38.812555,2800,-0.292713,1.693811,0.909428,0.118591,0.029431,1.047470
2011-09-26T14:05:38.822555,2810,-0.293432,1.764367,0.912503,0.118374,0.031563,1.043233
2011-09-26T14:05:38.832555,2820,-0.294151,1.834923,0.915578,0.118157,0.033696,1.038995
2011-09-26T14:05:38.842555,2830,-0.294870,1.905479,0.918653,0.117940,0.035829,1.034758
2011-09-26T14:05:38.852555,2840,-0.295588,1.976034,0.921729,0.117722,0.037962,1.030520
2011-09-26T14:05:38.862555,2850,-0.296307,2.046590,0.924804,0.117505,0.040094,1.026283
2011-09-26T14:05:38.872555,2860,-0.297026,2.117146,0.927879,0.117288,0.042227,1.022045
2011-09-26T14:05:38.882555,2870,-0.297745,2.187702,0.930954,0.117071,0.044360,1.017808
2011-09-26T14:05:38.892555,2880,-0.298463,2.258257,0.934030,0.116853,0.046492,1.013570
2011-09-26T14:05:38.902555,2890,-0.299182,2.328813,0.937105,0.116636,0.048625,1.009333
2011-09-26T14:05:38.912555,2900,-0.244767,2.294480,0.960775,0.115104,0.045917,1.002118
2011-09-26T14:05:38.922555,2910,-0.189336,2.258214,0.984825,0.113547,0.043119,0.994849
2011-09-26T14:05:38.932555,2920,-0.133905,2.221948,1.008874,0.111990,0.040321,0.987579
2011-09-26T14:05:38.942555,2930,-0.078474,2.185682,1.032924,0.110434,0.037523,0.980310
2011-09-26T14:05:38.952555,2940,-0.023043,2.149416,1.056974,0.108877,0.034725,0.973040
2011-09-26T14:05:38.962555,2950,0.032388,2.113151,1.081024,0.107320,0.031927,0.965771
2011-09-26T14:05:38.972555,2960,0.087819,2.076885,1.105073,0.105763,0.029129,0.958502
2011-09-26T14:05:38.982555,2970,0.143250,2.040619,1.129123,0.104207,0.026331,0.951232
2011-09-26T14:05:38.992555,2980,0.198681,2.004353,1.153173,0.102650,0.023533,0.943963
2011-09-26T14:05:39.002555,2990,0.254112,1.968087,1.177223,0.101093,0.020735,0.936693
2011-09-26T14:05:39.012555,3000,0.153406,1.834747,1.249939,0.098204,0.023371,0.938489
2011-09-26T14:05:39.022555,3010,0.050450,1.700008,1.323357,0.095295,0.026085,0.940415
2011-09-26T14:05:39.032555,3020,-0.052507,1.565270,1.396775,0.092386,0.028799,0.942342
2011-09-26T14:05:39.042555,3030,-0.155463,1.430531,1.470193,0.089477,0.031513,0.944268
2011-09-26T14:05:39.052555,3040,-0.258420,1.295792,1.543611,0.086568,0.034227,0.946195
2011-09-26T14:05:39.062555,3050,-0.361376,1.161053,1.617029,0.083659,0.036941,0.948121
2011-09-26T14:05:39.072555,3060,-0.464333,1.026314,1.690447,0.080751,0.039655,0.950048
2011-09-26T14:05:39.082555,3070,-0.567289,0.891575,1.763864,0.077842,0.042368,0.951974
2011-09-26T14:05:39.092555,3080,-0.670246,0.756836,1.837282,0.074933,0.045082,0.953900
2011-09-26T14:05:39.102555,3090,-0.773202,0.622097,1.910700,0.072024,0.047796,0.955827
2011-09-26T14:05:39.112555,3100,-0.876159,0.487358,1.984118,0.069115,0.050510,0.957753
2011-09-26T14:05:39.122555,3110,-0.925767,0.414889,2.006370,0.065783,0.051037,0.962222
2011-09-26T14:05:39.132555,3120,-0.974573,0.343357,2.027852,0.062444,0.051531,0.966729
2011-09-26T14:05:39.142555,3130,-1.023379,0.271824,2.049334,0.059105,0.052026,0.971236
2011-09-26T14:05:39.152555,3140,-1.072185,0.200292,2.070816,0.055766,0.052520,0.975743
2011-09-26T14:05:39.162555,3150,-1.120991,0.128759,2.092297,0.052427,0.053014,0.980250
2011-09-26T14:05:39.172555,3160,-1.169797,0.057227,2.113779,0.049088,0.053508,0.984756
2011-09-26T14:05:39.182555,3170,-1.218603,-0.014306,2.135261,0.045749,0.054002,0.989263
2011-09-26T14:05:39.192555,3180,-1.267409,-0.085838,2.156743,0.042410,0.054496,0.993770
2011-09-26T14:05:39.202555,3190,-1.316216,-0.157371,2.178225,0.039071,0.054991,0.998277
2011-09-26T14:05:39.212555,3200,-1.365022,-0.228903,2.199707,0.035732,0.055485,1.002784
2011-09-26T14:05:39.222555,3210,-1.317486,-0.254396,2.226022,0.033074,0.053301,1.002039
2011-09-26T14:05:39.232555,3220,-1.268462,-0.279178,2.252412,0.030426,0.051077,1.001213
2011-09-26T14:05:39.242555,3230,-1.219439,-0.303959,2.278801,0.027779,0.048852,1.000387
2011-09-26T14:05:39.252555,3240,-1.170415,-0.328741,2.305191,0.025132,0.046627,0.999561
2011-09-26T14:05:39.262555,3250,-1.121392,-0.353522,2.331581,0.022484,0.044402,0.998736
2011-09-26T14:05:39.272555,3260,-1.072368,-0.378304,2.357970,0.019837,0.042178,0.997910
2011-09-26T14:05:39.282555,3270,-1.023345,-0.403085,2.384360,0.017189,0.039953,0.997084
2011-09-26T14:05:39.292555,3280,-0.974321,-0.427867,2.410749,0.014542,0.037728,0.996258
2011-09-26T14:05:39.302555,3290,-0.925298,-0.452648,2.437139,0.011894,0.035504,0.995432
2011-09-26T14:05:39.312555,3300,-0.876274,-0.477430,2.463529,0.009247,0.033279,0.994606
2011-09-26T14:05:39.322555,3310,-0.827250,-0.502211,2.489918,0.006600,0.031054,0.993780
2011-09-26T14:05:39.332555,3320,-0.734087,-0.569378,2.539324,0.005872,0.031788,0.996152
2011-09-26T14:05:39.342555,3330,-0.640323,-0.637121,2.589042,0.005170,0.032562,0.998568
2011-09-26T14:05:39.352555,3340,-0.546560,-0.704864,2.638760,0.004468,0.033337,1.000983
2011-09-26T14:05:39.362555,3350,-0.452796,-0.772607,2.688479,0.003766,0.034111,1.003399
2011-09-26T14:05:39.372555,3360,-0.359033,-0.840350,2.738197,0.003064,0.034885,1.005815
2011-09-26T14:05:39.382555,3370,-0.265269,-0.908093,2.787915,0.002362,0.035660,1.008230
2011-09-26T14:05:39.392555,3380,-0.171506,-0.975836,2.837634,0.001660,0.036434,1.010646
2011-09-26T14:05:39.402555,3390,-0.077742,-1.043579,2.887352,0.000958,0.037208,1.013062
2011-09-26T14:05:39.412555,3400,0.016021,-1.111322,2.937070,0.000256,0.037982,1.015477
2011-09-26T14:05:39.422555,3410,0.109785,-1.179065,2.986788,-0.000446,0.038757,1.017893
2011-09-26T14:05:39.432555,3420,0.187395,-1.140683,3.009085,-0.000006,0.040930,1.017129
2011-09-26T14:05:39.442555,3430,0.264764,-1.100716,3.030971,0.000452,0.043123,1.016317
2011-09-26T14:05:39.452555,3440,0.342133,-1.060748,3.052858,0.000909,0.045317,1.015506
2011-09-26T14:05:39.462555,3450,0.419502,-1.020781,3.074744,0.001366,0.047511,1.014694
2011-09-26T14:05:39.472555,3460,0.496870,-0.980814,3.096631,0.001824,0.049705,1.013882
2011-09-26T14:05:39.482555,3470,0.574239,-0.940846,3.118517,0.002281,0.051899,1.013071
2011-09-26T14:05:39.492555,3480,0.651608,-0.900879,3.140404,0.002739,0.054092,1.012259
2011-09-26T14:05:39.502555,3490,0.728977,-0.860912,3.162291,0.003196,0.056286,1.011448
2011-09-26T14:05:39.512555,3500,0.806346,-0.820944,3.184177,0.003654,0.058480,1.010636
2011-09-26T14:05:39.522555,3510,0.883715,-0.780977,3.206064,0.004111,0.060674,1.009825
2011-09-26T14:05:39.532555,3520,0.855214,-0.723738,3.247478,0.003684,0.058489,1.012876
2011-09-26T14:05:39.542555,3530,0.824539,-0.666146,3.289292,0.003239,0.056215,1.016006
2011-09-26T14:05:39.552555,3540,0.793864,-0.608553,3.331107,0.002793,0.053941,1.019137
2011-09-26T14:05:39.562555,3550,0.763189,-0.550960,3.372922,0.002348,0.051667,1.022267
2011-09-26T14:05:39.572555,3560,0.732514,-0.493367,3.414736,0.001903,0.049393,1.025398
2011-09-26T14:05:39.582555,3570,0.701839,-0.435774,3.456551,0.001457,0.047118,1.028529
2011-09-26T14:05:39.592555,3580,0.671165,-0.378181,3.498366,0.001012,0.044844,1.031659
2011-09-26T14:05:39.602555,3590,0.640490,-0.320588,3.540181,0.000567,0.042570,1.034790
2011-09-26T14:05:39.612555,3600,0.609815,-0.262995,3.581995,0.000121,0.040296,1.037920
2011-09-26T14:05:39.622555,3610,0.579140,-0.205403,3.623810,-0.000324,0.038022,1.041051
2011-09-26T14:05:39.632555,3620,0.641672,-0.119725,3.644741,-0.000407,0.039892,1.039678
2011-09-26T14:05:39.642555,3630,0.706457,-0.033368,3.665167,-0.000480,0.041863,1.038196
2011-09-26T14:05:39.652555,3640,0.771243,0.052989,3.685594,-0.000554,0.043834,1.036713
2011-09-26T14:05:39.662555,3650,0.836028,0.139346,3.706020,-0.000628,0.045805,1.035231
2011-09-26T14:05:39.672555,3660,0.900813,0.225702,3.726446,-0.000702,0.047776,1.033749
2011-09-26T14:05:39.682555,3670,0.965599,0.312059,3.746872,-0.000776,0.049747,1.032267
2011-09-26T14:05:39.692555,3680,1.030384,0.398416,3.767298,-0.000850,0.051719,1.030785
2011-09-26T14:05:39.702555,3690,1.095170,0.484773,3.787725,-0.000924,0.053690,1.029303
2011-09-26T14:05:39.712555,3700,1.159955,0.571129,3.808151,-0.000998,0.055661,1.027821
2011-09-26T14:05:39.722555,3710,1.224741,0.657486,3.828577,-0.001071,0.057632,1.026339
2011-09-26T14:05:39.732555,3720,1.289526,0.743843,3.849003,-0.001145,0.059603,1.024857
2011-09-26T14:05:39.742555,3730,1.310849,0.799895,3.792289,-0.001226,0.060375,1.019666
2011-09-26T14:05:39.752555,3740,1.331421,0.855423,3.734241,-0.001307,0.061126,1.014412
2011-09-26T14:05:39.762555,3750,1.351992,0.910952,3.676193,-0.001388,0.061878,1.009158
2011-09-26T14:05:39.772555,3760,1.372564,0.966480,3.618145,-0.001469,0.062629,1.003904
2011-09-26T14:05:39.782555,3770,1.393136,1.022008,3.560097,-0.001549,0.063381,0.998650
2011-09-26T14:05:39.792555,3780,1.413708,1.077536,3.502049,-0.001630,0.064132,0.993395
2011-09-26T14:05:39.802555,3790,1.434279,1.133064,3.444001,-0.001711,0.064884,0.988141
2011-09-26T14:05:39.812555,3800,1.454851,1.188593,3.385953,-0.001792,0.065636,0.982887
2011-09-26T14:05:39.822555,3810,1.475423,1.244121,3.327905,-0.001873,0.066387,0.977633
2011-09-26T14:05:39.832555,3820,1.495994,1.299649,3.269858,-0.001954,0.067139,0.972378
2011-09-26T14:05:39.842555,3830,1.530512,1.182437,3.197238,-0.002427,0.066496,0.971572
2011-09-26T14:05:39.852555,3840,1.565224,1.062826,3.124416,-0.002906,0.065834,0.970827
2011-09-26T14:05:39.862555,3850,1.599935,0.943214,3.051594,-0.003384,0.065172,0.970082
2011-09-26T14:05:39.872555,3860,1.634646,0.823603,2.978772,-0.003863,0.064509,0.969337
2011-09-26T14:05:39.882555,3870,1.669358,0.703992,2.905950,-0.004342,0.063847,0.968592
2011-09-26T14:05:39.892555,3880,1.704069,0.584381,2.833127,-0.004821,0.063185,0.967847
2011-09-26T14:05:39.902555,3890,1.738781,0.464770,2.760305,-0.005299,0.062523,0.967102
2011-09-26T14:05:39.912555,3900,1.773492,0.345159,2.687483,-0.005778,0.061861,0.966357
2011-09-26T14:05:39.922555,3910,1.808203,0.225548,2.614661,-0.006257,0.061199,0.965612
2011-09-26T14:05:39.932555,3920,1.842915,0.105936,2.541839,-0.006736,0.060537,0.964867
2011-09-26T14:05:39.942555,3930,1.720679,0.005209,2.467345,-0.005719,0.060204,0.965433
2011-09-26T14:05:39.952555,3940,1.595469,-0.095160,2.392820,-0.004674,0.059877,0.966023
2011-09-26T14:05:39.962555,3950,1.470259,-0.195529,2.318294,-0.003629,0.059550,0.966613
2011-09-26T14:05:39.972555,3960,1.345048,-0.295898,2.243769,-0.002585,0.059223,0.967204
2011-09-26T14:05:39.982555,3970,1.219838,-0.396267,2.169243,-0.001540,0.058896,0.967794
2011-09-26T14:05:39.992555,3980,1.094628,-0.496636,2.094717,-0.000495,0.058570,0.968384
2011-09-26T14:05:40.002555,3990,0.969417,-0.597005,2.020192,0.000550,0.058243,0.968975
2011-09-26T14:05:40.012555,4000,0.844207,-0.697375,1.945666,0.001595,0.057916,0.969565
2011-09-26T14:05:40.022555,4010,0.718997,-0.797744,1.871141,0.002640,0.057589,0.970155
2011-09-26T14:05:40.032555,4020,0.593786,-0.898113,1.796615,0.003685,0.057262,0.970746
2011-09-26T14:05:40.042555,4030,0.468576,-0.998482,1.722089,0.004729,0.056935,0.971336
2011-09-26T14:05:40.052555,4040,0.275005,-1.071362,1.688302,0.006837,0.057204,0.973064
2011-09-26T14:05:40.062555,4050,0.079959,-1.143650,1.655393,0.008968,0.057486,0.974817
2011-09-26T14:05:40.072555,4060,-0.115086,-1.215937,1.622484,0.011099,0.057768,0.976570
2011-09-26T14:05:40.082555,4070,-0.310132,-1.288224,1.589575,0.013229,0.058050,0.978322
2011-09-26T14:05:40.092555,4080,-0.505178,-1.360512,1.556666,0.015360,0.058331,0.980075
2011-09-26T14:05:40.102555,4090,-0.700223,-1.432799,1.523757,0.017491,0.058613,0.981828
2011-09-26T14:05:40.112555,4100,-0.895269,-1.505086,1.490848,0.019621,0.058895,0.983580
2011-09-26T14:05:40.122555,4110,-1.090315,-1.577374,1.457939,0.021752,0.059177,0.985333
2011-09-26T14:05:40.132555,4120,-1.285360,-1.649661,1.425030,0.023883,0.059459,0.987086
2011-09-26T14:05:40.142555,4130,-1.480406,-1.721948,1.392121,0.026013,0.059740,0.988838
2011-09-26T14:05:40.152555,4140,-1.350312,-1.631083,1.318708,0.026727,0.056539,0.993801
2011-09-26T14:05:40.162555,4150,-1.212930,-1.536560,1.244386,0.027409,0.053259,0.998835
2011-09-26T14:05:40.172555,4160,-1.075547,-1.442037,1.170065,0.028090,0.049979,1.003869
2011-09-26T14:05:40.182555,4170,-0.938165,-1.347514,1.095744,0.028772,0.046699,1.008903
2011-09-26T14:05:40.192555,4180,-0.800783,-1.252991,1.021422,0.029454,0.043420,1.013937
2011-09-26T14:05:40.202555,4190,-0.663401,-1.158468,0.947101,0.030136,0.040140,1.018971
2011-09-26T14:05:40.212555,4200,-0.526019,-1.063945,0.872780,0.030817,0.036860,1.024005
2011-09-26T14:05:40.222555,4210,-0.388637,-0.969422,0.798458,0.031499,0.033580,1.029039
2011-09-26T14:05:40.232555,4220,-0.251255,-0.874900,0.724137,0.032181,0.030300,1.034073
2011-09-26T14:05:40.242555,4230,-0.113872,-0.780377,0.649816,0.032863,0.027021,1.039108
2011-09-26T14:05:40.252555,4240,-0.029140,-0.620169,0.618485,0.032047,0.026480,1.036855
2011-09-26T14:05:40.262555,4250,0.054567,-0.458682,0.587991,0.031203,0.025993,1.034460
2011-09-26T14:05:40.272555,4260,0.138273,-0.297194,0.557498,0.030358,0.025506,1.032065
2011-09-26T14:05:40.282555,4270,0.221979,-0.135707,0.527004,0.029514,0.025019,1.029670
2011-09-26T14:05:40.292555,4280,0.305686,0.025781,0.496511,0.028669,0.024532,1.027275
2011-09-26T14:05:40.302555,4290,0.389392,0.187268,0.466018,0.027825,0.024045,1.024880
2011-09-26T14:05:40.312555,4300,0.473099,0.348756,0.435524,0.026980,0.023558,1.022485
2011-09-26T14:05:40.322555,4310,0.556805,0.510243,0.405031,0.026136,0.023070,1.020090
2011-09-26T14:05:40.332555,4320,0.640512,0.671731,0.374537,0.025291,0.022583,1.017696
2011-09-26T14:05:40.342555,4330,0.724218,0.833218,0.344044,0.024447,0.022096,1.015301
2011-09-26T14:05:40.352555,4340,0.667081,0.729632,0.298347,0.025281,0.025627,1.017640
2011-09-26T14:05:40.362555,4350,0.605989,0.618601,0.252222,0.026162,0.029270,1.020113
2011-09-26T14:05:40.372555,4360,0.544896,0.507570,0.206098,0.027043,0.032913,1.022586
2011-09-26T14:05:40.382555,4370,0.483803,0.396539,0.159973,0.027924,0.036556,1.025059
2011-09-26T14:05:40.392555,4380,0.422711,0.285508,0.113849,0.028805,0.040199,1.027531
2011-09-26T14:05:40.402555,4390,0.361618,0.174476,0.067725,0.029687,0.043842,1.030004
2011-09-26T14:05:40.412555,4400,0.300525,0.063445,0.021600,0.030568,0.047485,1.032477
2011-09-26T14:05:40.422555,4410,0.239433,-0.047586,-0.024524,0.031449,0.051128,1.034950
2011-09-26T14:05:40.432555,4420,0.178340,-0.158617,-0.070648,0.032330,0.054771,1.037422
2011-09-26T14:05:40.442555,4430,0.117248,-0.269648,-0.116773,0.033211,0.058414,1.039895
2011-09-26T14:05:40.452555,4440,0.056155,-0.380679,-0.162897,0.034093,0.062057,1.042368
2011-09-26T14:05:40.462555,4450,-0.150407,-0.528959,-0.215169,0.033860,0.053651,1.031076
2011-09-26T14:05:40.472555,4460,-0.359620,-0.677918,-0.267552,0.033608,0.045025,1.019533
2011-09-26T14:05:40.482555,4470,-0.568832,-0.826876,-0.319936,0.033355,0.036399,1.007990
2011-09-26T14:05:40.492555,4480,-0.778045,-0.975835,-0.372319,0.033103,0.027773,0.996447
2011-09-26T14:05:40.502555,4490,-0.987257,-1.124794,-0.424703,0.032850,0.019148,0.984904
2011-09-26T14:05:40.512555,4500,-1.196470,-1.273752,-0.477086,0.032597,0.010522,0.973361
2011-09-26T14:05:40.522555,4510,-1.405682,-1.422711,-0.529470,0.032345,0.001896,0.961818
2011-09-26T14:05:40.532555,4520,-1.614895,-1.571670,-0.581853,0.032092,-0.006730,0.950275
2011-09-26T14:05:40.542555,4530,-1.824107,-1.720629,-0.634237,0.031839,-0.015356,0.938732
2011-09-26T14:05:40.552555,4540,-2.033320,-1.869587,-0.686621,0.031587,-0.023982,0.927189
2011-09-26T14:05:40.562555,4550,-1.906592,-1.929819,-0.641594,0.032875,-0.025304,0.935853
2011-09-26T14:05:40.572555,4560,-1.767817,-1.986869,-0.593074,0.034219,-0.026365,0.945242
2011-09-26T14:05:40.582555,4570,-1.629042,-2.043920,-0.544554,0.035563,-0.027426,0.954631
2011-09-26T14:05:40.592555,4580,-1.490267,-2.100970,-0.496034,0.036907,-0.028487,0.964020
2011-09-26T14:05:40.602555,4590,-1.351493,-2.158020,-0.447514,0.038250,-0.029548,0.973408
2011-09-26T14:05:40.612555,4600,-1.212718,-2.215070,-0.398994,0.039594,-0.030608,0.982797
2011-09-26T14:05:40.622555,4610,-1.073943,-2.272121,-0.350474,0.040938,-0.031669,0.992186
2011-09-26T14:05:40.632555,4620,-0.935168,-2.329171,-0.301954,0.042281,-0.032730,1.001575
2011-09-26T14:05:40.642555,4630,-0.796393,-2.386221,-0.253434,0.043625,-0.033791,1.010964
2011-09-26T14:05:40.652555,4640,-0.657618,-2.443271,-0.204914,0.044969,-0.034852,1.020353
2011-09-26T14:05:40.662555,4650,-0.568453,-2.161038,-0.225685,0.046494,-0.028457,1.024576
2011-09-26T14:05:40.672555,4660,-0.480466,-1.870750,-0.248102,0.048024,-0.021885,1.028677
2011-09-26T14:05:40.682555,4670,-0.392479,-1.580461,-0.270519,0.049554,-0.015314,1.032778
2011-09-26T14:05:40.692555,4680,-0.304491,-1.290172,-0.292936,0.051083,-0.008742,1.036879
2011-09-26T14:05:40.702555,4690,-0.216504,-0.999883,-0.315353,0.052613,-0.002170,1.040980
2011-09-26T14:05:40.712555,4700,-0.128517,-0.709594,-0.337770,0.054143,0.004401,1.045081
2011-09-26T14:05:40.722555,4710,-0.040529,-0.419305,-0.360187,0.055673,0.010973,1.049182
2011-09-26T14:05:40.732555,4720,0.047458,-0.129016,-0.382604,0.057202,0.017545,1.053283
2011-09-26T14:05:40.742555,4730,0.135445,0.161272,-0.405021,0.058732,0.024116,1.057384
2011-09-26T14:05:40.752555,4740,0.223432,0.451561,-0.427438,0.060262,0.030688,1.061485
2011-09-26T14:05:40.762555,4750,0.311420,0.741850,-0.449855,0.061791,0.037260,1.065586
2011-09-26T14:05:40.772555,4760,0.349115,1.045286,-0.476804,0.060200,0.034948,1.064416
2011-09-26T14:05:40.782555,4770,0.385784,1.348991,-0.503846,0.058545,0.032454,1.063139
2011-09-26T14:05:40.792555,4780,0.422453,1.652695,-0.530888,0.056891,0.029961,1.061862
2011-09-26T14:05:40.802555,4790,0.459122,1.956400,-0.557930,0.055236,0.027468,1.060585
2011-09-26T14:05:40.812555,4800,0.495791,2.260104,-0.584973,0.053581,0.024975,1.059308
2011-09-26T14:05:40.822555,4810,0.532460,2.563808,-0.612015,0.051926,0.022481,1.058031
2011-09-26T14:05:40.832555,4820,0.569129,2.867513,-0.639057,0.050271,0.019988,1.056753
2011-09-26T14:05:40.842555,4830,0.605798,3.171217,-0.666099,0.048617,0.017495,1.055476
2011-09-26T14:05:40.852555,4840,0.642467,3.474922,-0.693141,0.046962,0.015002,1.054199
2011-09-26T14:05:40.862555,4850,0.679137,3.778626,-0.720183,0.045307,0.012509,1.052922
2011-09-26T14:05:40.872555,4860,0.608464,3.750713,-0.715333,0.043631,0.015115,1.040415
2011-09-26T14:05:40.882555,4870,0.535352,3.715265,-0.709758,0.041955,0.017838,1.027652
2011-09-26T14:05:40.892555,4880,0.462240,3.679817,-0.704182,0.040279,0.020560,1.014890
2011-09-26T14:05:40.902555,4890,0.389128,3.644369,-0.698607,0.038603,0.023282,1.002127
2011-09-26T14:05:40.912555,4900,0.316016,3.608921,-0.693032,0.036927,0.026005,0.989365
2011-09-26T14:05:40.922555,4910,0.242904,3.573473,-0.687457,0.035251,0.028727,0.976602
2011-09-26T14:05:40.932555,4920,0.169792,3.538025,-0.681882,0.033575,0.031450,0.963840
2011-09-26T14:05:40.942555,4930,0.096681,3.502578,-0.676307,0.031899,0.034172,0.951078
2011-09-26T14:05:40.952555,4940,0.023569,3.467130,-0.670732,0.030223,0.036895,0.938315
2011-09-26T14:05:40.962555,4950,-0.049543,3.431682,-0.665156,0.028547,0.039617,0.925553
2011-09-26T14:05:40.972555,4960,-0.122655,3.396234,-0.659581,0.026871,0.042340,0.912790
2011-09-26T14:05:40.982555,4970,-0.166345,3.091988,-0.651071,0.025525,0.039906,0.911039
2011-09-26T14:05:40.992555,4980,-0.209476,2.782647,-0.642504,0.024186,0.037375,0.909497
2011-09-26T14:05:41.002555,4990,-0.252608,2.473306,-0.633938,0.022847,0.034843,0.907955
2011-09-26T14:05:41.012555,5000,-0.295740,2.163965,-0.625372,0.021507,0.032312,0.906413
2011-09-26T14:05:41.022555,5010,-0.338872,1.854624,-0.616805,0.020168,0.029781,0.904871
2011-09-26T14:05:41.032555,5020,-0.382004,1.545283,-0.608239,0.018829,0.027250,0.903329
2011-09-26T14:05:41.042555,5030,-0.425135,1.235942,-0.599673,0.017489,0.024718,0.901787
2011-09-26T14:05:41.052555,5040,-0.468267,0.926601,-0.591106,0.016150,0.022187,0.900245
2011-09-26T14:05:41.062555,5050,-0.511399,0.617260,-0.582540,0.014811,0.019656,0.898703
2011-09-26T14:05:41.072555,5060,-0.554531,0.307919,-0.573974,0.013472,0.017124,0.897161
2011-09-26T14:05:41.082555,5070,-0.509612,0.071025,-0.552733,0.014653,0.014638,0.905473
2011-09-26T14:05:41.092555,5080,-0.461471,-0.163217,-0.531029,0.015927,0.012153,0.914146
2011-09-26T14:05:41.102555,5090,-0.413330,-0.397460,-0.509324,0.017200,0.009668,0.922818
2011-09-26T14:05:41.112555,5100,-0.365190,-0.631702,-0.487619,0.018474,0.007183,0.931491
2011-09-26T14:05:41.122555,5110,-0.317049,-0.865945,-0.465915,0.019747,0.004698,0.940164
2011-09-26T14:05:41.132555,5120,-0.268908,-1.100187,-0.444210,0.021021,0.002213,0.948837
2011-09-26T14:05:41.142555,5130,-0.220767,-1.334430,-0.422506,0.022295,-0.000272,0.957510
2011-09-26T14:05:41.152555,5140,-0.172626,-1.568672,-0.400801,0.023568,-0.002757,0.966183
2011-09-26T14:05:41.162555,5150,-0.124485,-1.802915,-0.379096,0.024842,-0.005242,0.974856
2011-09-26T14:05:41.172555,5160,-0.076344,-2.037157,-0.357392,0.026115,-0.007727,0.983529
2011-09-26T14:05:41.182555,5170,-0.021433,-2.017806,-0.334316,0.027821,-0.004720,0.988830
2011-09-26T14:05:41.192555,5180,0.033640,-1.992408,-0.311208,0.029537,-0.001583,0.994052
2011-09-26T14:05:41.202555,5190,0.088713,-1.967010,-0.288099,0.031253,0.001554,0.999274
2011-09-26T14:05:41.212555,5200,0.143786,-1.941612,-0.264991,0.032969,0.004692,1.004495
2011-09-26T14:05:41.222555,5210,0.198859,-1.916214,-0.241883,0.034685,0.007829,1.009717
2011-09-26T14:05:41.232555,5220,0.253932,-1.890816,-0.218774,0.036401,0.010967,1.014938
2011-09-26T14:05:41.242555,5230,0.309005,-1.865418,-0.195666,0.038117,0.014104,1.020160
2011-09-26T14:05:41.252555,5240,0.364078,-1.840020,-0.172557,0.039833,0.017241,1.025381
2011-09-26T14:05:41.262555,5250,0.419151,-1.814622,-0.149449,0.041549,0.020379,1.030603
2011-09-26T14:05:41.272555,5260,0.474224,-1.789224,-0.126341,0.043265,0.023516,1.035824
2011-09-26T14:05:41.282555,5270,0.489057,-1.777689,-0.126014,0.043680,0.022896,1.034991
2011-09-26T14:05:41.292555,5280,0.502972,-1.766471,-0.126207,0.044065,0.022190,1.034019
2011-09-26T14:05:41.302555,5290,0.516886,-1.755253,-0.126400,0.044450,0.021485,1.033047
2011-09-26T14:05:41.312555,5300,0.530801,-1.744035,-0.126593,0.044836,0.020779,1.032075
2011-09-26T14:05:41.322555,5310,0.544715,-1.732817,-0.126786,0.045221,0.020073,1.031104
2011-09-26T14:05:41.332555,5320,0.558630,-1.721600,-0.126979,0.045606,0.019368,1.030132
2011-09-26T14:05:41.342555,5330,0.572544,-1.710382,-0.127172,0.045991,0.018662,1.029160
2011-09-26T14:05:41.352555,5340,0.586459,-1.699164,-0.127365,0.046376,0.017956,1.028188
2011-09-26T14:05:41.362555,5350,0.600373,-1.687946,-0.127558,0.046762,0.017250,1.027216
2011-09-26T14:05:41.372555,5360,0.614288,-1.676728,-0.127751,0.047147,0.016545,1.026244
2011-09-26T14:05:41.382555,5370,0.628202,-1.665510,-0.127944,0.047532,0.015839,1.025273
2011-09-26T14:05:41.392555,5380,0.638270,-1.575578,-0.099375,0.048340,0.017494,1.026184
2011-09-26T14:05:41.402555,5390,0.648245,-1.483769,-0.070121,0.049158,0.019205,1.027140
2011-09-26T14:05:41.412555,5400,0.658221,-1.391960,-0.040867,0.049976,0.020917,1.028097
2011-09-26T14:05:41.422555,5410,0.668197,-1.300151,-0.011612,0.050794,0.022628,1.029053
2011-09-26T14:05:41.432555,5420,0.678173,-1.208342,0.017642,0.051612,0.024339,1.030009
2011-09-26T14:05:41.442555,5430,0.688148,-1.116533,0.046896,0.052430,0.026051,1.030965
2011-09-26T14:05:41.452555,5440,0.698124,-1.024724,0.076151,0.053248,0.027762,1.031922
2011-09-26T14:05:41.462555,5450,0.708100,-0.932915,0.105405,0.054066,0.029473,1.032878
2011-09-26T14:05:41.472555,5460,0.718076,-0.841106,0.134659,0.054884,0.031185,1.033834
2011-09-26T14:05:41.482555,5470,0.728051,-0.749297,0.163914,0.055702,0.032896,1.034790
2011-09-26T14:05:41.492555,5480,0.653602,-0.689183,0.199991,0.055167,0.034093,1.030279
2011-09-26T14:05:41.502555,5490,0.577111,-0.629836,0.236234,0.054599,0.035277,1.025636
2011-09-26T14:05:41.512555,5500,0.500620,-0.570488,0.272477,0.054032,0.036461,1.020993
2011-09-26T14:05:41.522555,5510,0.424129,-0.511141,0.308719,0.053464,0.037645,1.016350
2011-09-26T14:05:41.532555,5520,0.347638,-0.451793,0.344962,0.052896,0.038829,1.011707
2011-09-26T14:05:41.542555,5530,0.271147,-0.392446,0.381204,0.052329,0.040013,1.007064
2011-09-26T14:05:41.552555,5540,0.194656,-0.333099,0.417447,0.051761,0.041197,1.002421
2011-09-26T14:05:41.562555,5550,0.118165,-0.273751,0.453690,0.051193,0.042382,0.997778
2011-09-26T14:05:41.572555,5560,0.041674,-0.214404,0.489932,0.050626,0.043566,0.993135
2011-09-26T14:05:41.582555,5570,-0.034817,-0.155056,0.526175,0.050058,0.044750,0.988491
2011-09-26T14:05:41.592555,5580,0.081550,-0.135366,0.529706,0.050617,0.043494,0.992204
2011-09-26T14:05:41.602555,5590,0.203537,-0.116831,0.532284,0.051208,0.042167,0.996161
2011-09-26T14:05:41.612555,5600,0.325524,-0.098296,0.534862,0.051799,0.040841,1.000117
2011-09-26T14:05:41.622555,5610,0.447512,-0.079761,0.537440,0.052390,0.039514,1.004074
2011-09-26T14:05:41.632555,5620,0.569499,-0.061226,0.540018,0.052982,0.038187,1.008030
2011-09-26T14:05:41.642555,5630,0.691486,-0.042691,0.542596,0.053573,0.036860,1.011986
2011-09-26T14:05:41.652555,5640,0.813474,-0.024157,0.545174,0.054164,0.035534,1.015943
2011-09-26T14:05:41.662555,5650,0.935461,-0.005622,0.547752,0.054755,0.034207,1.019899
2011-09-26T14:05:41.672555,5660,1.057448,0.012913,0.550330,0.055346,0.032880,1.023856
2011-09-26T14:05:41.682555,5670,1.179436,0.031448,0.552908,0.055938,0.031554,1.027812
2011-09-26T14:05:41.692555,5680,1.301423,0.049983,0.555486,0.056529,0.030227,1.031769
2011-09-26T14:05:41.702555,5690,1.324948,0.098434,0.558987,0.056717,0.031686,1.027375
2011-09-26T14:05:41.712555,5700,1.345989,0.147640,0.562511,0.056895,0.033216,1.022771
2011-09-26T14:05:41.722555,5710,1.367030,0.196846,0.566036,0.057073,0.034745,1.018166
2011-09-26T14:05:41.732555,5720,1.388071,0.246053,0.569560,0.057251,0.036275,1.013562
2011-09-26T14:05:41.742555,5730,1.409112,0.295259,0.573085,0.057428,0.037804,1.008958
2011-09-26T14:05:41.752555,5740,1.430153,0.344465,0.576609,0.057606,0.039334,1.004353
2011-09-26T14:05:41.762555,5750,1.451194,0.393671,0.580133,0.057784,0.040863,0.999749
2011-09-26T14:05:41.772555,5760,1.472235,0.442878,0.583658,0.057962,0.042393,0.995145
2011-09-26T14:05:41.782555,5770,1.493276,0.492084,0.587182,0.058140,0.043922,0.990540
2011-09-26T14:05:41.792555,5780,1.514317,0.541290,0.590706,0.058318,0.045452,0.985936
2011-09-26T14:05:41.802555,5790,1.453983,0.480531,0.603099,0.058559,0.045597,0.985223
2011-09-26T14:05:41.812555,5800,1.391535,0.416915,0.615721,0.058802,0.045705,0.984611
2011-09-26T14:05:41.822555,5810,1.329087,0.353300,0.628344,0.059045,0.045814,0.983998
2011-09-26T14:05:41.832555,5820,1.266639,0.289684,0.640967,0.059287,0.045923,0.983386
2011-09-26T14:05:41.842555,5830,1.204190,0.226069,0.653589,0.059530,0.046032,0.982774
2011-09-26T14:05:41.852555,5840,1.141742,0.162453,0.666212,0.059773,0.046141,0.982162
2011-09-26T14:05:41.862555,5850,1.079294,0.098837,0.678835,0.060016,0.046249,0.981549
2011-09-26T14:05:41.872555,5860,1.016846,0.035222,0.691458,0.060259,0.046358,0.980937
2011-09-26T14:05:41.882555,5870,0.954398,-0.028394,0.704080,0.060502,0.046467,0.980325
2011-09-26T14:05:41.892555,5880,0.891950,-0.092009,0.716703,0.060744,0.046576,0.979713
2011-09-26T14:05:41.902555,5890,0.832774,0.041471,0.738222,0.060614,0.047324,0.982867
2011-09-26T14:05:41.912555,5900,0.773683,0.180111,0.759973,0.060474,0.048088,0.986121
2011-09-26T14:05:41.922555,5910,0.714593,0.318752,0.781725,0.060333,0.048852,0.989374
2011-09-26T14:05:41.932555,5920,0.655503,0.457392,0.803476,0.060193,0.049617,0.992627
2011-09-26T14:05:41.942555,5930,0.596413,0.596032,0.825228,0.060053,0.050381,0.995880
2011-09-26T14:05:41.952555,5940,0.537323,0.734672,0.846979,0.059912,0.051146,0.999134
2011-09-26T14:05:41.962555,5950,0.478232,0.873313,0.868731,0.059772,0.051910,1.002387
2011-09-26T14:05:41.972555,5960,0.419142,1.011953,0.890482,0.059632,0.052674,1.005640
2011-09-26T14:05:41.982555,5970,0.360052,1.150593,0.912234,0.059491,0.053439,1.008894
2011-09-26T14:05:41.992555,5980,0.300962,1.289233,0.933985,0.059351,0.054203,1.012147
2011-09-26T14:05:42.002555,5990,0.241871,1.427874,0.955737,0.059211,0.054968,1.015400
2011-09-26T14:05:42.012555,6000,0.207985,1.536884,0.960656,0.058690,0.054938,1.012941
2011-09-26T14:05:42.022555,6010,0.174774,1.645101,0.965124,0.058159,0.054887,1.010328
2011-09-26T14:05:42.032555,6020,0.141563,1.753318,0.969592,0.057627,0.054836,1.007715
2011-09-26T14:05:42.042555,6030,0.108352,1.861534,0.974060,0.057096,0.054785,1.005102
2011-09-26T14:05:42.052555,6040,0.075141,1.969751,0.978528,0.056565,0.054735,1.002490
2011-09-26T14:05:42.062555,6050,0.041931,2.077967,0.982996,0.056034,0.054684,0.999877
2011-09-26T14:05:42.072555,6060,0.008720,2.186184,0.987464,0.055503,0.054633,0.997264
2011-09-26T14:05:42.082555,6070,-0.024491,2.294401,0.991932,0.054971,0.054582,0.994651
2011-09-26T14:05:42.092555,6080,-0.057702,2.402617,0.996400,0.054440,0.054531,0.992039
2011-09-26T14:05:42.102555,6090,-0.090913,2.510834,1.000868,0.053909,0.054480,0.989426
2011-09-26T14:05:42.112555,6100,-0.021211,2.612218,0.986272,0.052680,0.052037,0.989617
2011-09-26T14:05:42.122555,6110,0.053944,2.713241,0.970666,0.051415,0.049466,0.989957
2011-09-26T14:05:42.132555,6120,0.129099,2.814263,0.955060,0.050149,0.046895,0.990296
2011-09-26T14:05:42.142555,6130,0.204255,2.915286,0.939454,0.048884,0.044324,0.990636
2011-09-26T14:05:42.152555,6140,0.279410,3.016309,0.923848,0.047618,0.041754,0.990975
2011-09-26T14:05:42.162555,6150,0.354565,3.117331,0.908242,0.046353,0.039183,0.991315
2011-09-26T14:05:42.172555,6160,0.429720,3.218354,0.892636,0.045087,0.036612,0.991655
2011-09-26T14:05:42.182555,6170,0.504875,3.319376,0.877030,0.043822,0.034042,0.991994
2011-09-26T14:05:42.192555,6180,0.580030,3.420399,0.861425,0.042556,0.031471,0.992334
2011-09-26T14:05:42.202555,6190,0.655185,3.521421,0.845819,0.041291,0.028900,0.992673
2011-09-26T14:05:42.212555,6200,0.543864,3.416224,0.823297,0.037795,0.032285,0.985830
2011-09-26T14:05:42.222555,6210,0.427483,3.305432,0.800587,0.034238,0.035831,0.978791
2011-09-26T14:05:42.232555,6220,0.311102,3.194640,0.777878,0.030682,0.039377,0.971752
2011-09-26T14:05:42.242555,6230,0.194721,3.083848,0.755168,0.027126,0.042923,0.964714
2011-09-26T14:05:42.252555,6240,0.078340,2.973055,0.732459,0.023569,0.046469,0.957675
2011-09-26T14:05:42.262555,6250,-0.038041,2.862263,0.709749,0.020013,0.050015,0.950636
2011-09-26T14:05:42.272555,6260,-0.154422,2.751471,0.687040,0.016456,0.053562,0.943598
2011-09-26T14:05:42.282555,6270,-0.270803,2.640679,0.664330,0.012900,0.057108,0.936559
2011-09-26T14:05:42.292555,6280,-0.387184,2.529887,0.641621,0.009344,0.060654,0.929520
2011-09-26T14:05:42.302555,6290,-0.503565,2.419095,0.618911,0.005787,0.064200,0.922482
2011-09-26T14:05:42.312555,6300,-0.619945,2.308302,0.596202,0.002231,0.067746,0.915443
2011-09-26T14:05:42.322555,6310,-0.785203,2.104981,0.606711,-0.002004,0.069007,0.920036
2011-09-26T14:05:42.332555,6320,-0.951943,1.898855,0.618228,-0.006260,0.070198,0.924981
2011-09-26T14:05:42.342555,6330,-1.118682,1.692728,0.629744,-0.010516,0.071390,0.929926
2011-09-26T14:05:42.352555,6340,-1.285422,1.486602,0.641261,-0.014772,0.072581,0.934871
2011-09-26T14:05:42.362555,6350,-1.452161,1.280476,0.652778,-0.019028,0.073772,0.939817
2011-09-26T14:05:42.372555,6360,-1.618900,1.074350,0.664294,-0.023284,0.074964,0.944762
2011-09-26T14:05:42.382555,6370,-1.785640,0.868224,0.675811,-0.027540,0.076155,0.949707
2011-09-26T14:05:42.392555,6380,-1.952379,0.662097,0.687327,-0.031796,0.077346,0.954652
2011-09-26T14:05:42.402555,6390,-2.119118,0.455971,0.698844,-0.036052,0.078538,0.959597
2011-09-26T14:05:42.412555,6400,-2.285858,0.249845,0.710360,-0.040308,0.079729,0.964542
2011-09-26T14:05:42.422555,6410,-2.252362,-0.185054,0.719056,-0.037982,0.072534,0.960758
2011-09-26T14:05:42.432555,6420,-2.213304,-0.626308,0.727674,-0.035473,0.065105,0.956731
2011-09-26T14:05:42.442555,6430,-2.174247,-1.067562,0.736292,-0.032964,0.057677,0.952704
2011-09-26T14:05:42.452555,6440,-2.135189,-1.508816,0.744909,-0.030455,0.050249,0.948676
2011-09-26T14:05:42.462555,6450,-2.096132,-1.950070,0.753527,-0.027946,0.042820,0.944649
2011-09-26T14:05:42.472555,6460,-2.057074,-2.391324,0.762145,-0.025437,0.035392,0.940622
2011-09-26T14:05:42.482555,6470,-2.018016,-2.832578,0.770762,-0.022928,0.027963,0.936595
2011-09-26T14:05:42.492555,6480,-1.978959,-3.273832,0.779380,-0.020419,0.020535,0.932568
2011-09-26T14:05:42.502555,6490,-1.939901,-3.715085,0.787998,-0.017910,0.013107,0.928541
2011-09-26T14:05:42.512555,6500,-1.900843,-4.156339,0.796615,-0.015401,0.005678,0.924514
2011-09-26T14:05:42.522555,6510,-1.685131,-4.268937,0.806054,-0.009510,0.010084,0.937314
2011-09-26T14:05:42.532555,6520,-1.464293,-4.371999,0.815517,-0.003520,0.014833,0.950601
2011-09-26T14:05:42.542555,6530,-1.243455,-4.475061,0.824980,0.002469,0.019582,0.963889
2011-09-26T14:05:42.552555,6540,-1.022616,-4.578122,0.834443,0.008459,0.024331,0.977177
2011-09-26T14:05:42.562555,6550,-0.801778,-4.681184,0.843906,0.014448,0.029080,0.990465
2011-09-26T14:05:42.572555,6560,-0.580940,-4.784245,0.853369,0.020438,0.033829,1.003753
2011-09-26T14:05:42.582555,6570,-0.360102,-4.887307,0.862832,0.026427,0.038578,1.017041
2011-09-26T14:05:42.592555,6580,-0.139264,-4.990369,0.872296,0.032417,0.043327,1.030328
2011-09-26T14:05:42.602555,6590,0.081574,-5.093430,0.881759,0.038406,0.048076,1.043616
2011-09-26T14:05:42.612555,6600,0.302413,-5.196492,0.891222,0.044396,0.052825,1.056904
2011-09-26T14:05:42.622555,6610,0.523251,-5.299554,0.900685,0.050385,0.057574,1.070192
2011-09-26T14:05:42.632555,6620,0.413844,-4.952452,0.882992,0.050331,0.059736,1.077113
2011-09-26T14:05:42.642555,6630,0.290672,-4.586588,0.864167,0.050024,0.061790,1.083768
2011-09-26T14:05:42.652555,6640,0.167500,-4.220723,0.845342,0.049717,0.063844,1.090423
2011-09-26T14:05:42.662555,6650,0.044328,-3.854858,0.826517,0.049410,0.065898,1.097079
2011-09-26T14:05:42.672555,6660,-0.078844,-3.488993,0.807692,0.049104,0.067952,1.103734
2011-09-26T14:05:42.682555,6670,-0.202017,-3.123128,0.788867,0.048797,0.070006,1.110389
2011-09-26T14:05:42.692555,6680,-0.325189,-2.757263,0.770042,0.048490,0.072060,1.117044
2011-09-26T14:05:42.702555,6690,-0.448361,-2.391398,0.751217,0.048184,0.074115,1.123700
2011-09-26T14:05:42.712555,6700,-0.571533,-2.025533,0.732392,0.047877,0.076169,1.130355
2011-09-26T14:05:42.722555,6710,-0.694705,-1.659668,0.713568,0.047570,0.078223,1.137010
2011-09-26T14:05:42.732555,6720,-0.767732,-1.151257,0.703540,0.041540,0.073901,1.130819
2011-09-26T14:05:42.742555,6730,-0.839300,-0.638695,0.693768,0.035342,0.069393,1.124254
2011-09-26T14:05:42.752555,6740,-0.910867,-0.126133,0.683996,0.029145,0.064886,1.117689
2011-09-26T14:05:42.762555,6750,-0.982434,0.386429,0.674224,0.022948,0.060379,1.111124
2011-09-26T14:05:42.772555,6760,-1.054001,0.898990,0.664453,0.016751,0.055871,1.104559
2011-09-26T14:05:42.782555,6770,-1.125568,1.411552,0.654681,0.010553,0.051364,1.097994
2011-09-26T14:05:42.792555,6780,-1.197135,1.924114,0.644909,0.004356,0.046856,1.091429
2011-09-26T14:05:42.802555,6790,-1.268702,2.436676,0.635137,-0.001841,0.042349,1.084864
2011-09-26T14:05:42.812555,6800,-1.340269,2.949238,0.625366,-0.008038,0.037841,1.078299
2011-09-26T14:05:42.822555,6810,-1.411836,3.461799,0.615594,-0.014236,0.033334,1.071734
2011-09-26T14:05:42.832555,6820,-1.237342,3.389896,0.648287,-0.013082,0.031693,1.057084
2011-09-26T14:05:42.842555,6830,-1.054891,3.299093,0.682352,-0.011691,0.030144,1.042172
2011-09-26T14:05:42.852555,6840,-0.872440,3.208291,0.716418,-0.010300,0.028596,1.027260
2011-09-26T14:05:42.862555,6850,-0.689989,3.117488,0.750483,-0.008909,0.027047,1.012348
2011-09-26T14:05:42.872555,6860,-0.507538,3.026685,0.784549,-0.007518,0.025498,0.997436
2011-09-26T14:05:42.882555,6870,-0.325087,2.935883,0.818615,-0.006127,0.023950,0.982524
2011-09-26T14:05:42.892555,6880,-0.142636,2.845080,0.852680,-0.004736,0.022401,0.967613
2011-09-26T14:05:42.902555,6890,0.039815,2.754278,0.886746,-0.003345,0.020853,0.952701
2011-09-26T14:05:42.912555,6900,0.222266,2.663475,0.920812,-0.001954,0.019304,0.937789
2011-09-26T14:05:42.922555,6910,0.404717,2.572672,0.954877,-0.000563,0.017756,0.922877
2011-09-26T14:05:42.932555,6920,0.587169,2.481870,0.988943,0.000828,0.016207,0.907965
2011-09-26T14:05:42.942555,6930,0.702821,2.236019,0.993506,-0.001018,0.020094,0.910717
2011-09-26T14:05:42.952555,6940,0.816108,1.984678,0.997024,-0.002978,0.024174,0.914095
2011-09-26T14:05:42.962555,6950,0.929395,1.733337,1.000542,-0.004939,0.028253,0.917473
2011-09-26T14:05:42.972555,6960,1.042682,1.481995,1.004060,-0.006899,0.032333,0.920851
2011-09-26T14:05:42.982555,6970,1.155969,1.230654,1.007578,-0.008860,0.036412,0.924229
2011-09-26T14:05:42.992555,6980,1.269256,0.979313,1.011096,-0.010820,0.040492,0.927607
2011-09-26T14:05:43.002555,6990,1.382543,0.727971,1.014615,-0.012781,0.044571,0.930985
2011-09-26T14:05:43.012555,7000,1.495830,0.476630,1.018133,-0.014741,0.048651,0.934362
2011-09-26T14:05:43.022555,7010,1.609117,0.225289,1.021651,-0.016702,0.052730,0.937740
2011-09-26T14:05:43.032555,7020,1.722404,-0.026053,1.025169,-0.018662,0.056810,0.941118
2011-09-26T14:05:43.042555,7030,1.674279,-0.214146,1.005587,-0.017424,0.058660,0.945459
2011-09-26T14:05:43.052555,7040,1.616830,-0.398585,0.984670,-0.016002,0.060381,0.949856
2011-09-26T14:05:43.062555,7050,1.559380,-0.583024,0.963753,-0.014579,0.062102,0.954252
2011-09-26T14:05:43.072555,7060,1.501931,-0.767463,0.942836,-0.013157,0.063824,0.958649
2011-09-26T14:05:43.082555,7070,1.444482,-0.951903,0.921919,-0.011734,0.065545,0.963045
2011-09-26T14:05:43.092555,7080,1.387032,-1.136342,0.901003,-0.010311,0.067266,0.967442
2011-09-26T14:05:43.102555,7090,1.329583,-1.320781,0.880086,-0.008889,0.068988,0.971838
2011-09-26T14:05:43.112555,7100,1.272134,-1.505220,0.859169,-0.007466,0.070709,0.976234
2011-09-26T14:05:43.122555,7110,1.214684,-1.689659,0.838252,-0.006044,0.072430,0.980631
2011-09-26T14:05:43.132555,7120,1.157235,-1.874098,0.817336,-0.004621,0.074152,0.985027
2011-09-26T14:05:43.142555,7130,1.007291,-1.812709,0.803388,-0.001260,0.073322,0.985031
2011-09-26T14:05:43.152555,7140,0.853763,-1.741794,0.789710,0.002176,0.072393,0.984865
2011-09-26T14:05:43.162555,7150,0.700235,-1.670878,0.776032,0.005612,0.071464,0.984699
2011-09-26T14:05:43.172555,7160,0.546707,-1.599963,0.762354,0.009049,0.070536,0.984533
2011-09-26T14:05:43.182555,7170,0.393179,-1.529047,0.748676,0.012485,0.069607,0.984367
2011-09-26T14:05:43.192555,7180,0.239651,-1.458132,0.734999,0.015921,0.068679,0.984201
2011-09-26T14:05:43.202555,7190,0.086123,-1.387217,0.721321,0.019357,0.067750,0.984034
2011-09-26T14:05:43.212555,7200,-0.067405,-1.316301,0.707643,0.022794,0.066821,0.983868
2011-09-26T14:05:43.222555,7210,-0.220933,-1.245386,0.693965,0.026230,0.065893,0.983702
2011-09-26T14:05:43.232555,7220,-0.374461,-1.174470,0.680287,0.029666,0.064964,0.983536
2011-09-26T14:05:43.242555,7230,-0.527989,-1.103555,0.666610,0.033102,0.064035,0.983370
2011-09-26T14:05:43.252555,7240,-0.668003,-1.130185,0.634719,0.032981,0.056943,0.984722
2011-09-26T14:05:43.262555,7250,-0.807555,-1.160145,0.602206,0.032738,0.049640,0.986126
2011-09-26T14:05:43.272555,7260,-0.947107,-1.190104,0.569694,0.032495,0.042338,0.987530
2011-09-26T14:05:43.282555,7270,-1.086659,-1.220064,0.537181,0.032252,0.035035,0.988934
2011-09-26T14:05:43.292555,7280,-1.226211,-1.250024,0.504669,0.032009,0.027732,0.990337
2011-09-26T14:05:43.302555,7290,-1.365763,-1.279983,0.472156,0.031766,0.020430,0.991741
2011-09-26T14:05:43.312555,7300,-1.505315,-1.309943,0.439644,0.031523,0.013127,0.993145
2011-09-26T14:05:43.322555,7310,-1.644867,-1.339903,0.407131,0.031280,0.005824,0.994549
2011-09-26T14:05:43.332555,7320,-1.784419,-1.369862,0.374619,0.031037,-0.001479,0.995953
2011-09-26T14:05:43.342555,7330,-1.923971,-1.399822,0.342106,0.030794,-0.008781,0.997357
2011-09-26T14:05:43.352555,7340,-1.890205,-1.209619,0.305659,0.031283,-0.001218,1.000736
2011-09-26T14:05:43.362555,7350,-1.849929,-1.011146,0.269064,0.031799,0.006904,1.004189
2011-09-26T14:05:43.372555,7360,-1.809653,-0.812672,0.232469,0.032315,0.015026,1.007642
2011-09-26T14:05:43.382555,7370,-1.769377,-0.614199,0.195873,0.032831,0.023149,1.011095
2011-09-26T14:05:43.392555,7380,-1.729100,-0.415725,0.159278,0.033347,0.031271,1.014548
2011-09-26T14:05:43.402555,7390,-1.688824,-0.217252,0.122683,0.033863,0.039393,1.018001
2011-09-26T14:05:43.412555,7400,-1.648548,-0.018778,0.086088,0.034379,0.047515,1.021455
2011-09-26T14:05:43.422555,7410,-1.608272,0.179695,0.049493,0.034895,0.055637,1.024908
2011-09-26T14:05:43.432555,7420,-1.567995,0.378168,0.012898,0.035411,0.063759,1.028361
2011-09-26T14:05:43.442555,7430,-1.527719,0.576642,-0.023697,0.035927,0.071881,1.031814
2011-09-26T14:05:43.452555,7440,-1.719231,0.580834,-0.037741,0.037407,0.068994,1.024854
2011-09-26T14:05:43.462555,7450,-1.919774,0.577457,-0.050906,0.038925,0.065679,1.017488
2011-09-26T14:05:43.472555,7460,-2.120317,0.574080,-0.064072,0.040442,0.062363,1.010122
2011-09-26T14:05:43.482555,7470,-2.320860,0.570703,-0.077237,0.041960,0.059047,1.002757
2011-09-26T14:05:43.492555,7480,-2.521403,0.567326,-0.090402,0.043477,0.055732,0.995391
2011-09-26T14:05:43.502555,7490,-2.721946,0.563949,-0.103567,0.044995,0.052416,0.988025
2011-09-26T14:05:43.512555,7500,-2.922489,0.560572,-0.116733,0.046512,0.049101,0.980659
2011-09-26T14:05:43.522555,7510,-3.123032,0.557195,-0.129898,0.048030,0.045785,0.973294
2011-09-26T14:05:43.532555,7520,-3.323575,0.553818,-0.143063,0.049547,0.042469,0.965928
2011-09-26T14:05:43.542555,7530,-3.524118,0.550441,-0.156228,0.051065,0.039154,0.958562
2011-09-26T14:05:43.552555,7540,-3.724661,0.547064,-0.169394,0.052582,0.035838,0.951197
2011-09-26T14:05:43.562555,7550,-3.648031,0.791151,-0.238535,0.051146,0.030876,0.962953
2011-09-26T14:05:43.572555,7560,-3.557061,1.048041,-0.310573,0.049557,0.025828,0.975699
2011-09-26T14:05:43.582555,7570,-3.466091,1.304932,-0.382610,0.047969,0.020780,0.988446
2011-09-26T14:05:43.592555,7580,-3.375121,1.561822,-0.454648,0.046380,0.015732,1.001192
2011-09-26T14:05:43.602555,7590,-3.284151,1.818712,-0.526686,0.044791,0.010684,1.013938
2011-09-26T14:05:43.612555,7600,-3.193181,2.075603,-0.598723,0.043202,0.005637,1.026684
2011-09-26T14:05:43.622555,7610,-3.102210,2.332493,-0.670761,0.041613,0.000589,1.039430
2011-09-26T14:05:43.632555,7620,-3.011240,2.589384,-0.742799,0.040025,-0.004459,1.052176
2011-09-26T14:05:43.642555,7630,-2.920270,2.846274,-0.814836,0.038436,-0.009507,1.064922
2011-09-26T14:05:43.652555,7640,-2.829300,3.103164,-0.886874,0.036847,-0.014555,1.077668
2011-09-26T14:05:43.662555,7650,-2.655520,3.165493,-0.899183,0.035406,-0.019562,1.065491
2011-09-26T14:05:43.672555,7660,-2.478825,3.220972,-0.909390,0.033971,-0.024568,1.052435
2011-09-26T14:05:43.682555,7670,-2.302130,3.276451,-0.919596,0.032536,-0.029574,1.039380
2011-09-26T14:05:43.692555,7680,-2.125435,3.331931,-0.929803,0.031100,-0.034580,1.026325
2011-09-26T14:05:43.702555,7690,-1.948740,3.387410,-0.940009,0.029665,-0.039586,1.013270
2011-09-26T14:05:43.712555,7700,-1.772045,3.442889,-0.950216,0.028230,-0.044592,1.000214
2011-09-26T14:05:43.722555,7710,-1.595350,3.498368,-0.960422,0.026795,-0.049598,0.987159
2011-09-26T14:05:43.732555,7720,-1.418655,3.553847,-0.970629,0.025359,-0.054604,0.974104
2011-09-26T14:05:43.742555,7730,-1.241960,3.609326,-0.980835,0.023924,-0.059610,0.961049
2011-09-26T14:05:43.752555,7740,-1.065265,3.664805,-0.991042,0.022489,-0.064616,0.947993
2011-09-26T14:05:43.762555,7750,-0.961146,3.382090,-0.984274,0.020088,-0.059259,0.942519
2011-09-26T14:05:43.772555,7760,-0.859724,3.086813,-0.976876,0.017651,-0.053517,0.937327
2011-09-26T14:05:43.782555,7770,-0.758301,2.791535,-0.969477,0.015215,-0.047774,0.932134
2011-09-26T14:05:43.792555,7780,-0.656878,2.496258,-0.962079,0.012778,-0.042032,0.926942
2011-09-26T14:05:43.802555,7790,-0.555455,2.200980,-0.954681,0.010341,-0.036289,0.921749
2011-09-26T14:05:43.812555,7800,-0.454032,1.905703,-0.947282,0.007905,-0.030547,0.916557
2011-09-26T14:05:43.822555,7810,-0.352610,1.610425,-0.939884,0.005468,-0.024804,0.911364
2011-09-26T14:05:43.832555,7820,-0.251187,1.315147,-0.932486,0.003032,-0.019062,0.906172
2011-09-26T14:05:43.842555,7830,-0.149764,1.019870,-0.925087,0.000595,-0.013319,0.900979
2011-09-26T14:05:43.852555,7840,-0.048341,0.724592,-0.917689,-0.001842,-0.007577,0.895787
2011-09-26T14:05:43.862555,7850,0.053082,0.429315,-0.910291,-0.004278,-0.001835,0.890594
2011-09-26T14:05:43.872555,7860,0.245707,0.134188,-0.901405,-0.005051,-0.006576,0.899418
2011-09-26T14:05:43.882555,7870,0.441584,-0.160934,-0.892467,-0.005764,-0.011691,0.908743
2011-09-26T14:05:43.892555,7880,0.637461,-0.456056,-0.883528,-0.006477,-0.016807,0.918067
2011-09-26T14:05:43.902555,7890,0.833338,-0.751178,-0.874590,-0.007191,-0.021922,0.927391
2011-09-26T14:05:43.912555,7900,1.029216,-1.046299,-0.865652,-0.007904,-0.027037,0.936715
2011-09-26T14:05:43.922555,7910,1.225093,-1.341421,-0.856713,-0.008617,-0.032152,0.946039
2011-09-26T14:05:43.932555,7920,1.420970,-1.636543,-0.847775,-0.009330,-0.037268,0.955363
2011-09-26T14:05:43.942555,7930,1.616847,-1.931664,-0.838836,-0.010044,-0.042383,0.964687
2011-09-26T14:05:43.952555,7940,1.812724,-2.226786,-0.829898,-0.010757,-0.047498,0.974011
2011-09-26T14:05:43.962555,7950,2.008601,-2.521908,-0.820959,-0.011470,-0.052614,0.983336
2011-09-26T14:05:43.972555,7960,2.072679,-2.504413,-0.784822,-0.005362,-0.046915,0.993157
2011-09-26T14:05:43.982555,7970,2.131834,-2.475241,-0.747669,0.001002,-0.040812,1.002996
2011-09-26T14:05:43.992555,7980,2.190988,-2.446068,-0.710516,0.007365,-0.034709,1.012836
2011-09-26T14:05:44.002555,7990,2.250143,-2.416895,-0.673363,0.013728,-0.028606,1.022676
2011-09-26T14:05:44.012555,8000,2.309298,-2.387723,-0.636210,0.020092,-0.022503,1.032515
2011-09-26T14:05:44.022555,8010,2.368452,-2.358550,-0.599057,0.026455,-0.016400,1.042355
2011-09-26T14:05:44.032555,8020,2.427607,-2.329377,-0.561904,0.032818,-0.010297,1.052195
2011-09-26T14:05:44.042555,8030,2.486761,-2.300205,-0.524751,0.039181,-0.004194,1.062034
2011-09-26T14:05:44.052555,8040,2.545916,-2.271032,-0.487598,0.045545,0.001909,1.071874
2011-09-26T14:05:44.062555,8050,2.605071,-2.241859,-0.450444,0.051908,0.008012,1.081714
2011-09-26T14:05:44.072555,8060,2.478268,-2.131231,-0.440155,0.048578,0.007739,1.082876
2011-09-26T14:05:44.082555,8070,2.338938,-2.015116,-0.431676,0.044595,0.007038,1.083454
2011-09-26T14:05:44.092555,8080,2.199608,-1.899001,-0.423196,0.040612,0.006336,1.084033
2011-09-26T14:05:44.102555,8090,2.060279,-1.782886,-0.414717,0.036629,0.005634,1.084611
2011-09-26T14:05:44.112555,8100,1.920949,-1.666771,-0.406237,0.032646,0.004933,1.085189
2011-09-26T14:05:44.122555,8110,1.781619,-1.550656,-0.397758,0.028662,0.004231,1.085767
2011-09-26T14:05:44.132555,8120,1.642290,-1.434541,-0.389278,0.024679,0.003529,1.086345
2011-09-26T14:05:44.142555,8130,1.502960,-1.318426,-0.380799,0.020696,0.002828,1.086923
2011-09-26T14:05:44.152555,8140,1.363630,-1.202311,-0.372319,0.016713,0.002126,1.087501
2011-09-26T14:05:44.162555,8150,1.224301,-1.086196,-0.363839,0.012730,0.001424,1.088079
2011-09-26T14:05:44.172555,8160,1.084971,-0.970081,-0.355360,0.008747,0.000723,1.088658
2011-09-26T14:05:44.182555,8170,0.981961,-0.896967,-0.365155,0.005260,0.003971,1.079073
2011-09-26T14:05:44.192555,8180,0.880437,-0.825613,-0.375698,0.001794,0.007380,1.069073
2011-09-26T14:05:44.202555,8190,0.778913,-0.754259,-0.386241,-0.001672,0.010790,1.059072
2011-09-26T14:05:44.212555,8200,0.677389,-0.682905,-0.396784,-0.005139,0.014199,1.049072
2011-09-26T14:05:44.222555,8210,0.575866,-0.611551,-0.407327,-0.008605,0.017609,1.039072
2011-09-26T14:05:44.232555,8220,0.474342,-0.540196,-0.417870,-0.012072,0.021018,1.029071
2011-09-26T14:05:44.242555,8230,0.372818,-0.468842,-0.428413,-0.015538,0.024428,1.019071
2011-09-26T14:05:44.252555,8240,0.271294,-0.397488,-0.438956,-0.019005,0.027837,1.009071
2011-09-26T14:05:44.262555,8250,0.169770,-0.326134,-0.449499,-0.022471,0.031247,0.999070
2011-09-26T14:05:44.272555,8260,0.068246,-0.254779,-0.460042,-0.025937,0.034656,0.989070
2011-09-26T14:05:44.282555,8270,-0.038084,-0.342162,-0.422859,-0.026048,0.031862,0.984919
2011-09-26T14:05:44.292555,8280,-0.144619,-0.436317,-0.383639,-0.026015,0.028803,0.981017
2011-09-26T14:05:44.302555,8290,-0.251154,-0.530472,-0.344420,-0.025983,0.025743,0.977115
2011-09-26T14:05:44.312555,8300,-0.357689,-0.624627,-0.305201,-0.025950,0.022684,0.973214
2011-09-26T14:05:44.322555,8310,-0.464224,-0.718782,-0.265982,-0.025917,0.019625,0.969312
2011-09-26T14:05:44.332555,8320,-0.570759,-0.812937,-0.226763,-0.025884,0.016565,0.965410
2011-09-26T14:05:44.342555,8330,-0.677294,-0.907092,-0.187544,-0.025852,0.013506,0.961508
2011-09-26T14:05:44.352555,8340,-0.783829,-1.001247,-0.148324,-0.025819,0.010447,0.957607
2011-09-26T14:05:44.362555,8350,-0.890364,-1.095402,-0.109105,-0.025786,0.007388,0.953705
2011-09-26T14:05:44.372555,8360,-0.996899,-1.189557,-0.069886,-0.025754,0.004328,0.949803
2011-09-26T14:05:44.382555,8370,-0.883690,-1.257889,-0.060108,-0.022332,0.005698,0.959846
2011-09-26T14:05:44.392555,8380,-0.761613,-1.325179,-0.051519,-0.018774,0.007247,0.970452
2011-09-26T14:05:44.402555,8390,-0.639536,-1.392469,-0.042929,-0.015216,0.008796,0.981058
2011-09-26T14:05:44.412555,8400,-0.517459,-1.459759,-0.034340,-0.011658,0.010344,0.991664
2011-09-26T14:05:44.422555,8410,-0.395383,-1.527049,-0.025751,-0.008100,0.011893,1.002270
2011-09-26T14:05:44.432555,8420,-0.273306,-1.594339,-0.017161,-0.004541,0.013442,1.012876
2011-09-26T14:05:44.442555,8430,-0.151229,-1.661629,-0.008572,-0.000983,0.014990,1.023482
2011-09-26T14:05:44.452555,8440,-0.029152,-1.728919,0.000018,0.002575,0.016539,1.034088
2011-09-26T14:05:44.462555,8450,0.092925,-1.796210,0.008607,0.006133,0.018088,1.044694
2011-09-26T14:05:44.472555,8460,0.215002,-1.863500,0.017197,0.009691,0.019637,1.055300
2011-09-26T14:05:44.482555,8470,0.337079,-1.930790,0.025786,0.013250,0.021185,1.065906
2011-09-26T14:05:44.492555,8480,0.363320,-1.889457,0.027456,0.014973,0.023521,1.065971
2011-09-26T14:05:44.502555,8490,0.385234,-1.843222,0.028814,0.016613,0.025891,1.065560
2011-09-26T14:05:44.512555,8500,0.407149,-1.796987,0.030172,0.018254,0.028262,1.065149
2011-09-26T14:05:44.522555,8510,0.429063,-1.750752,0.031530,0.019894,0.030633,1.064738
2011-09-26T14:05:44.532555,8520,0.450978,-1.704516,0.032887,0.021535,0.033004,1.064328
2011-09-26T14:05:44.542555,8530,0.472892,-1.658281,0.034245,0.023175,0.035375,1.063917
2011-09-26T14:05:44.552555,8540,0.494806,-1.612046,0.035603,0.024815,0.037745,1.063506
2011-09-26T14:05:44.562555,8550,0.516721,-1.565811,0.036961,0.026456,0.040116,1.063095
2011-09-26T14:05:44.572555,8560,0.538635,-1.519575,0.038319,0.028096,0.042487,1.062684
2011-09-26T14:05:44.582555,8570,0.560550,-1.473340,0.039676,0.029737,0.044858,1.062273
2011-09-26T14:05:44.592555,8580,0.649581,-1.233801,0.051223,0.030949,0.042208,1.061099
2011-09-26T14:05:44.602555,8590,0.741908,-0.984770,0.063270,0.032141,0.039312,1.059887
2011-09-26T14:05:44.612555,8600,0.834236,-0.735739,0.075318,0.033333,0.036416,1.058675
2011-09-26T14:05:44.622555,8610,0.926563,-0.486708,0.087365,0.034524,0.033521,1.057463
2011-09-26T14:05:44.632555,8620,1.018890,-0.237677,0.099412,0.035716,0.030625,1.056252
2011-09-26T14:05:44.642555,8630,1.111217,0.011354,0.111459,0.036908,0.027729,1.055040
2011-09-26T14:05:44.652555,8640,1.203544,0.260385,0.123506,0.038099,0.024833,1.053828
2011-09-26T14:05:44.662555,8650,1.295871,0.509415,0.135554,0.039291,0.021937,1.052617
2011-09-26T14:05:44.672555,8660,1.388198,0.758446,0.147601,0.040483,0.019041,1.051405
2011-09-26T14:05:44.682555,8670,1.480525,1.007477,0.159648,0.041674,0.016145,1.050193
2011-09-26T14:05:44.692555,8680,1.314745,1.305524,0.175533,0.039784,0.016801,1.046355
2011-09-26T14:05:44.702555,8690,1.136742,1.605891,0.191599,0.037747,0.017625,1.042393
2011-09-26T14:05:44.712555,8700,0.958739,1.906259,0.207665,0.035711,0.018448,1.038431
2011-09-26T14:05:44.722555,8710,0.780736,2.206627,0.223732,0.033675,0.019272,1.034469
2011-09-26T14:05:44.732555,8720,0.602733,2.506994,0.239798,0.031638,0.020096,1.030507
2011-09-26T14:05:44.742555,8730,0.424730,2.807362,0.255864,0.029602,0.020920,1.026545
2011-09-26T14:05:44.752555,8740,0.246727,3.107730,0.271931,0.027565,0.021744,1.022582
2011-09-26T14:05:44.762555,8750,0.068724,3.408097,0.287997,0.025529,0.022568,1.018620
2011-09-26T14:05:44.772555,8760,-0.109278,3.708465,0.304063,0.023492,0.023392,1.014658
2011-09-26T14:05:44.782555,8770,-0.287281,4.008833,0.320130,0.021456,0.024216,1.010696
2011-09-26T14:05:44.792555,8780,-0.286959,4.194474,0.293892,0.018611,0.023957,1.003203
2011-09-26T14:05:44.802555,8790,-0.278020,4.374572,0.265610,0.015726,0.023646,0.995540
2011-09-26T14:05:44.812555,8800,-0.269081,4.554669,0.237328,0.012842,0.023335,0.987876
2011-09-26T14:05:44.822555,8810,-0.260142,4.734767,0.209047,0.009958,0.023024,0.980213
2011-09-26T14:05:44.832555,8820,-0.251203,4.914864,0.180765,0.007073,0.022713,0.972549
2011-09-26T14:05:44.842555,8830,-0.242264,5.094962,0.152483,0.004189,0.022402,0.964886
2011-09-26T14:05:44.852555,8840,-0.233325,5.275059,0.124201,0.001305,0.022091,0.957223
2011-09-26T14:05:44.862555,8850,-0.224387,5.455157,0.095919,-0.001580,0.021780,0.949559
2011-09-26T14:05:44.872555,8860,-0.215448,5.635254,0.067638,-0.004464,0.021469,0.941896
2011-09-26T14:05:44.882555,8870,-0.206509,5.815352,0.039356,-0.007348,0.021158,0.934232
2011-09-26T14:05:44.892555,8880,-0.197570,5.995449,0.011074,-0.010233,0.020847,0.926569
2011-09-26T14:05:44.902555,8890,-0.205883,5.831101,0.001055,-0.012545,0.018585,0.924224
2011-09-26T14:05:44.912555,8900,-0.214962,5.651463,-0.008154,-0.014833,0.016237,0.922114
2011-09-26T14:05:44.922555,8910,-0.224041,5.471825,-0.017363,-0.017121,0.013888,0.920005
2011-09-26T14:05:44.932555,8920,-0.233120,5.292187,-0.026571,-0.019408,0.011540,0.917896
2011-09-26T14:05:44.942555,8930,-0.242200,5.112549,-0.035780,-0.021696,0.009191,0.915787
2011-09-26T14:05:44.952555,8940,-0.251279,4.932910,-0.044989,-0.023983,0.006843,0.913677
2011-09-26T14:05:44.962555,8950,-0.260358,4.753272,-0.054197,-0.026271,0.004494,0.911568
2011-09-26T14:05:44.972555,8960,-0.269437,4.573634,-0.063406,-0.028558,0.002146,0.909459
2011-09-26T14:05:44.982555,8970,-0.278516,4.393996,-0.072615,-0.030846,-0.000203,0.907350
2011-09-26T14:05:44.992555,8980,-0.287595,4.214358,-0.081823,-0.033133,-0.002551,0.905240
2011-09-26T14:05:45.002555,8990,-0.382983,3.873126,-0.087169,-0.036669,0.008198,0.898638
2011-09-26T14:05:45.012555,9000,-0.482370,3.524406,-0.092336,-0.040263,0.019555,0.891827
2011-09-26T14:05:45.022555,9010,-0.581757,3.175686,-0.097503,-0.043856,0.030912,0.885017
2011-09-26T14:05:45.032555,9020,-0.681145,2.826965,-0.102670,-0.047450,0.042268,0.878206
2011-09-26T14:05:45.042555,9030,-0.780532,2.478245,-0.107837,-0.051043,0.053625,0.871395
2011-09-26T14:05:45.052555,9040,-0.879919,2.129525,-0.113004,-0.054637,0.064982,0.864585
2011-09-26T14:05:45.062555,9050,-0.979306,1.780805,-0.118171,-0.058230,0.076338,0.857774
2011-09-26T14:05:45.072555,9060,-1.078693,1.432085,-0.123338,-0.061824,0.087695,0.850964
2011-09-26T14:05:45.082555,9070,-1.178081,1.083365,-0.128505,-0.065418,0.099051,0.844153
2011-09-26T14:05:45.092555,9080,-1.277468,0.734645,-0.133672,-0.069011,0.110408,0.837342
2011-09-26T14:05:45.102555,9090,-1.208794,0.192722,-0.183304,-0.066865,0.102984,0.849251
2011-09-26T14:05:45.112555,9100,-1.127934,-0.363210,-0.236159,-0.064303,0.094198,0.862517
2011-09-26T14:05:45.122555,9110,-1.047075,-0.919141,-0.289015,-0.061742,0.085412,0.875783
2011-09-26T14:05:45.132555,9120,-0.966216,-1.475073,-0.341871,-0.059180,0.076625,0.889049
2011-09-26T14:05:45.142555,9130,-0.885356,-2.031004,-0.394727,-0.056618,0.067839,0.902315
2011-09-26T14:05:45.152555,9140,-0.804497,-2.586935,-0.447582,-0.054056,0.059053,0.915581
2011-09-26T14:05:45.162555,9150,-0.723638,-3.142867,-0.500438,-0.051494,0.050267,0.928847
2011-09-26T14:05:45.172555,9160,-0.642778,-3.698798,-0.553294,-0.048932,0.041481,0.942112
2011-09-26T14:05:45.182555,9170,-0.561919,-4.254730,-0.606149,-0.046370,0.032695,0.955378
2011-09-26T14:05:45.192555,9180,-0.481060,-4.810661,-0.659005,-0.043809,0.023909,0.968644
2011-09-26T14:05:45.202555,9190,-0.400200,-5.366593,-0.711861,-0.041247,0.015123,0.981910
2011-09-26T14:05:45.212555,9200,-0.571402,-5.452215,-0.666387,-0.038061,0.011678,0.987339
2011-09-26T14:05:45.222555,9210,-0.754211,-5.516181,-0.616386,-0.034847,0.008479,0.992406
2011-09-26T14:05:45.232555,9220,-0.937019,-5.580148,-0.566385,-0.031633,0.005279,0.997474
2011-09-26T14:05:45.242555,9230,-1.119827,-5.644114,-0.516383,-0.028419,0.002080,1.002541
2011-09-26T14:05:45.252555,9240,-1.302636,-5.708081,-0.466382,-0.025205,-0.001119,1.007609
2011-09-26T14:05:45.262555,9250,-1.485444,-5.772047,-0.416381,-0.021991,-0.004318,1.012676
2011-09-26T14:05:45.272555,9260,-1.668252,-5.836014,-0.366379,-0.018777,-0.007518,1.017744
2011-09-26T14:05:45.282555,9270,-1.851061,-5.899980,-0.316378,-0.015563,-0.010717,1.022811
2011-09-26T14:05:45.292555,9280,-2.033869,-5.963947,-0.266377,-0.012349,-0.013916,1.027879
2011-09-26T14:05:45.302555,9290,-2.216677,-6.027913,-0.216376,-0.009135,-0.017116,1.032946
2011-09-26T14:05:45.312555,9300,-2.007805,-5.700788,-0.220406,-0.006329,-0.015795,1.041490
2011-09-26T14:05:45.322555,9310,-1.780520,-5.355278,-0.226977,-0.003543,-0.014261,1.050198
2011-09-26T14:05:45.332555,9320,-1.553235,-5.009768,-0.233548,-0.000757,-0.012728,1.058906
2011-09-26T14:05:45.342555,9330,-1.325951,-4.664258,-0.240118,0.002029,-0.011195,1.067613
2011-09-26T14:05:45.352555,9340,-1.098666,-4.318747,-0.246689,0.004815,-0.009661,1.076321
2011-09-26T14:05:45.362555,9350,-0.871381,-3.973237,-0.253260,0.007601,-0.008128,1.085028
2011-09-26T14:05:45.372555,9360,-0.644097,-3.627727,-0.259831,0.010387,-0.006595,1.093736
2011-09-26T14:05:45.382555,9370,-0.416812,-3.282217,-0.266401,0.013173,-0.005061,1.102444
2011-09-26T14:05:45.392555,9380,-0.189527,-2.936707,-0.272972,0.015959,-0.003528,1.111151
2011-09-26T14:05:45.402555,9390,0.037757,-2.591197,-0.279543,0.018745,-0.001994,1.119859
2011-09-26T14:05:45.412555,9400,0.265042,-2.245687,-0.286113,0.021531,-0.000461,1.128567
2011-09-26T14:05:45.422555,9410,0.412487,-1.900360,-0.220045,0.021578,0.004410,1.122133
2011-09-26T14:05:45.432555,9420,0.556100,-1.555042,-0.150490,0.021493,0.009442,1.114972
2011-09-26T14:05:45.442555,9430,0.699712,-1.209724,-0.080936,0.021409,0.014474,1.107811
2011-09-26T14:05:45.452555,9440,0.843325,-0.864406,-0.011381,0.021324,0.019506,1.100650
2011-09-26T14:05:45.462555,9450,0.986938,-0.519088,0.058174,0.021239,0.024538,1.093489
2011-09-26T14:05:45.472555,9460,1.130550,-0.173770,0.127729,0.021154,0.029569,1.086329
2011-09-26T14:05:45.482555,9470,1.274163,0.171548,0.197284,0.021070,0.034601,1.079168
2011-09-26T14:05:45.492555,9480,1.417776,0.516866,0.266839,0.020985,0.039633,1.072007
2011-09-26T14:05:45.502555,9490,1.561388,0.862184,0.336393,0.020900,0.044665,1.064846
2011-09-26T14:05:45.512555,9500,1.705001,1.207502,0.405948,0.020815,0.049697,1.057685
2011-09-26T14:05:45.522555,9510,1.680229,1.391883,0.338454,0.018975,0.051994,1.049073
2011-09-26T14:05:45.532555,9520,1.646912,1.568098,0.264006,0.017046,0.054152,1.040387
2011-09-26T14:05:45.542555,9530,1.613596,1.744312,0.189557,0.015117,0.056310,1.031701
2011-09-26T14:05:45.552555,9540,1.580280,1.920527,0.115109,0.013188,0.058468,1.023015
2011-09-26T14:05:45.562555,9550,1.546964,2.096742,0.040660,0.011259,0.060626,1.014329
2011-09-26T14:05:45.572555,9560,1.513647,2.272957,-0.033788,0.009329,0.062784,1.005643
2011-09-26T14:05:45.582555,9570,1.480331,2.449171,-0.108236,0.007400,0.064942,0.996957
2011-09-26T14:05:45.592555,9580,1.447015,2.625386,-0.182685,0.005471,0.067100,0.988271
2011-09-26T14:05:45.602555,9590,1.413698,2.801601,-0.257133,0.003542,0.069258,0.979585
2011-09-26T14:05:45.612555,9600,1.380382,2.977815,-0.331581,0.001613,0.071416,0.970899
2011-09-26T14:05:45.622555,9610,1.295404,3.032804,-0.348059,0.000563,0.066383,0.971356
2011-09-26T14:05:45.632555,9620,1.207535,3.081008,-0.361292,-0.000436,0.060947,0.972324
2011-09-26T14:05:45.642555,9630,1.119665,3.129212,-0.374525,-0.001436,0.055510,0.973293
2011-09-26T14:05:45.652555,9640,1.031796,3.177415,-0.387759,-0.002436,0.050074,0.974261
2011-09-26T14:05:45.662555,9650,0.943927,3.225619,-0.400992,-0.003436,0.044638,0.975230
2011-09-26T14:05:45.672555,9660,0.856057,3.273823,-0.414225,-0.004436,0.039202,0.976199
2011-09-26T14:05:45.682555,9670,0.768188,3.322027,-0.427458,-0.005436,0.033765,0.977167
2011-09-26T14:05:45.692555,9680,0.680318,3.370230,-0.440691,-0.006436,0.028329,0.978136
2011-09-26T14:05:45.702555,9690,0.592449,3.418434,-0.453925,-0.007436,0.022893,0.979104
2011-09-26T14:05:45.712555,9700,0.504580,3.466638,-0.467158,-0.008436,0.017457,0.980073
2011-09-26T14:05:45.722555,9710,0.473724,3.460695,-0.438807,-0.008423,0.022879,0.975818
2011-09-26T14:05:45.732555,9720,0.445775,3.451992,-0.408337,-0.008358,0.028855,0.971297
2011-09-26T14:05:45.742555,9730,0.417827,3.443289,-0.377866,-0.008293,0.034831,0.966776
2011-09-26T14:05:45.752555,9740,0.389878,3.434586,-0.347396,-0.008228,0.040806,0.962255
2011-09-26T14:05:45.762555,9750,0.361929,3.425883,-0.316925,-0.008163,0.046782,0.957734
2011-09-26T14:05:45.772555,9760,0.333980,3.417180,-0.286455,-0.008098,0.052758,0.953213
2011-09-26T14:05:45.782555,9770,0.306032,3.408477,-0.255984,-0.008034,0.058734,0.948692
2011-09-26T14:05:45.792555,9780,0.278083,3.399773,-0.225513,-0.007969,0.064710,0.944171
2011-09-26T14:05:45.802555,9790,0.250134,3.391070,-0.195043,-0.007904,0.070686,0.939650
2011-09-26T14:05:45.812555,9800,0.222185,3.382367,-0.164572,-0.007839,0.076661,0.935129
2011-09-26T14:05:45.822555,9810,0.194236,3.373664,-0.134102,-0.007774,0.082637,0.930608
2011-09-26T14:05:45.832555,9820,0.142150,3.183137,-0.108545,-0.010553,0.076234,0.933640
2011-09-26T14:05:45.842555,9830,0.088805,2.983119,-0.083244,-0.013481,0.069185,0.937066
2011-09-26T14:05:45.852555,9840,0.035459,2.783102,-0.057944,-0.016408,0.062135,0.940492
2011-09-26T14:05:45.862555,9850,-0.017887,2.583084,-0.032643,-0.019335,0.055086,0.943918
2011-09-26T14:05:45.872555,9860,-0.071233,2.383066,-0.007343,-0.022263,0.048036,0.947344
2011-09-26T14:05:45.882555,9870,-0.124579,2.183048,0.017958,-0.025190,0.040987,0.950770
2011-09-26T14:05:45.892555,9880,-0.177925,1.983031,0.043258,-0.028118,0.033938,0.954196
2011-09-26T14:05:45.902555,9890,-0.231271,1.783013,0.068559,-0.031045,0.026888,0.957623
2011-09-26T14:05:45.912555,9900,-0.284617,1.582995,0.093859,-0.033972,0.019839,0.961049
2011-09-26T14:05:45.922555,9910,-0.337963,1.382977,0.119160,-0.036900,0.012789,0.964475
2011-09-26T14:05:45.932555,9920,-0.287070,1.268185,0.161538,-0.037960,0.013774,0.962127
2011-09-26T14:05:45.942555,9930,-0.230873,1.157728,0.204784,-0.038926,0.015168,0.959485
2011-09-26T14:05:45.952555,9940,-0.174676,1.047272,0.248031,-0.039892,0.016561,0.956843
2011-09-26T14:05:45.962555,9950,-0.118480,0.936815,0.291277,-0.040858,0.017955,0.954201
2011-09-26T14:05:45.972555,9960,-0.062283,0.826359,0.334524,-0.041824,0.019348,0.951559
2011-09-26T14:05:45.982555,9970,-0.006086,0.715902,0.377771,-0.042789,0.020741,0.948918
2011-09-26T14:05:45.992555,9980,0.050110,0.605446,0.421017,-0.043755,0.022135,0.946276
2011-09-26T14:05:46.002555,9990,0.106307,0.494989,0.464264,-0.044721,0.023528,0.943634
2011-09-26T14:05:46.012555,10000,0.162503,0.384533,0.507510,-0.045687,0.024922,0.940992
2011-09-26T14:05:46.022555,10010,0.218700,0.274076,0.550757,-0.046652,0.026315,0.938351
2011-09-26T14:05:46.032555,10020,0.332573,0.068716,0.580325,-0.045000,0.023313,0.945655
2011-09-26T14:05:46.042555,10030,0.449090,-0.140995,0.609266,-0.043227,0.020110,0.953415
2011-09-26T14:05:46.052555,10040,0.565606,-0.350705,0.638206,-0.041454,0.016907,0.961175
2011-09-26T14:05:46.062555,10050,0.682123,-0.560415,0.667147,-0.039681,0.013703,0.968935
2011-09-26T14:05:46.072555,10060,0.798640,-0.770125,0.696088,-0.037908,0.010500,0.976695
2011-09-26T14:05:46.082555,10070,0.915156,-0.979835,0.725029,-0.036135,0.007296,0.984455
2011-09-26T14:05:46.092555,10080,1.031673,-1.189546,0.753970,-0.034362,0.004093,0.992215
2011-09-26T14:05:46.102555,10090,1.148190,-1.399256,0.782910,-0.032589,0.000890,0.999975
2011-09-26T14:05:46.112555,10100,1.264706,-1.608966,0.811851,-0.030816,-0.002314,1.007735
2011-09-26T14:05:46.122555,10110,1.381223,-1.818676,0.840792,-0.029043,-0.005517,1.015495
2011-09-26T14:05:46.132555,10120,1.497739,-2.028386,0.869733,-0.027270,-0.008720,1.023256
2011-09-26T14:05:46.142555,10130,1.343228,-2.017398,0.854665,-0.025959,-0.002929,1.024585
2011-09-26T14:05:46.152555,10140,1.168317,-1.989799,0.836285,-0.024683,0.003538,1.025430
2011-09-26T14:05:46.162555,10150,0.993407,-1.962201,0.817905,-0.023407,0.010006,1.026275
2011-09-26T14:05:46.172555,10160,0.818496,-1.934602,0.799525,-0.022131,0.016474,1.027121
2011-09-26T14:05:46.182555,10170,0.643586,-1.907004,0.781145,-0.020855,0.022942,1.027966
2011-09-26T14:05:46.192555,10180,0.468676,-1.879405,0.762765,-0.019579,0.029410,1.028811
2011-09-26T14:05:46.202555,10190,0.293765,-1.851806,0.744385,-0.018303,0.035878,1.029657
2011-09-26T14:05:46.212555,10200,0.118855,-1.824208,0.726005,-0.017027,0.042346,1.030502
2011-09-26T14:05:46.222555,10210,-0.056056,-1.796609,0.707625,-0.015751,0.048813,1.031347
2011-09-26T14:05:46.232555,10220,-0.230966,-1.769010,0.689245,-0.014475,0.055281,1.032193
2011-09-26T14:05:46.242555,10230,-0.396339,-1.696530,0.668497,-0.015842,0.053719,1.032817
2011-09-26T14:05:46.252555,10240,-0.561155,-1.621426,0.647611,-0.017363,0.051687,1.033429
2011-09-26T14:05:46.262555,10250,-0.725971,-1.546323,0.626725,-0.018885,0.049655,1.034040
2011-09-26T14:05:46.272555,10260,-0.890787,-1.471219,0.605839,-0.020406,0.047623,1.034652
2011-09-26T14:05:46.282555,10270,-1.055603,-1.396115,0.584953,-0.021928,0.045591,1.035263
2011-09-26T14:05:46.292555,10280,-1.220419,-1.321011,0.564067,-0.023449,0.043560,1.035875
2011-09-26T14:05:46.302555,10290,-1.385235,-1.245908,0.543181,-0.024971,0.041528,1.036486
2011-09-26T14:05:46.312555,10300,-1.550051,-1.170804,0.522295,-0.026493,0.039496,1.037098
2011-09-26T14:05:46.322555,10310,-1.714867,-1.095700,0.501409,-0.028014,0.037464,1.037710
2011-09-26T14:05:46.332555,10320,-1.879683,-1.020596,0.480523,-0.029536,0.035432,1.038321
2011-09-26T14:05:46.342555,10330,-1.795854,-1.027459,0.501521,-0.029439,0.036082,1.030609
2011-09-26T14:05:46.352555,10340,-1.693711,-1.040359,0.525603,-0.029223,0.036930,1.022284
2011-09-26T14:05:46.362555,10350,-1.591569,-1.053259,0.549686,-0.029007,0.037778,1.013960
2011-09-26T14:05:46.372555,10360,-1.489426,-1.066159,0.573769,-0.028791,0.038626,1.005635
2011-09-26T14:05:46.382555,10370,-1.387283,-1.079060,0.597851,-0.028576,0.039474,0.997310
2011-09-26T14:05:46.392555,10380,-1.285141,-1.091960,0.621934,-0.028360,0.040322,0.988985
2011-09-26T14:05:46.402555,10390,-1.182998,-1.104860,0.646017,-0.028144,0.041169,0.980660
2011-09-26T14:05:46.412555,10400,-1.080855,-1.117760,0.670100,-0.027928,0.042017,0.972335
2011-09-26T14:05:46.422555,10410,-0.978713,-1.130660,0.694182,-0.027712,0.042865,0.964010
2011-09-26T14:05:46.432555,10420,-0.876570,-1.143560,0.718265,-0.027496,0.043713,0.955685
2011-09-26T14:05:46.442555,10430,-0.774428,-1.156460,0.742348,-0.027281,0.044561,0.947360
2011-09-26T14:05:46.452555,10440,-0.807984,-1.097345,0.721071,-0.027939,0.043570,0.952805
2011-09-26T14:05:46.462555,10450,-0.849302,-1.034111,0.697200,-0.028648,0.042474,0.959038
2011-09-26T14:05:46.472555,10460,-0.890621,-0.970876,0.673329,-0.029356,0.041378,0.965270
2011-09-26T14:05:46.482555,10470,-0.931939,-0.907642,0.649458,-0.030065,0.040282,0.971503
2011-09-26T14:05:46.492555,10480,-0.973257,-0.844407,0.625587,-0.030773,0.039186,0.977735
2011-09-26T14:05:46.502555,10490,-1.014575,-0.781173,0.601716,-0.031482,0.038090,0.983968
2011-09-26T14:05:46.512555,10500,-1.055894,-0.717939,0.577845,-0.032190,0.036994,0.990200
2011-09-26T14:05:46.522555,10510,-1.097212,-0.654704,0.553974,-0.032899,0.035897,0.996433
2011-09-26T14:05:46.532555,10520,-1.138530,-0.591470,0.530103,-0.033608,0.034801,1.002665
2011-09-26T14:05:46.542555,10530,-1.179848,-0.528235,0.506232,-0.034316,0.033705,1.008898
2011-09-26T14:05:46.552555,10540,-1.170556,-0.398661,0.472277,-0.031293,0.033570,1.014063
2011-09-26T14:05:46.562555,10550,-1.157213,-0.263776,0.437514,-0.027971,0.033512,1.019142
2011-09-26T14:05:46.572555,10560,-1.143870,-0.128891,0.402752,-0.024649,0.033453,1.024222
2011-09-26T14:05:46.582555,10570,-1.130526,0.005995,0.367990,-0.021327,0.033395,1.029301
2011-09-26T14:05:46.592555,10580,-1.117183,0.140880,0.333227,-0.018005,0.033337,1.034381
2011-09-26T14:05:46.602555,10590,-1.103840,0.275765,0.298465,-0.014683,0.033278,1.039461
2011-09-26T14:05:46.612555,10600,-1.090496,0.410650,0.263702,-0.011361,0.033220,1.044540
2011-09-26T14:05:46.622555,10610,-1.077153,0.545535,0.228940,-0.008039,0.033162,1.049620
2011-09-26T14:05:46.632555,10620,-1.063810,0.680421,0.194178,-0.004717,0.033103,1.054699
2011-09-26T14:05:46.642555,10630,-1.050466,0.815306,0.159415,-0.001394,0.033045,1.059779
2011-09-26T14:05:46.652555,10640,-0.973676,0.983532,0.116188,-0.003435,0.033221,1.054413
2011-09-26T14:05:46.662555,10650,-0.891820,1.154419,0.072285,-0.005904,0.033416,1.048214
2011-09-26T14:05:46.672555,10660,-0.809965,1.325306,0.028381,-0.008373,0.033610,1.042014
2011-09-26T14:05:46.682555,10670,-0.728109,1.496194,-0.015522,-0.010842,0.033805,1.035815
2011-09-26T14:05:46.692555,10680,-0.646254,1.667081,-0.059425,-0.013311,0.034000,1.029615
2011-09-26T14:05:46.702555,10690,-0.564398,1.837969,-0.103328,-0.015780,0.034195,1.023415
2011-09-26T14:05:46.712555,10700,-0.482543,2.008856,-0.147231,-0.018249,0.034389,1.017216
2011-09-26T14:05:46.722555,10710,-0.400687,2.179743,-0.191134,-0.020718,0.034584,1.011016
2011-09-26T14:05:46.732555,10720,-0.318832,2.350631,-0.235038,-0.023187,0.034779,1.004817
2011-09-26T14:05:46.742555,10730,-0.236976,2.521518,-0.278941,-0.025656,0.034974,0.998617
2011-09-26T14:05:46.752555,10740,-0.155121,2.692405,-0.322844,-0.028124,0.035168,0.992418
2011-09-26T14:05:46.762555,10750,-0.226134,2.608336,-0.318345,-0.029405,0.032801,0.989423
2011-09-26T14:05:46.772555,10760,-0.305346,2.510593,-0.311249,-0.030622,0.030296,0.986601
2011-09-26T14:05:46.782555,10770,-0.384558,2.412850,-0.304154,-0.031838,0.027791,0.983778
2011-09-26T14:05:46.792555,10780,-0.463770,2.315107,-0.297059,-0.033055,0.025287,0.980956
2011-09-26T14:05:46.802555,10790,-0.542982,2.217363,-0.289963,-0.034272,0.022782,0.978133
2011-09-26T14:05:46.812555,10800,-0.622193,2.119620,-0.282868,-0.035489,0.020277,0.975311
2011-09-26T14:05:46.822555,10810,-0.701405,2.021877,-0.275773,-0.036706,0.017772,0.972488
2011-09-26T14:05:46.832555,10820,-0.780617,1.924134,-0.268677,-0.037922,0.015267,0.969666
2011-09-26T14:05:46.842555,10830,-0.859829,1.826391,-0.261582,-0.039139,0.012762,0.966843
2011-09-26T14:05:46.852555,10840,-0.939041,1.728647,-0.254487,-0.040356,0.010258,0.964021
2011-09-26T14:05:46.862555,10850,-0.905575,1.548466,-0.246927,-0.040603,0.008272,0.961532
2011-09-26T14:05:46.872555,10860,-0.865612,1.363532,-0.239340,-0.040794,0.006317,0.959062
2011-09-26T14:05:46.882555,10870,-0.825649,1.178597,-0.231752,-0.040985,0.004361,0.956592
2011-09-26T14:05:46.892555,10880,-0.785686,0.993662,-0.224165,-0.041175,0.002406,0.954123
2011-09-26T14:05:46.902555,10890,-0.745723,0.808728,-0.216578,-0.041366,0.000450,0.951653
2011-09-26T14:05:46.912555,10900,-0.705760,0.623793,-0.208991,-0.041557,-0.001505,0.949183
2011-09-26T14:05:46.922555,10910,-0.665796,0.438859,-0.201404,-0.041748,-0.003461,0.946714
2011-09-26T14:05:46.932555,10920,-0.625833,0.253924,-0.193817,-0.041939,-0.005416,0.944244
2011-09-26T14:05:46.942555,10930,-0.585870,0.068990,-0.186230,-0.042130,-0.007372,0.941774
2011-09-26T14:05:46.952555,10940,-0.545907,-0.115945,-0.178643,-0.042321,-0.009327,0.939305
2011-09-26T14:05:46.962555,10950,-0.478386,-0.242632,-0.165697,-0.042167,-0.006964,0.942542
2011-09-26T14:05:46.972555,10960,-0.409245,-0.365897,-0.152436,-0.041993,-0.004348,0.946114
2011-09-26T14:05:46.982555,10970,-0.340104,-0.489162,-0.139175,-0.041820,-0.001731,0.949686
2011-09-26T14:05:46.992555,10980,-0.270964,-0.612426,-0.125914,-0.041646,0.000885,0.953258
2011-09-26T14:05:47.002555,10990,-0.201823,-0.735691,-0.112653,-0.041472,0.003502,0.956831
2011-09-26T14:05:47.012555,11000,-0.132683,-0.858956,-0.099392,-0.041299,0.006119,0.960403
2011-09-26T14:05:47.022555,11010,-0.063542,-0.982221,-0.086131,-0.041125,0.008735,0.963975
2011-09-26T14:05:47.032555,11020,0.005599,-1.105486,-0.072870,-0.040951,0.011352,0.967548
2011-09-26T14:05:47.042555,11030,0.074739,-1.228751,-0.059609,-0.040777,0.013969,0.971120
2011-09-26T14:05:47.052555,11040,0.143880,-1.352015,-0.046348,-0.040604,0.016585,0.974692
2011-09-26T14:05:47.062555,11050,0.213021,-1.475280,-0.033087,-0.040430,0.019202,0.978264
2011-09-26T14:05:47.072555,11060,0.125259,-1.333193,-0.057416,-0.038918,0.022768,0.983375
2011-09-26T14:05:47.082555,11070,0.023776,-1.167899,-0.085033,-0.037290,0.026416,0.988621
2011-09-26T14:05:47.092555,11080,-0.077708,-1.002606,-0.112650,-0.035662,0.030065,0.993867
2011-09-26T14:05:47.102555,11090,-0.179191,-0.837312,-0.140266,-0.034033,0.033713,0.999113
2011-09-26T14:05:47.112555,11100,-0.280674,-0.672019,-0.167883,-0.032405,0.037362,1.004358
2011-09-26T14:05:47.122555,11110,-0.382157,-0.506725,-0.195500,-0.030777,0.041011,1.009604
2011-09-26T14:05:47.132555,11120,-0.483641,-0.341432,-0.223116,-0.029148,0.044659,1.014850
2011-09-26T14:05:47.142555,11130,-0.585124,-0.176138,-0.250733,-0.027520,0.048308,1.020095
2011-09-26T14:05:47.152555,11140,-0.686607,-0.010845,-0.278350,-0.025892,0.051957,1.025341
2011-09-26T14:05:47.162555,11150,-0.788090,0.154449,-0.305967,-0.024263,0.055605,1.030587
2011-09-26T14:05:47.172555,11160,-0.848242,0.323619,-0.322391,-0.023753,0.050242,1.031699
2011-09-26T14:05:47.182555,11170,-0.905848,0.493027,-0.338126,-0.023311,0.044324,1.032557
2011-09-26T14:05:47.192555,11180,-0.963454,0.662436,-0.353861,-0.022870,0.038406,1.033415
2011-09-26T14:05:47.202555,11190,-1.021060,0.831844,-0.369596,-0.022428,0.032488,1.034272
2011-09-26T14:05:47.212555,11200,-1.078666,1.001253,-0.385331,-0.021987,0.026569,1.035130
2011-09-26T14:05:47.222555,11210,-1.136272,1.170661,-0.401065,-0.021545,0.020651,1.035988
2011-09-26T14:05:47.232555,11220,-1.193878,1.340070,-0.416800,-0.021104,0.014733,1.036846
2011-09-26T14:05:47.242555,11230,-1.251484,1.509479,-0.432535,-0.020662,0.008815,1.037704
2011-09-26T14:05:47.252555,11240,-1.309090,1.678887,-0.448270,-0.020221,0.002897,1.038561
2011-09-26T14:05:47.262555,11250,-1.366696,1.848296,-0.464005,-0.019779,-0.003021,1.039419
2011-09-26T14:05:47.272555,11260,-1.305771,1.979545,-0.458274,-0.022062,-0.002222,1.033963
2011-09-26T14:05:47.282555,11270,-1.237650,2.108477,-0.451240,-0.024510,-0.001015,1.028124
2011-09-26T14:05:47.292555,11280,-1.169530,2.237409,-0.444205,-0.026958,0.000193,1.022285
2011-09-26T14:05:47.302555,11290,-1.101410,2.366342,-0.437171,-0.029406,0.001400,1.016446
2011-09-26T14:05:47.312555,11300,-1.033290,2.495274,-0.430137,-0.031855,0.002607,1.010607
2011-09-26T14:05:47.322555,11310,-0.965169,2.624207,-0.423102,-0.034303,0.003814,1.004768
2011-09-26T14:05:47.332555,11320,-0.897049,2.753139,-0.416068,-0.036751,0.005022,0.998929
2011-09-26T14:05:47.342555,11330,-0.828929,2.882072,-0.409034,-0.039199,0.006229,0.993090
2011-09-26T14:05:47.352555,11340,-0.760808,3.011004,-0.401999,-0.041648,0.007436,0.987251
2011-09-26T14:05:47.362555,11350,-0.692688,3.139936,-0.394965,-0.044096,0.008643,0.981412
2011-09-26T14:05:47.372555,11360,-0.624568,3.268869,-0.387931,-0.046544,0.009851,0.975574
2011-09-26T14:05:47.382555,11370,-0.746022,3.131798,-0.382490,-0.047149,0.008844,0.967898
2011-09-26T14:05:47.392555,11380,-0.878489,2.979272,-0.377141,-0.047647,0.007708,0.960116
2011-09-26T14:05:47.402555,11390,-1.010957,2.826747,-0.371793,-0.048145,0.006572,0.952334
2011-09-26T14:05:47.412555,11400,-1.143425,2.674222,-0.366444,-0.048642,0.005436,0.944552
2011-09-26T14:05:47.422555,11410,-1.275893,2.521697,-0.361096,-0.049140,0.004301,0.936770
2011-09-26T14:05:47.432555,11420,-1.408360,2.369172,-0.355747,-0.049638,0.003165,0.928988
2011-09-26T14:05:47.442555,11430,-1.540828,2.216647,-0.350399,-0.050136,0.002029,0.921206
2011-09-26T14:05:47.452555,11440,-1.673296,2.064121,-0.345050,-0.050634,0.000893,0.913424
2011-09-26T14:05:47.462555,11450,-1.805763,1.911596,-0.339702,-0.051132,-0.000243,0.905641
2011-09-26T14:05:47.472555,11460,-1.938231,1.759071,-0.334353,-0.051629,-0.001378,0.897859
2011-09-26T14:05:47.482555,11470,-1.639421,1.612715,-0.340788,-0.050320,-0.006728,0.907160
2011-09-26T14:05:47.492555,11480,-1.314385,1.466733,-0.347939,-0.048901,-0.012335,0.917500
2011-09-26T14:05:47.502555,11490,-0.989348,1.320752,-0.355090,-0.047481,-0.017941,0.927839
2011-09-26T14:05:47.512555,11500,-0.664312,1.174770,-0.362241,-0.046062,-0.023548,0.938179
2011-09-26T14:05:47.522555,11510,-0.339275,1.028789,-0.369392,-0.044643,-0.029154,0.948518
2011-09-26T14:05:47.532555,11520,-0.014239,0.882808,-0.376543,-0.043223,-0.034760,0.958858
2011-09-26T14:05:47.542555,11530,0.310797,0.736826,-0.383694,-0.041804,-0.040367,0.969197
2011-09-26T14:05:47.552555,11540,0.635834,0.590845,-0.390845,-0.040385,-0.045973,0.979537
2011-09-26T14:05:47.562555,11550,0.960870,0.444864,-0.397996,-0.038965,-0.051580,0.989876
2011-09-26T14:05:47.572555,11560,1.285906,0.298882,-0.405147,-0.037546,-0.057186,1.000216
2011-09-26T14:05:47.582555,11570,1.480678,0.229600,-0.362638,-0.040330,-0.051938,0.998902
2011-09-26T14:05:47.592555,11580,1.665509,0.166169,-0.316341,-0.043435,-0.045861,0.996699
2011-09-26T14:05:47.602555,11590,1.850341,0.102739,-0.270043,-0.046539,-0.039784,0.994496
2011-09-26T14:05:47.612555,11600,2.035172,0.039309,-0.223745,-0.049644,-0.033707,0.992292
2011-09-26T14:05:47.622555,11610,2.220003,-0.024121,-0.177447,-0.052749,-0.027631,0.990089
2011-09-26T14:05:47.632555,11620,2.404835,-0.087551,-0.131149,-0.055853,-0.021554,0.987886
2011-09-26T14:05:47.642555,11630,2.589666,-0.150981,-0.084851,-0.058958,-0.015477,0.985683
2011-09-26T14:05:47.652555,11640,2.774497,-0.214411,-0.038553,-0.062063,-0.009400,0.983480
2011-09-26T14:05:47.662555,11650,2.959329,-0.277841,0.007745,-0.065168,-0.003324,0.981277
2011-09-26T14:05:47.672555,11660,3.144160,-0.341271,0.054043,-0.068272,0.002753,0.979074
2011-09-26T14:05:47.682555,11670,3.328991,-0.404701,0.100341,-0.071377,0.008830,0.976871
2011-09-26T14:05:47.692555,11680,2.783325,-0.633146,0.089393,-0.069975,0.017787,0.974211
2011-09-26T14:05:47.702555,11690,2.191851,-0.871939,0.074854,-0.068291,0.026924,0.971524
2011-09-26T14:05:47.712555,11700,1.600376,-1.110732,0.060316,-0.066606,0.036061,0.968836
2011-09-26T14:05:47.722555,11710,1.008901,-1.349525,0.045777,-0.064922,0.045198,0.966148
2011-09-26T14:05:47.732555,11720,0.417426,-1.588318,0.031239,-0.063237,0.054336,0.963460
2011-09-26T14:05:47.742555,11730,-0.174049,-1.827111,0.016700,-0.061552,0.063473,0.960773
2011-09-26T14:05:47.752555,11740,-0.765524,-2.065904,0.002162,-0.059868,0.072610,0.958085
2011-09-26T14:05:47.762555,11750,-1.356999,-2.304697,-0.012377,-0.058183,0.081747,0.955397
2011-09-26T14:05:47.772555,11760,-1.948473,-2.543490,-0.026915,-0.056499,0.090884,0.952709
2011-09-26T14:05:47.782555,11770,-2.539948,-2.782283,-0.041453,-0.054814,0.100022,0.950021
2011-09-26T14:05:47.792555,11780,-3.131423,-3.021076,-0.055992,-0.053130,0.109159,0.947334
2011-09-26T14:05:47.802555,11790,-2.970653,-3.241129,-0.048682,-0.052937,0.093208,0.953773
2011-09-26T14:05:47.812555,11800,-2.762461,-3.460001,-0.039995,-0.052839,0.075676,0.960789
2011-09-26T14:05:47.822555,11810,-2.554270,-3.678873,-0.031308,-0.052741,0.058144,0.967804
2011-09-26T14:05:47.832555,11820,-2.346078,-3.897745,-0.022621,-0.052642,0.040612,0.974819
2011-09-26T14:05:47.842555,11830,-2.137886,-4.116617,-0.013934,-0.052544,0.023080,0.981834
2011-09-26T14:05:47.852555,11840,-1.929695,-4.335489,-0.005247,-0.052445,0.005548,0.988849
2011-09-26T14:05:47.862555,11850,-1.721503,-4.554361,0.003440,-0.052347,-0.011984,0.995864
2011-09-26T14:05:47.872555,11860,-1.513311,-4.773233,0.012127,-0.052249,-0.029516,1.002880
2011-09-26T14:05:47.882555,11870,-1.305120,-4.992105,0.020814,-0.052150,-0.047048,1.009895
2011-09-26T14:05:47.892555,11880,-1.096928,-5.210977,0.029501,-0.052052,-0.064580,1.016910
2011-09-26T14:05:47.902555,11890,-0.707414,-5.389792,0.096605,-0.048940,-0.063881,1.020472
2011-09-26T14:05:47.912555,11900,-0.306324,-5.566049,0.167440,-0.045637,-0.062018,1.023813
2011-09-26T14:05:47.922555,11910,0.094766,-5.742307,0.238274,-0.042333,-0.060156,1.027155
2011-09-26T14:05:47.932555,11920,0.495855,-5.918564,0.309108,-0.039029,-0.058293,1.030496
2011-09-26T14:05:47.942555,11930,0.896945,-6.094822,0.379943,-0.035725,-0.056431,1.033838
2011-09-26T14:05:47.952555,11940,1.298035,-6.271079,0.450777,-0.032422,-0.054568,1.037179
2011-09-26T14:05:47.962555,11950,1.699124,-6.447337,0.521611,-0.029118,-0.052705,1.040521
2011-09-26T14:05:47.972555,11960,2.100214,-6.623594,0.592445,-0.025814,-0.050843,1.043862
2011-09-26T14:05:47.982555,11970,2.501304,-6.799852,0.663280,-0.022510,-0.048980,1.047204
2011-09-26T14:05:47.992555,11980,2.902393,-6.976109,0.734114,-0.019207,-0.047118,1.050545
2011-09-26T14:05:48.002555,11990,2.491920,-6.689194,0.697304,-0.016210,-0.024018,1.052588
2011-09-26T14:05:48.012555,12000,2.031293,-6.373655,0.653842,-0.013232,0.000394,1.054550
2011-09-26T14:05:48.022555,12010,1.570665,-6.058116,0.610380,-0.010253,0.024806,1.056512
2011-09-26T14:05:48.032555,12020,1.110038,-5.742577,0.566918,-0.007275,0.049217,1.058474
2011-09-26T14:05:48.042555,12030,0.649410,-5.427038,0.523456,-0.004297,0.073629,1.060436
2011-09-26T14:05:48.052555,12040,0.188782,-5.111499,0.479994,-0.001319,0.098041,1.062398
2011-09-26T14:05:48.062555,12050,-0.271845,-4.795960,0.436532,0.001659,0.122453,1.064360
2011-09-26T14:05:48.072555,12060,-0.732473,-4.480421,0.393070,0.004637,0.146865,1.066322
2011-09-26T14:05:48.082555,12070,-1.193100,-4.164882,0.349607,0.007615,0.171277,1.068284
2011-09-26T14:05:48.092555,12080,-1.653728,-3.849343,0.306145,0.010593,0.195689,1.070246
2011-09-26T14:05:48.102555,12090,-1.969648,-3.507573,0.282576,0.011474,0.181135,1.072337
2011-09-26T14:05:48.112555,12100,-2.274308,-3.163761,0.260555,0.012192,0.163549,1.074437
2011-09-26T14:05:48.122555,12110,-2.578968,-2.819950,0.238533,0.012910,0.145963,1.076538
2011-09-26T14:05:48.132555,12120,-2.883628,-2.476139,0.216512,0.013629,0.128377,1.078638
2011-09-26T14:05:48.142555,12130,-3.188288,-2.132328,0.194491,0.014347,0.110791,1.080739
2011-09-26T14:05:48.152555,12140,-3.492948,-1.788516,0.172469,0.015065,0.093205,1.082839
2011-09-26T14:05:48.162555,12150,-3.797608,-1.444705,0.150448,0.015783,0.075619,1.084940
2011-09-26T14:05:48.172555,12160,-4.102268,-1.100894,0.128426,0.016501,0.058034,1.087040
2011-09-26T14:05:48.182555,12170,-4.406928,-0.757082,0.106405,0.017219,0.040448,1.089141
2011-09-26T14:05:48.192555,12180,-4.711588,-0.413271,0.084384,0.017938,0.022862,1.091242
2011-09-26T14:05:48.202555,12190,-4.478435,-0.050156,0.132037,0.016433,0.016725,1.091365
2011-09-26T14:05:48.212555,12200,-4.210338,0.314213,0.184217,0.014783,0.011332,1.091360
2011-09-26T14:05:48.222555,12210,-3.942241,0.678583,0.236397,0.013134,0.005940,1.091354
2011-09-26T14:05:48.232555,12220,-3.674144,1.042952,0.288578,0.011484,0.000547,1.091349
2011-09-26T14:05:48.242555,12230,-3.406047,1.407322,0.340758,0.009835,-0.004846,1.091344
2011-09-26T14:05:48.252555,12240,-3.137950,1.771691,0.392938,0.008185,-0.010239,1.091339
2011-09-26T14:05:48.262555,12250,-2.869853,2.136061,0.445118,0.006536,-0.015631,1.091333
2011-09-26T14:05:48.272555,12260,-2.601756,2.500430,0.497299,0.004886,-0.021024,1.091328
2011-09-26T14:05:48.282555,12270,-2.333659,2.864800,0.549479,0.003237,-0.026417,1.091323
2011-09-26T14:05:48.292555,12280,-2.065562,3.229169,0.601659,0.001588,-0.031810,1.091318
2011-09-26T14:05:48.302555,12290,-1.797465,3.593538,0.653839,-0.000062,-0.037202,1.091313
2011-09-26T14:05:48.312555,12300,-1.679394,3.666524,0.690203,-0.000781,-0.036091,1.075653
2011-09-26T14:05:48.322555,12310,-1.571755,3.719248,0.725467,-0.001436,-0.034528,1.058904
2011-09-26T14:05:48.332555,12320,-1.464115,3.771972,0.760731,-0.002091,-0.032965,1.042156
2011-09-26T14:05:48.342555,12330,-1.356476,3.824697,0.795995,-0.002746,-0.031401,1.025407
2011-09-26T14:05:48.352555,12340,-1.248837,3.877421,0.831259,-0.003401,-0.029838,1.008659
2011-09-26T14:05:48.362555,12350,-1.141198,3.930145,0.866522,-0.004055,-0.028275,0.991911
2011-09-26T14:05:48.372555,12360,-1.033559,3.982869,0.901786,-0.004710,-0.026711,0.975162
2011-09-26T14:05:48.382555,12370,-0.925919,4.035593,0.937050,-0.005365,-0.025148,0.958414
2011-09-26T14:05:48.392555,12380,-0.818280,4.088317,0.972314,-0.006020,-0.023585,0.941665
2011-09-26T14:05:48.402555,12390,-0.710641,4.141042,1.007578,-0.006674,-0.022021,0.924917
2011-09-26T14:05:48.412555,12400,-0.509060,3.984425,0.932003,-0.008308,-0.017111,0.924023
2011-09-26T14:05:48.422555,12410,-0.301002,3.813374,0.848786,-0.010009,-0.011970,0.924222
2011-09-26T14:05:48.432555,12420,-0.092944,3.642323,0.765568,-0.011710,-0.006829,0.924422
2011-09-26T14:05:48.442555,12430,0.115114,3.471272,0.682351,-0.013411,-0.001688,0.924621
2011-09-26T14:05:48.452555,12440,0.323172,3.300221,0.599134,-0.015112,0.003453,0.924820
2011-09-26T14:05:48.462555,12450,0.531230,3.129171,0.515916,-0.016813,0.008594,0.925020
2011-09-26T14:05:48.472555,12460,0.739288,2.958120,0.432699,-0.018514,0.013735,0.925219
2011-09-26T14:05:48.482555,12470,0.947347,2.787069,0.349482,-0.020215,0.018876,0.925418
2011-09-26T14:05:48.492555,12480,1.155405,2.616018,0.266264,-0.021916,0.024017,0.925617
2011-09-26T14:05:48.502555,12490,1.363463,2.444967,0.183047,-0.023617,0.029158,0.925817
2011-09-26T14:05:48.512555,12500,1.265689,2.270806,0.178932,-0.023410,0.026405,0.928806
2011-09-26T14:05:48.522555,12510,1.147177,2.096434,0.180180,-0.023075,0.023117,0.931985
2011-09-26T14:05:48.532555,12520,1.028666,1.922063,0.181428,-0.022739,0.019828,0.935164
2011-09-26T14:05:48.542555,12530,0.910154,1.747691,0.182676,-0.022404,0.016540,0.938343
2011-09-26T14:05:48.552555,12540,0.791643,1.573319,0.183925,-0.022068,0.013251,0.941522
2011-09-26T14:05:48.562555,12550,0.673131,1.398947,0.185173,-0.021733,0.009963,0.944701
2011-09-26T14:05:48.572555,12560,0.554620,1.224575,0.186421,-0.021397,0.006674,0.947880
2011-09-26T14:05:48.582555,12570,0.436108,1.050204,0.187669,-0.021062,0.003386,0.951059
2011-09-26T14:05:48.592555,12580,0.317597,0.875832,0.188918,-0.020726,0.000097,0.954238
2011-09-26T14:05:48.602555,12590,0.199085,0.701460,0.190166,-0.020391,-0.003191,0.957417
2011-09-26T14:05:48.612555,12600,0.080574,0.527088,0.191414,-0.020055,-0.006480,0.960596
2011-09-26T14:05:48.622555,12610,0.096831,0.498282,0.211380,-0.019180,-0.006366,0.965685
2011-09-26T14:05:48.632555,12620,0.122336,0.479464,0.232631,-0.018269,-0.006019,0.970905
2011-09-26T14:05:48.642555,12630,0.147840,0.460646,0.253882,-0.017357,-0.005672,0.976125
2011-09-26T14:05:48.652555,12640,0.173345,0.441828,0.275133,-0.016446,-0.005325,0.981345
2011-09-26T14:05:48.662555,12650,0.198849,0.423010,0.296384,-0.015534,-0.004978,0.986565
2011-09-26T14:05:48.672555,12660,0.224354,0.404192,0.317634,-0.014622,-0.004631,0.991785
2011-09-26T14:05:48.682555,12670,0.249858,0.385374,0.338885,-0.013711,-0.004284,0.997005
2011-09-26T14:05:48.692555,12680,0.275363,0.366556,0.360136,-0.012799,-0.003937,1.002225
2011-09-26T14:05:48.702555,12690,0.300868,0.347738,0.381387,-0.011888,-0.003590,1.007445
2011-09-26T14:05:48.712555,12700,0.326372,0.328919,0.402637,-0.010976,-0.003243,1.012665
2011-09-26T14:05:48.722555,12710,0.413091,0.260154,0.405176,-0.010192,-0.003916,1.009048
2011-09-26T14:05:48.732555,12720,0.503981,0.187986,0.406439,-0.009417,-0.004659,1.004830
2011-09-26T14:05:48.742555,12730,0.594871,0.115817,0.407702,-0.008641,-0.005402,1.000611
2011-09-26T14:05:48.752555,12740,0.685761,0.043648,0.408965,-0.007866,-0.006145,0.996392
2011-09-26T14:05:48.762555,12750,0.776651,-0.028520,0.410228,-0.007091,-0.006888,0.992174
2011-09-26T14:05:48.772555,12760,0.867541,-0.100689,0.411491,-0.006315,-0.007631,0.987955
2011-09-26T14:05:48.782555,12770,0.958431,-0.172858,0.412754,-0.005540,-0.008373,0.983736
2011-09-26T14:05:48.792555,12780,1.049321,-0.245026,0.414017,-0.004765,-0.009116,0.979518
2011-09-26T14:05:48.802555,12790,1.140211,-0.317195,0.415280,-0.003989,-0.009859,0.975299
2011-09-26T14:05:48.812555,12800,1.231102,-0.389364,0.416543,-0.003214,-0.010602,0.971080
2011-09-26T14:05:48.822555,12810,1.328690,-0.528923,0.414818,-0.005272,-0.005753,0.972820
2011-09-26T14:05:48.832555,12820,1.426733,-0.673060,0.412890,-0.007523,-0.000525,0.974964
2011-09-26T14:05:48.842555,12830,1.524777,-0.817196,0.410962,-0.009774,0.004704,0.977109
2011-09-26T14:05:48.852555,12840,1.622820,-0.961333,0.409033,-0.012025,0.009932,0.979253
2011-09-26T14:05:48.862555,12850,1.720863,-1.105470,0.407105,-0.014276,0.015160,0.981397
2011-09-26T14:05:48.872555,12860,1.818906,-1.249606,0.405177,-0.016527,0.020389,0.983541
2011-09-26T14:05:48.882555,12870,1.916950,-1.393743,0.403248,-0.018778,0.025617,0.985686
2011-09-26T14:05:48.892555,12880,2.014993,-1.537879,0.401320,-0.021029,0.030846,0.987830
2011-09-26T14:05:48.902555,12890,2.113036,-1.682016,0.399392,-0.023280,0.036074,0.989974
2011-09-26T14:05:48.912555,12900,2.211080,-1.826153,0.397464,-0.025530,0.041303,0.992119
2011-09-26T14:05:48.922555,12910,2.049553,-1.881705,0.360543,-0.021219,0.041020,0.994723
2011-09-26T14:05:48.932555,12920,1.870635,-1.931323,0.321278,-0.016468,0.040368,0.997359
2011-09-26T14:05:48.942555,12930,1.691717,-1.980941,0.282012,-0.011718,0.039716,0.999995
2011-09-26T14:05:48.952555,12940,1.512798,-2.030558,0.242747,-0.006967,0.039064,1.002630
2011-09-26T14:05:48.962555,12950,1.333880,-2.080176,0.203482,-0.002216,0.038412,1.005266
2011-09-26T14:05:48.972555,12960,1.154962,-2.129794,0.164216,0.002535,0.037760,1.007902
2011-09-26T14:05:48.982555,12970,0.976044,-2.179411,0.124951,0.007286,0.037108,1.010537
2011-09-26T14:05:48.992555,12980,0.797126,-2.229029,0.085686,0.012037,0.036455,1.013173
2011-09-26T14:05:49.002555,12990,0.618208,-2.278647,0.046421,0.016787,0.035803,1.015808
2011-09-26T14:05:49.012555,13000,0.439290,-2.328264,0.007155,0.021538,0.035151,1.018444
2011-09-26T14:05:49.022555,13010,0.260372,-2.377882,-0.032110,0.026289,0.034499,1.021080
2011-09-26T14:05:49.032555,13020,0.297287,-2.166877,-0.050949,0.026806,0.028242,1.025629
2011-09-26T14:05:49.042555,13030,0.348909,-1.938113,-0.068395,0.027035,0.021603,1.030308
2011-09-26T14:05:49.052555,13040,0.400532,-1.709349,-0.085842,0.027263,0.014964,1.034987
2011-09-26T14:05:49.062555,13050,0.452154,-1.480585,-0.103288,0.027492,0.008325,1.039667
2011-09-26T14:05:49.072555,13060,0.503776,-1.251821,-0.120735,0.027720,0.001686,1.044346
2011-09-26T14:05:49.082555,13070,0.555399,-1.023057,-0.138181,0.027949,-0.004953,1.049025
2011-09-26T14:05:49.092555,13080,0.607021,-0.794294,-0.155628,0.028177,-0.011593,1.053705
2011-09-26T14:05:49.102555,13090,0.658643,-0.565530,-0.173074,0.028406,-0.018232,1.058384
2011-09-26T14:05:49.112555,13100,0.710266,-0.336766,-0.190521,0.028634,-0.024871,1.063063
2011-09-26T14:05:49.122555,13110,0.761888,-0.108002,-0.207968,0.028863,-0.031510,1.067743
2011-09-26T14:05:49.132555,13120,0.713870,0.220133,-0.189436,0.028865,-0.026414,1.064859
2011-09-26T14:05:49.142555,13130,0.658604,0.555498,-0.168286,0.028851,-0.020464,1.061425
2011-09-26T14:05:49.152555,13140,0.603337,0.890863,-0.147136,0.028837,-0.014514,1.057992
2011-09-26T14:05:49.162555,13150,0.548070,1.226228,-0.125987,0.028823,-0.008564,1.054558
2011-09-26T14:05:49.172555,13160,0.492803,1.561593,-0.104837,0.028809,-0.002614,1.051124
2011-09-26T14:05:49.182555,13170,0.437536,1.896957,-0.083687,0.028795,0.003335,1.047691
2011-09-26T14:05:49.192555,13180,0.382269,2.232322,-0.062538,0.028780,0.009285,1.044257
2011-09-26T14:05:49.202555,13190,0.327002,2.567687,-0.041388,0.028766,0.015235,1.040823
2011-09-26T14:05:49.212555,13200,0.271736,2.903052,-0.020238,0.028752,0.021185,1.037390
2011-09-26T14:05:49.222555,13210,0.216469,3.238417,0.000911,0.028738,0.027135,1.033956
2011-09-26T14:05:49.232555,13220,0.133618,3.276707,-0.016744,0.025818,0.027718,1.023674
2011-09-26T14:05:49.242555,13230,0.048888,3.294755,-0.037045,0.022700,0.027935,1.012925
2011-09-26T14:05:49.252555,13240,-0.035842,3.312802,-0.057345,0.019581,0.028152,1.002176
2011-09-26T14:05:49.262555,13250,-0.120572,3.330850,-0.077645,0.016463,0.028370,0.991427
2011-09-26T14:05:49.272555,13260,-0.205302,3.348897,-0.097945,0.013345,0.028587,0.980678
2011-09-26T14:05:49.282555,13270,-0.290032,3.366945,-0.118245,0.010227,0.028804,0.969929
2011-09-26T14:05:49.292555,13280,-0.374762,3.384993,-0.138545,0.007108,0.029022,0.959180
2011-09-26T14:05:49.302555,13290,-0.459492,3.403040,-0.158846,0.003990,0.029239,0.948431
2011-09-26T14:05:49.312555,13300,-0.544222,3.421088,-0.179146,0.000872,0.029456,0.937682
2011-09-26T14:05:49.322555,13310,-0.628952,3.439135,-0.199446,-0.002246,0.029674,0.926933
2011-09-26T14:05:49.332555,13320,-0.713682,3.457183,-0.219746,-0.005365,0.029891,0.916184
2011-09-26T14:05:49.342555,13330,-0.588287,3.180971,-0.190456,-0.006300,0.025374,0.916596
2011-09-26T14:05:49.352555,13340,-0.448115,2.884068,-0.157679,-0.007082,0.020525,0.917793
2011-09-26T14:05:49.362555,13350,-0.307944,2.587165,-0.124901,-0.007864,0.015676,0.918990
2011-09-26T14:05:49.372555,13360,-0.167773,2.290262,-0.092124,-0.008646,0.010827,0.920187
2011-09-26T14:05:49.382555,13370,-0.027602,1.993359,-0.059347,-0.009428,0.005977,0.921384
2011-09-26T14:05:49.392555,13380,0.112569,1.696456,-0.026569,-0.010210,0.001128,0.922581
2011-09-26T14:05:49.402555,13390,0.252740,1.399553,0.006208,-0.010992,-0.003721,0.923778
2011-09-26T14:05:49.412555,13400,0.392911,1.102650,0.038985,-0.011773,-0.008571,0.924975
2011-09-26T14:05:49.422555,13410,0.533082,0.805747,0.071763,-0.012555,-0.013420,0.926172
2011-09-26T14:05:49.432555,13420,0.673253,0.508844,0.104540,-0.013337,-0.018269,0.927369
2011-09-26T14:05:49.442555,13430,0.531935,0.254522,0.135495,-0.012617,-0.012777,0.930122
2011-09-26T14:05:49.452555,13440,0.369686,0.003366,0.166314,-0.011785,-0.006516,0.932991
2011-09-26T14:05:49.462555,13450,0.207437,-0.247790,0.197133,-0.010954,-0.000255,0.935861
2011-09-26T14:05:49.472555,13460,0.045188,-0.498946,0.227953,-0.010122,0.006006,0.938730
2011-09-26T14:05:49.482555,13470,-0.117061,-0.750102,0.258772,-0.009290,0.012267,0.941599
2011-09-26T14:05:49.492555,13480,-0.279310,-1.001258,0.289591,-0.008458,0.018528,0.944468
2011-09-26T14:05:49.502555,13490,-0.441559,-1.252414,0.320410,-0.007627,0.024790,0.947338
2011-09-26T14:05:49.512555,13500,-0.603808,-1.503570,0.351230,-0.006795,0.031051,0.950207
2011-09-26T14:05:49.522555,13510,-0.766057,-1.754726,0.382049,-0.005963,0.037312,0.953076
2011-09-26T14:05:49.532555,13520,-0.928306,-2.005882,0.412868,-0.005131,0.043573,0.955945
2011-09-26T14:05:49.542555,13530,-0.777058,-2.058308,0.357142,-0.003965,0.043397,0.961808
