pc_time,ts_ms,gyroX,gyroY,gyroZ,accelX,accelY,accelZ
2011-09-26T14:30:15.015084,0,0.004182,-0.022166,-0.052554,-0.025815,0.037538,0.997952
2011-09-26T14:30:15.025084,10,0.003808,-0.016020,-0.049643,-0.025706,0.037533,0.998048
2011-09-26T14:30:15.035084,20,0.003434,-0.009874,-0.046732,-0.025598,0.037529,0.998145
2011-09-26T14:30:15.045084,30,0.003059,-0.003728,-0.043822,-0.025489,0.037524,0.998241
2011-09-26T14:30:15.055084,40,0.002685,0.002418,-0.040911,-0.025381,0.037520,0.998337
2011-09-26T14:30:15.065084,50,0.002311,0.008564,-0.038000,-0.025272,0.037515,0.998433
2011-09-26T14:30:15.075084,60,0.001937,0.014711,-0.035090,-0.025164,0.037511,0.998529
2011-09-26T14:30:15.085084,70,0.001563,0.020857,-0.032179,-0.025055,0.037506,0.998625
2011-09-26T14:30:15.095084,80,0.001189,0.027003,-0.029268,-0.024947,0.037502,0.998722
2011-09-26T14:30:15.105084,90,0.000815,0.033149,-0.026358,-0.024838,0.037497,0.998818
2011-09-26T14:30:15.115084,100,0.000441,0.039295,-0.023447,-0.024730,0.037493,0.998914
2011-09-26T14:30:15.125084,110,0.000067,0.045442,-0.020536,-0.024622,0.037488,0.999010
2011-09-26T14:30:15.135084,120,0.000683,0.039962,-0.021158,-0.024565,0.037323,0.999105
2011-09-26T14:30:15.145084,130,0.001318,0.034256,-0.021847,-0.024510,0.037154,0.999200
2011-09-26T14:30:15.155084,140,0.001954,0.028550,-0.022537,-0.024455,0.036985,0.999295
2011-09-26T14:30:15.165084,150,0.002589,0.022844,-0.023227,-0.024399,0.036816,0.999390
2011-09-26T14:30:15.175084,160,0.003225,0.017138,-0.023917,-0.024344,0.036647,0.999486
2011-09-26T14:30:15.185084,170,0.003860,0.011432,-0.024606,-0.024289,0.036478,0.999581
2011-09-26T14:30:15.195084,180,0.004496,0.005726,-0.025296,-0.024234,0.036310,0.999676
2011-09-26T14:30:15.205084,190,0.005132,0.000020,-0.025986,-0.024178,0.036141,0.999771
2011-09-26T14:30:15.215084,200,0.005767,-0.005686,-0.026676,-0.024123,0.035972,0.999866
2011-09-26T14:30:15.225084,210,0.006403,-0.011392,-0.027365,-0.024068,0.035803,0.999961
2011-09-26T14:30:15.235084,220,0.005967,-0.009666,-0.018628,-0.024326,0.035813,0.999835
2011-09-26T14:30:15.245084,230,0.005519,-0.007858,-0.009787,-0.024588,0.035825,0.999707
2011-09-26T14:30:15.255084,240,0.005072,-0.006051,-0.000946,-0.024850,0.035837,0.999578
2011-09-26T14:30:15.265084,250,0.004624,-0.004244,0.007895,-0.025112,0.035849,0.999450
2011-09-26T14:30:15.275084,260,0.004177,-0.002437,0.016736,-0.025374,0.035861,0.999322
2011-09-26T14:30:15.285084,270,0.003729,-0.000629,0.025576,-0.025636,0.035873,0.999193
2011-09-26T14:30:15.295084,280,0.003282,0.001178,0.034417,-0.025898,0.035885,0.999065
2011-09-26T14:30:15.305084,290,0.002834,0.002985,0.043258,-0.026160,0.035897,0.998936
2011-09-26T14:30:15.315084,300,0.002387,0.004793,0.052099,-0.026422,0.035909,0.998808
2011-09-26T14:30:15.325084,310,0.001939,0.006600,0.060939,-0.026684,0.035921,0.998680
2011-09-26T14:30:15.335084,320,0.002225,0.004062,0.052210,-0.026385,0.036013,0.998784
2011-09-26T14:30:15.345084,330,0.002515,0.001500,0.043383,-0.026083,0.036106,0.998890
2011-09-26T14:30:15.355084,340,0.002805,-0.001062,0.034555,-0.025781,0.036198,0.998996
2011-09-26T14:30:15.365084,350,0.003095,-0.003624,0.025728,-0.025479,0.036290,0.999101
2011-09-26T14:30:15.375084,360,0.003385,-0.006186,0.016901,-0.025177,0.036383,0.999207
2011-09-26T14:30:15.385084,370,0.003675,-0.008748,0.008074,-0.024875,0.036475,0.999313
2011-09-26T14:30:15.395084,380,0.003965,-0.011310,-0.000753,-0.024573,0.036568,0.999419
2011-09-26T14:30:15.405084,390,0.004255,-0.013872,-0.009580,-0.024271,0.036660,0.999524
2011-09-26T14:30:15.415084,400,0.004545,-0.016434,-0.018407,-0.023969,0.036752,0.999630
2011-09-26T14:30:15.425084,410,0.004835,-0.018996,-0.027235,-0.023667,0.036845,0.999736
2011-09-26T14:30:15.435084,420,0.005126,-0.021550,-0.036048,-0.023366,0.036937,0.999842
2011-09-26T14:30:15.445084,430,0.006790,-0.017292,-0.032145,-0.023508,0.036966,0.999755
2011-09-26T14:30:15.455084,440,0.008455,-0.013035,-0.028243,-0.023650,0.036996,0.999668
2011-09-26T14:30:15.465084,450,0.010119,-0.008777,-0.024340,-0.023792,0.037025,0.999581
2011-09-26T14:30:15.475084,460,0.011783,-0.004519,-0.020438,-0.023935,0.037054,0.999494
2011-09-26T14:30:15.485084,470,0.013447,-0.000262,-0.016535,-0.024077,0.037083,0.999407
2011-09-26T14:30:15.495084,480,0.015111,0.003996,-0.012633,-0.024219,0.037113,0.999320
2011-09-26T14:30:15.505084,490,0.016775,0.008253,-0.008730,-0.024362,0.037142,0.999233
2011-09-26T14:30:15.515084,500,0.018439,0.012511,-0.004828,-0.024504,0.037171,0.999146
2011-09-26T14:30:15.525084,510,0.020103,0.016769,-0.000925,-0.024646,0.037200,0.999059
2011-09-26T14:30:15.535084,520,0.021767,0.021026,0.002977,-0.024788,0.037229,0.998972
2011-09-26T14:30:15.545084,530,0.019764,0.024251,0.004692,-0.024901,0.037137,0.998941
2011-09-26T14:30:15.555084,540,0.017757,0.027475,0.006404,-0.025013,0.037044,0.998909
2011-09-26T14:30:15.565084,550,0.015751,0.030698,0.008117,-0.025126,0.036952,0.998878
2011-09-26T14:30:15.575084,560,0.013744,0.033922,0.009830,-0.025238,0.036859,0.998846
2011-09-26T14:30:15.585084,570,0.011738,0.037145,0.011542,-0.025351,0.036766,0.998815
2011-09-26T14:30:15.595084,580,0.009731,0.040369,0.013255,-0.025463,0.036674,0.998783
2011-09-26T14:30:15.605084,590,0.007725,0.043593,0.014968,-0.025576,0.036581,0.998751
2011-09-26T14:30:15.615084,600,0.005718,0.046816,0.016680,-0.025688,0.036488,0.998720
2011-09-26T14:30:15.625084,610,0.003712,0.050040,0.018393,-0.025801,0.036396,0.998688
2011-09-26T14:30:15.635084,620,0.001705,0.053264,0.020106,-0.025913,0.036303,0.998657
2011-09-26T14:30:15.645084,630,-0.000301,0.056487,0.021818,-0.026026,0.036210,0.998625
2011-09-26T14:30:15.655084,640,-0.001821,0.045541,0.018025,-0.025957,0.036242,0.998620
2011-09-26T14:30:15.665084,650,-0.003337,0.034454,0.014177,-0.025886,0.036274,0.998614
2011-09-26T14:30:15.675084,660,-0.004852,0.023367,0.010329,-0.025816,0.036307,0.998609
2011-09-26T14:30:15.685084,670,-0.006367,0.012280,0.006481,-0.025745,0.036339,0.998604
2011-09-26T14:30:15.695084,680,-0.007882,0.001193,0.002633,-0.025674,0.036372,0.998598
2011-09-26T14:30:15.705084,690,-0.009397,-0.009894,-0.001215,-0.025604,0.036404,0.998593
2011-09-26T14:30:15.715084,700,-0.010912,-0.020981,-0.005063,-0.025533,0.036437,0.998588
2011-09-26T14:30:15.725084,710,-0.012428,-0.032067,-0.008911,-0.025462,0.036469,0.998583
2011-09-26T14:30:15.735084,720,-0.013943,-0.043154,-0.012759,-0.025392,0.036502,0.998577
2011-09-26T14:30:15.745084,730,-0.015458,-0.054241,-0.016607,-0.025321,0.036534,0.998572
2011-09-26T14:30:15.755084,740,-0.012173,-0.050127,-0.010922,-0.025121,0.036563,0.998739
2011-09-26T14:30:15.765084,750,-0.008874,-0.045967,-0.005208,-0.024922,0.036592,0.998907
2011-09-26T14:30:15.775084,760,-0.005575,-0.041807,0.000506,-0.024722,0.036621,0.999075
2011-09-26T14:30:15.785084,770,-0.002276,-0.037647,0.006219,-0.024522,0.036649,0.999243
2011-09-26T14:30:15.795084,780,0.001023,-0.033487,0.011933,-0.024322,0.036678,0.999411
2011-09-26T14:30:15.805084,790,0.004322,-0.029327,0.017647,-0.024122,0.036707,0.999579
2011-09-26T14:30:15.815084,800,0.007621,-0.025167,0.023360,-0.023922,0.036736,0.999747
2011-09-26T14:30:15.825084,810,0.010920,-0.021007,0.029074,-0.023722,0.036764,0.999915
2011-09-26T14:30:15.835084,820,0.014219,-0.016847,0.034788,-0.023523,0.036793,1.000083
2011-09-26T14:30:15.845084,830,0.017518,-0.012687,0.040501,-0.023323,0.036822,1.000251
2011-09-26T14:30:15.855084,840,0.013962,-0.012645,0.042307,-0.023457,0.036736,1.000247
2011-09-26T14:30:15.865084,850,0.010386,-0.012614,0.044100,-0.023592,0.036649,1.000242
2011-09-26T14:30:15.875084,860,0.006809,-0.012584,0.045893,-0.023727,0.036562,1.000237
2011-09-26T14:30:15.885084,870,0.003233,-0.012554,0.047687,-0.023862,0.036476,1.000232
2011-09-26T14:30:15.895084,880,-0.000344,-0.012524,0.049480,-0.023997,0.036389,1.000227
2011-09-26T14:30:15.905084,890,-0.003920,-0.012493,0.051273,-0.024132,0.036302,1.000222
2011-09-26T14:30:15.915084,900,-0.007497,-0.012463,0.053067,-0.024267,0.036216,1.000218
2011-09-26T14:30:15.925084,910,-0.011073,-0.012433,0.054860,-0.024402,0.036129,1.000213
2011-09-26T14:30:15.935084,920,-0.014650,-0.012402,0.056653,-0.024537,0.036043,1.000208
2011-09-26T14:30:15.945084,930,-0.018226,-0.012372,0.058447,-0.024672,0.035956,1.000203
2011-09-26T14:30:15.955084,940,-0.021803,-0.012342,0.060240,-0.024807,0.035869,1.000198
2011-09-26T14:30:15.965084,950,-0.019220,-0.011199,0.050332,-0.024942,0.035954,0.999965
2011-09-26T14:30:15.975084,960,-0.016606,-0.010050,0.040365,-0.025077,0.036039,0.999730
2011-09-26T14:30:15.985084,970,-0.013991,-0.008901,0.030397,-0.025212,0.036124,0.999496
2011-09-26T14:30:15.995084,980,-0.011377,-0.007752,0.020429,-0.025348,0.036209,0.999261
2011-09-26T14:30:16.005084,990,-0.008763,-0.006604,0.010462,-0.025483,0.036294,0.999027
2011-09-26T14:30:16.015084,1000,-0.006148,-0.005455,0.000494,-0.025618,0.036379,0.998792
2011-09-26T14:30:16.025084,1010,-0.003534,-0.004306,-0.009474,-0.025753,0.036464,0.998558
2011-09-26T14:30:16.035084,1020,-0.000919,-0.003157,-0.019442,-0.025889,0.036549,0.998323
2011-09-26T14:30:16.045084,1030,0.001695,-0.002009,-0.029409,-0.026024,0.036634,0.998089
2011-09-26T14:30:16.055084,1040,0.004309,-0.000863,-0.039365,-0.026159,0.036719,0.997855
2011-09-26T14:30:16.065084,1050,0.006213,-0.004099,-0.034064,-0.025947,0.036678,0.998130
2011-09-26T14:30:16.075084,1060,0.008116,-0.007334,-0.028764,-0.025735,0.036636,0.998405
2011-09-26T14:30:16.085084,1070,0.010020,-0.010569,-0.023464,-0.025523,0.036594,0.998680
2011-09-26T14:30:16.095084,1080,0.011924,-0.013805,-0.018164,-0.025311,0.036553,0.998955
2011-09-26T14:30:16.105084,1090,0.013828,-0.017040,-0.012863,-0.025099,0.036511,0.999230
2011-09-26T14:30:16.115084,1100,0.015731,-0.020276,-0.007563,-0.024887,0.036469,0.999505
2011-09-26T14:30:16.125084,1110,0.017635,-0.023511,-0.002263,-0.024675,0.036428,0.999780
2011-09-26T14:30:16.135084,1120,0.019539,-0.026746,0.003037,-0.024463,0.036386,1.000055
2011-09-26T14:30:16.145084,1130,0.021443,-0.029982,0.008338,-0.024251,0.036344,1.000330
2011-09-26T14:30:16.155084,1140,0.023346,-0.033217,0.013638,-0.024039,0.036303,1.000605
2011-09-26T14:30:16.165084,1150,0.021083,-0.027574,0.018609,-0.024149,0.036415,1.000394
2011-09-26T14:30:16.175084,1160,0.018747,-0.021775,0.023573,-0.024265,0.036531,1.000175
2011-09-26T14:30:16.185084,1170,0.016411,-0.015976,0.028538,-0.024381,0.036646,0.999956
2011-09-26T14:30:16.195084,1180,0.014074,-0.010177,0.033503,-0.024497,0.036761,0.999737
2011-09-26T14:30:16.205084,1190,0.011738,-0.004378,0.038467,-0.024613,0.036877,0.999517
2011-09-26T14:30:16.215084,1200,0.009401,0.001421,0.043432,-0.024729,0.036992,0.999298
2011-09-26T14:30:16.225084,1210,0.007065,0.007220,0.048397,-0.024845,0.037107,0.999079
2011-09-26T14:30:16.235084,1220,0.004729,0.013019,0.053361,-0.024961,0.037223,0.998860
2011-09-26T14:30:16.245084,1230,0.002392,0.018819,0.058326,-0.025077,0.037338,0.998641
2011-09-26T14:30:16.255084,1240,0.000056,0.024618,0.063291,-0.025193,0.037453,0.998421
2011-09-26T14:30:16.265084,1250,-0.002280,0.030417,0.068255,-0.025308,0.037569,0.998202
2011-09-26T14:30:16.275084,1260,-0.000308,0.026437,0.060965,-0.025297,0.037367,0.998386
2011-09-26T14:30:16.285084,1270,0.001667,0.022452,0.053666,-0.025285,0.037165,0.998569
2011-09-26T14:30:16.295084,1280,0.003643,0.018466,0.046368,-0.025273,0.036963,0.998753
2011-09-26T14:30:16.305084,1290,0.005618,0.014480,0.039070,-0.025261,0.036761,0.998936
2011-09-26T14:30:16.315084,1300,0.007593,0.010495,0.031772,-0.025249,0.036559,0.999120
2011-09-26T14:30:16.325084,1310,0.009568,0.006509,0.024474,-0.025237,0.036357,0.999303
2011-09-26T14:30:16.335084,1320,0.011544,0.002524,0.017176,-0.025226,0.036155,0.999487
2011-09-26T14:30:16.345084,1330,0.013519,-0.001462,0.009877,-0.025214,0.035954,0.999670
2011-09-26T14:30:16.355084,1340,0.015494,-0.005448,0.002579,-0.025202,0.035752,0.999854
2011-09-26T14:30:16.365084,1350,0.017469,-0.009433,-0.004719,-0.025190,0.035550,1.000038
2011-09-26T14:30:16.375084,1360,0.017384,-0.008726,-0.003070,-0.025205,0.035734,0.999882
2011-09-26T14:30:16.385084,1370,0.017290,-0.007997,-0.001381,-0.025220,0.035920,0.999724
2011-09-26T14:30:16.395084,1380,0.017196,-0.007268,0.000309,-0.025236,0.036106,0.999567
2011-09-26T14:30:16.405084,1390,0.017101,-0.006539,0.001998,-0.025251,0.036293,0.999409
2011-09-26T14:30:16.415084,1400,0.017007,-0.005810,0.003687,-0.025266,0.036479,0.999252
2011-09-26T14:30:16.425084,1410,0.016913,-0.005081,0.005377,-0.025282,0.036665,0.999094
2011-09-26T14:30:16.435084,1420,0.016818,-0.004352,0.007066,-0.025297,0.036851,0.998937
2011-09-26T14:30:16.445084,1430,0.016724,-0.003624,0.008756,-0.025312,0.037037,0.998779
2011-09-26T14:30:16.455084,1440,0.016630,-0.002895,0.010445,-0.025328,0.037224,0.998622
2011-09-26T14:30:16.465084,1450,0.016535,-0.002166,0.012134,-0.025343,0.037410,0.998464
2011-09-26T14:30:16.475084,1460,0.014580,-0.003420,0.010737,-0.025208,0.037322,0.998585
2011-09-26T14:30:16.485084,1470,0.012614,-0.004684,0.009324,-0.025072,0.037232,0.998707
2011-09-26T14:30:16.495084,1480,0.010649,-0.005949,0.007911,-0.024936,0.037142,0.998829
2011-09-26T14:30:16.505084,1490,0.008684,-0.007213,0.006498,-0.024800,0.037053,0.998951
2011-09-26T14:30:16.515084,1500,0.006719,-0.008478,0.005085,-0.024664,0.036963,0.999073
2011-09-26T14:30:16.525084,1510,0.004754,-0.009742,0.003672,-0.024528,0.036874,0.999195
2011-09-26T14:30:16.535084,1520,0.002788,-0.011006,0.002259,-0.024392,0.036784,0.999317
2011-09-26T14:30:16.545084,1530,0.000823,-0.012271,0.000846,-0.024256,0.036695,0.999439
2011-09-26T14:30:16.555084,1540,-0.001142,-0.013535,-0.000567,-0.024120,0.036605,0.999561
2011-09-26T14:30:16.565084,1550,-0.003107,-0.014800,-0.001980,-0.023984,0.036516,0.999683
2011-09-26T14:30:16.575084,1560,-0.005072,-0.016064,-0.003393,-0.023848,0.036426,0.999805
2011-09-26T14:30:16.585084,1570,-0.005924,-0.019114,-0.003742,-0.024053,0.036459,0.999653
2011-09-26T14:30:16.595084,1580,-0.006765,-0.022180,-0.004081,-0.024260,0.036493,0.999499
2011-09-26T14:30:16.605084,1590,-0.007607,-0.025245,-0.004421,-0.024468,0.036527,0.999345
2011-09-26T14:30:16.615084,1600,-0.008449,-0.028310,-0.004761,-0.024676,0.036560,0.999191
2011-09-26T14:30:16.625084,1610,-0.009291,-0.031376,-0.005101,-0.024884,0.036594,0.999037
2011-09-26T14:30:16.635084,1620,-0.010133,-0.034441,-0.005441,-0.025091,0.036628,0.998883
2011-09-26T14:30:16.645084,1630,-0.010975,-0.037507,-0.005781,-0.025299,0.036662,0.998729
2011-09-26T14:30:16.655084,1640,-0.011816,-0.040572,-0.006120,-0.025507,0.036696,0.998575
2011-09-26T14:30:16.665084,1650,-0.012658,-0.043638,-0.006460,-0.025715,0.036730,0.998421
2011-09-26T14:30:16.675084,1660,-0.013500,-0.046703,-0.006800,-0.025922,0.036764,0.998266
2011-09-26T14:30:16.685084,1670,-0.016580,-0.042471,0.000323,-0.025814,0.036663,0.998488
2011-09-26T14:30:16.695084,1680,-0.019687,-0.038153,0.007534,-0.025701,0.036560,0.998713
2011-09-26T14:30:16.705084,1690,-0.022793,-0.033835,0.014745,-0.025589,0.036457,0.998939
2011-09-26T14:30:16.715084,1700,-0.025900,-0.029516,0.021957,-0.025476,0.036355,0.999164
2011-09-26T14:30:16.725084,1710,-0.029006,-0.025198,0.029168,-0.025364,0.036252,0.999390
2011-09-26T14:30:16.735084,1720,-0.032113,-0.020880,0.036379,-0.025251,0.036149,0.999615
2011-09-26T14:30:16.745084,1730,-0.035219,-0.016561,0.043591,-0.025139,0.036046,0.999841
2011-09-26T14:30:16.755084,1740,-0.038326,-0.012243,0.050802,-0.025026,0.035944,1.000066
2011-09-26T14:30:16.765084,1750,-0.041432,-0.007925,0.058013,-0.024913,0.035841,1.000292
2011-09-26T14:30:16.775084,1760,-0.044539,-0.003607,0.065225,-0.024801,0.035738,1.000517
2011-09-26T14:30:16.785084,1770,-0.041623,-0.004836,0.066168,-0.024769,0.035773,1.000388
2011-09-26T14:30:16.795084,1780,-0.038647,-0.006121,0.067047,-0.024737,0.035808,1.000256
2011-09-26T14:30:16.805084,1790,-0.035671,-0.007407,0.067927,-0.024706,0.035844,1.000123
2011-09-26T14:30:16.815084,1800,-0.032694,-0.008692,0.068807,-0.024675,0.035880,0.999991
2011-09-26T14:30:16.825084,1810,-0.029718,-0.009977,0.069687,-0.024643,0.035915,0.999858
2011-09-26T14:30:16.835084,1820,-0.026742,-0.011263,0.070567,-0.024612,0.035951,0.999726
2011-09-26T14:30:16.845084,1830,-0.023765,-0.012548,0.071446,-0.024581,0.035987,0.999593
2011-09-26T14:30:16.855084,1840,-0.020789,-0.013833,0.072326,-0.024549,0.036022,0.999461
2011-09-26T14:30:16.865084,1850,-0.017813,-0.015119,0.073206,-0.024518,0.036058,0.999328
2011-09-26T14:30:16.875084,1860,-0.014837,-0.016404,0.074086,-0.024486,0.036094,0.999196
2011-09-26T14:30:16.885084,1870,-0.011860,-0.017689,0.074965,-0.024455,0.036129,0.999063
2011-09-26T14:30:16.895084,1880,-0.010397,-0.012168,0.066835,-0.024450,0.036182,0.999095
2011-09-26T14:30:16.905084,1890,-0.008947,-0.006583,0.058620,-0.024445,0.036236,0.999128
2011-09-26T14:30:16.915084,1900,-0.007497,-0.000999,0.050406,-0.024441,0.036289,0.999160
2011-09-26T14:30:16.925084,1910,-0.006047,0.004586,0.042191,-0.024436,0.036342,0.999193
2011-09-26T14:30:16.935084,1920,-0.004598,0.010170,0.033976,-0.024431,0.036395,0.999226
2011-09-26T14:30:16.945084,1930,-0.003148,0.015755,0.025762,-0.024427,0.036449,0.999259
2011-09-26T14:30:16.955084,1940,-0.001698,0.021339,0.017547,-0.024422,0.036502,0.999291
2011-09-26T14:30:16.965084,1950,-0.000249,0.026924,0.009333,-0.024417,0.036555,0.999324
2011-09-26T14:30:16.975084,1960,0.001201,0.032509,0.001118,-0.024412,0.036608,0.999357
2011-09-26T14:30:16.985084,1970,0.002651,0.038093,-0.007096,-0.024408,0.036662,0.999390
2011-09-26T14:30:16.995084,1980,0.003435,0.034523,-0.003902,-0.024564,0.036638,0.999348
2011-09-26T14:30:17.005084,1990,0.004210,0.030844,-0.000573,-0.024721,0.036614,0.999306
2011-09-26T14:30:17.015084,2000,0.004986,0.027166,0.002756,-0.024879,0.036590,0.999263
2011-09-26T14:30:17.025084,2010,0.005762,0.023487,0.006086,-0.025037,0.036566,0.999221
2011-09-26T14:30:17.035084,2020,0.006538,0.019808,0.009415,-0.025195,0.036542,0.999178
2011-09-26T14:30:17.045084,2030,0.007314,0.016130,0.012744,-0.025353,0.036518,0.999135
2011-09-26T14:30:17.055084,2040,0.008090,0.012451,0.016073,-0.025511,0.036493,0.999093
2011-09-26T14:30:17.065084,2050,0.008866,0.008772,0.019402,-0.025669,0.036469,0.999050
2011-09-26T14:30:17.075084,2060,0.009642,0.005094,0.022732,-0.025826,0.036445,0.999008
2011-09-26T14:30:17.085084,2070,0.010417,0.001415,0.026061,-0.025984,0.036421,0.998965
2011-09-26T14:30:17.095084,2080,0.009034,0.004358,0.027782,-0.025921,0.036512,0.998877
2011-09-26T14:30:17.105084,2090,0.007623,0.007382,0.029484,-0.025856,0.036604,0.998789
2011-09-26T14:30:17.115084,2100,0.006213,0.010406,0.031185,-0.025790,0.036697,0.998700
2011-09-26T14:30:17.125084,2110,0.004803,0.013430,0.032887,-0.025724,0.036789,0.998612
2011-09-26T14:30:17.135084,2120,0.003393,0.016454,0.034588,-0.025659,0.036881,0.998523
2011-09-26T14:30:17.145084,2130,0.001983,0.019478,0.036290,-0.025593,0.036974,0.998434
2011-09-26T14:30:17.155084,2140,0.000573,0.022502,0.037992,-0.025527,0.037066,0.998346
2011-09-26T14:30:17.165084,2150,-0.000838,0.025526,0.039693,-0.025462,0.037158,0.998257
2011-09-26T14:30:17.175084,2160,-0.002248,0.028550,0.041395,-0.025396,0.037251,0.998169
2011-09-26T14:30:17.185084,2170,-0.003658,0.031574,0.043097,-0.025330,0.037343,0.998080
2011-09-26T14:30:17.195084,2180,-0.005068,0.034598,0.044798,-0.025265,0.037436,0.997991
2011-09-26T14:30:17.205084,2190,-0.003626,0.025366,0.042210,-0.025184,0.037302,0.998249
2011-09-26T14:30:17.215084,2200,-0.002141,0.015951,0.039557,-0.025103,0.037164,0.998512
2011-09-26T14:30:17.225084,2210,-0.000657,0.006536,0.036904,-0.025022,0.037027,0.998774
2011-09-26T14:30:17.235084,2220,0.000828,-0.002878,0.034252,-0.024941,0.036890,0.999037
2011-09-26T14:30:17.245084,2230,0.002312,-0.012293,0.031599,-0.024860,0.036753,0.999300
2011-09-26T14:30:17.255084,2240,0.003797,-0.021707,0.028947,-0.024780,0.036616,0.999563
2011-09-26T14:30:17.265084,2250,0.005281,-0.031122,0.026294,-0.024699,0.036478,0.999825
2011-09-26T14:30:17.275084,2260,0.006766,-0.040537,0.023641,-0.024618,0.036341,1.000088
2011-09-26T14:30:17.285084,2270,0.008251,-0.049951,0.020989,-0.024537,0.036204,1.000351
2011-09-26T14:30:17.295084,2280,0.009735,-0.059366,0.018336,-0.024456,0.036067,1.000614
2011-09-26T14:30:17.305084,2290,0.008576,-0.052879,0.020968,-0.024596,0.036189,1.000375
2011-09-26T14:30:17.315084,2300,0.007399,-0.046292,0.023633,-0.024737,0.036313,1.000133
2011-09-26T14:30:17.325084,2310,0.006223,-0.039705,0.026298,-0.024878,0.036437,0.999891
2011-09-26T14:30:17.335084,2320,0.005047,-0.033117,0.028963,-0.025020,0.036560,0.999649
2011-09-26T14:30:17.345084,2330,0.003871,-0.026530,0.031628,-0.025161,0.036684,0.999406
2011-09-26T14:30:17.355084,2340,0.002694,-0.019942,0.034293,-0.025302,0.036808,0.999164
2011-09-26T14:30:17.365084,2350,0.001518,-0.013355,0.036958,-0.025443,0.036932,0.998922
2011-09-26T14:30:17.375084,2360,0.000342,-0.006768,0.039624,-0.025584,0.037056,0.998680
2011-09-26T14:30:17.385084,2370,-0.000834,-0.000180,0.042289,-0.025726,0.037180,0.998438
2011-09-26T14:30:17.395084,2380,-0.002011,0.006407,0.044954,-0.025867,0.037303,0.998196
2011-09-26T14:30:17.405084,2390,-0.003187,0.012994,0.047619,-0.026008,0.037427,0.997954
2011-09-26T14:30:17.415084,2400,-0.001935,0.010350,0.045270,-0.025844,0.037266,0.998213
2011-09-26T14:30:17.425084,2410,-0.000665,0.007642,0.042886,-0.025679,0.037102,0.998476
2011-09-26T14:30:17.435084,2420,0.000604,0.004934,0.040502,-0.025513,0.036938,0.998739
2011-09-26T14:30:17.445084,2430,0.001873,0.002226,0.038118,-0.025347,0.036774,0.999002
2011-09-26T14:30:17.455084,2440,0.003143,-0.000483,0.035734,-0.025181,0.036611,0.999265
2011-09-26T14:30:17.465084,2450,0.004412,-0.003191,0.033350,-0.025015,0.036447,0.999527
2011-09-26T14:30:17.475084,2460,0.005681,-0.005899,0.030967,-0.024850,0.036283,0.999790
2011-09-26T14:30:17.485084,2470,0.006950,-0.008607,0.028583,-0.024684,0.036120,1.000053
2011-09-26T14:30:17.495084,2480,0.008220,-0.011316,0.026199,-0.024518,0.035956,1.000316
2011-09-26T14:30:17.505084,2490,0.009489,-0.014024,0.023815,-0.024352,0.035792,1.000578
2011-09-26T14:30:17.515084,2500,0.007662,-0.009049,0.022938,-0.024427,0.035948,1.000334
2011-09-26T14:30:17.525084,2510,0.005799,-0.003984,0.022078,-0.024504,0.036108,1.000084
2011-09-26T14:30:17.535084,2520,0.003936,0.001082,0.021219,-0.024581,0.036267,0.999834
2011-09-26T14:30:17.545084,2530,0.002073,0.006147,0.020360,-0.024659,0.036427,0.999584
2011-09-26T14:30:17.555084,2540,0.000210,0.011213,0.019501,-0.024736,0.036586,0.999334
2011-09-26T14:30:17.565084,2550,-0.001654,0.016278,0.018641,-0.024814,0.036746,0.999083
2011-09-26T14:30:17.575084,2560,-0.003517,0.021344,0.017782,-0.024891,0.036905,0.998833
2011-09-26T14:30:17.585084,2570,-0.005380,0.026409,0.016923,-0.024968,0.037065,0.998583
2011-09-26T14:30:17.595084,2580,-0.007243,0.031475,0.016063,-0.025046,0.037225,0.998333
2011-09-26T14:30:17.605084,2590,-0.009106,0.036540,0.015204,-0.025123,0.037384,0.998083
2011-09-26T14:30:17.615084,2600,-0.011040,0.035025,0.012999,-0.025097,0.037344,0.998179
2011-09-26T14:30:17.625084,2610,-0.012976,0.033369,0.010764,-0.025068,0.037299,0.998282
2011-09-26T14:30:17.635084,2620,-0.014911,0.031712,0.008530,-0.025040,0.037255,0.998385
2011-09-26T14:30:17.645084,2630,-0.016847,0.030056,0.006296,-0.025011,0.037210,0.998488
2011-09-26T14:30:17.655084,2640,-0.018782,0.028399,0.004062,-0.024983,0.037166,0.998592
2011-09-26T14:30:17.665084,2650,-0.020718,0.026743,0.001827,-0.024954,0.037121,0.998695
2011-09-26T14:30:17.675084,2660,-0.022653,0.025087,-0.000407,-0.024926,0.037077,0.998798
2011-09-26T14:30:17.685084,2670,-0.024589,0.023430,-0.002641,-0.024897,0.037032,0.998901
2011-09-26T14:30:17.695084,2680,-0.026524,0.021774,-0.004876,-0.024869,0.036987,0.999005
2011-09-26T14:30:17.705084,2690,-0.028460,0.020117,-0.007110,-0.024840,0.036943,0.999108
2011-09-26T14:30:17.715084,2700,-0.030395,0.018461,-0.009344,-0.024812,0.036898,0.999211
2011-09-26T14:30:17.725084,2710,-0.030177,0.014341,-0.005759,-0.024894,0.036887,0.999135
2011-09-26T14:30:17.735084,2720,-0.029919,0.010175,-0.002064,-0.024978,0.036877,0.999056
2011-09-26T14:30:17.745084,2730,-0.029660,0.006009,0.001632,-0.025063,0.036867,0.998976
2011-09-26T14:30:17.755084,2740,-0.029401,0.001842,0.005328,-0.025147,0.036857,0.998897
2011-09-26T14:30:17.765084,2750,-0.029142,-0.002324,0.009024,-0.025231,0.036847,0.998817
2011-09-26T14:30:17.775084,2760,-0.028884,-0.006491,0.012720,-0.025315,0.036837,0.998738
2011-09-26T14:30:17.785084,2770,-0.028625,-0.010657,0.016415,-0.025400,0.036826,0.998658
2011-09-26T14:30:17.795084,2780,-0.028366,-0.014824,0.020111,-0.025484,0.036816,0.998579
2011-09-26T14:30:17.805084,2790,-0.028108,-0.018990,0.023807,-0.025568,0.036806,0.998499
2011-09-26T14:30:17.815084,2800,-0.027849,-0.023157,0.027503,-0.025652,0.036796,0.998420
2011-09-26T14:30:17.825084,2810,-0.022045,-0.018331,0.027221,-0.025481,0.036700,0.998594
2011-09-26T14:30:17.835084,2820,-0.016167,-0.013384,0.026887,-0.025306,0.036602,0.998771
2011-09-26T14:30:17.845084,2830,-0.010288,-0.008436,0.026552,-0.025131,0.036505,0.998948
2011-09-26T14:30:17.855084,2840,-0.004410,-0.003489,0.026217,-0.024956,0.036408,0.999125
2011-09-26T14:30:17.865084,2850,0.001468,0.001458,0.025882,-0.024781,0.036311,0.999302
2011-09-26T14:30:17.875084,2860,0.007347,0.006406,0.025547,-0.024606,0.036213,0.999479
2011-09-26T14:30:17.885084,2870,0.013225,0.011353,0.025212,-0.024431,0.036116,0.999656
2011-09-26T14:30:17.895084,2880,0.019104,0.016300,0.024877,-0.024256,0.036019,0.999833
2011-09-26T14:30:17.905084,2890,0.024982,0.021248,0.024542,-0.024081,0.035922,1.000011
2011-09-26T14:30:17.915084,2900,0.030860,0.026195,0.024208,-0.023907,0.035825,1.000188
2011-09-26T14:30:17.925084,2910,0.030150,0.023853,0.017632,-0.023975,0.035803,1.000182
2011-09-26T14:30:17.935084,2920,0.029334,0.021394,0.010958,-0.024048,0.035783,1.000173
2011-09-26T14:30:17.945084,2930,0.028519,0.018935,0.004283,-0.024121,0.035763,1.000164
2011-09-26T14:30:17.955084,2940,0.027703,0.016477,-0.002392,-0.024193,0.035743,1.000155
2011-09-26T14:30:17.965084,2950,0.026887,0.014018,-0.009066,-0.024266,0.035723,1.000146
2011-09-26T14:30:17.975084,2960,0.026072,0.011559,-0.015741,-0.024339,0.035703,1.000137
2011-09-26T14:30:17.985084,2970,0.025256,0.009101,-0.022416,-0.024411,0.035683,1.000128
2011-09-26T14:30:17.995084,2980,0.024440,0.006642,-0.029090,-0.024484,0.035663,1.000119
2011-09-26T14:30:18.005084,2990,0.023625,0.004183,-0.035765,-0.024556,0.035643,1.000110
2011-09-26T14:30:18.015084,3000,0.022809,0.001725,-0.042440,-0.024629,0.035622,1.000101
2011-09-26T14:30:18.025084,3010,0.021994,-0.000734,-0.049114,-0.024702,0.035602,1.000092
2011-09-26T14:30:18.035084,3020,0.022704,0.003648,-0.048013,-0.024821,0.035713,0.999933
2011-09-26T14:30:18.045084,3030,0.023439,0.008142,-0.046785,-0.024941,0.035825,0.999772
2011-09-26T14:30:18.055084,3040,0.024173,0.012637,-0.045557,-0.025061,0.035938,0.999610
2011-09-26T14:30:18.065084,3050,0.024908,0.017131,-0.044329,-0.025182,0.036051,0.999448
2011-09-26T14:30:18.075084,3060,0.025643,0.021625,-0.043101,-0.025302,0.036163,0.999287
2011-09-26T14:30:18.085084,3070,0.026378,0.026119,-0.041873,-0.025422,0.036276,0.999125
2011-09-26T14:30:18.095084,3080,0.027113,0.030613,-0.040645,-0.025542,0.036389,0.998963
2011-09-26T14:30:18.105084,3090,0.027848,0.035107,-0.039417,-0.025662,0.036501,0.998802
2011-09-26T14:30:18.115084,3100,0.028583,0.039601,-0.038189,-0.025782,0.036614,0.998640
2011-09-26T14:30:18.125084,3110,0.029318,0.044096,-0.036961,-0.025902,0.036726,0.998478
2011-09-26T14:30:18.135084,3120,0.023016,0.035804,-0.031101,-0.025727,0.036789,0.998502
2011-09-26T14:30:18.145084,3130,0.016564,0.027240,-0.025142,-0.025546,0.036851,0.998530
2011-09-26T14:30:18.155084,3140,0.010112,0.018676,-0.019183,-0.025365,0.036912,0.998557
2011-09-26T14:30:18.165084,3150,0.003660,0.010112,-0.013224,-0.025184,0.036974,0.998585
2011-09-26T14:30:18.175084,3160,-0.002792,0.001547,-0.007265,-0.025002,0.037036,0.998613
2011-09-26T14:30:18.185084,3170,-0.009244,-0.007017,-0.001306,-0.024821,0.037097,0.998641
2011-09-26T14:30:18.195084,3180,-0.015696,-0.015581,0.004653,-0.024640,0.037159,0.998668
2011-09-26T14:30:18.205084,3190,-0.022147,-0.024145,0.010612,-0.024458,0.037221,0.998696
2011-09-26T14:30:18.215084,3200,-0.028599,-0.032709,0.016571,-0.024277,0.037282,0.998724
2011-09-26T14:30:18.225084,3210,-0.035051,-0.041274,0.022530,-0.024096,0.037344,0.998752
2011-09-26T14:30:18.235084,3220,-0.031215,-0.032903,0.023849,-0.024190,0.037309,0.998775
2011-09-26T14:30:18.245084,3230,-0.027175,-0.024198,0.025077,-0.024289,0.037271,0.998798
2011-09-26T14:30:18.255084,3240,-0.023136,-0.015494,0.026305,-0.024388,0.037234,0.998821
2011-09-26T14:30:18.265084,3250,-0.019097,-0.006790,0.027533,-0.024487,0.037197,0.998843
2011-09-26T14:30:18.275084,3260,-0.015058,0.001914,0.028762,-0.024587,0.037159,0.998866
2011-09-26T14:30:18.285084,3270,-0.011019,0.010618,0.029990,-0.024686,0.037122,0.998889
2011-09-26T14:30:18.295084,3280,-0.006980,0.019323,0.031218,-0.024785,0.037085,0.998912
2011-09-26T14:30:18.305084,3290,-0.002941,0.028027,0.032446,-0.024884,0.037047,0.998935
2011-09-26T14:30:18.315084,3300,0.001098,0.036731,0.033674,-0.024983,0.037010,0.998958
2011-09-26T14:30:18.325084,3310,0.005137,0.045435,0.034902,-0.025083,0.036972,0.998981
2011-09-26T14:30:18.335084,3320,0.009176,0.054139,0.036130,-0.025182,0.036935,0.999004
2011-09-26T14:30:18.345084,3330,0.009601,0.048249,0.032242,-0.025288,0.036726,0.999057
2011-09-26T14:30:18.355084,3340,0.009970,0.042136,0.028276,-0.025394,0.036515,0.999110
2011-09-26T14:30:18.365084,3350,0.010339,0.036023,0.024310,-0.025500,0.036304,0.999164
2011-09-26T14:30:18.375084,3360,0.010708,0.029910,0.020343,-0.025607,0.036093,0.999217
2011-09-26T14:30:18.385084,3370,0.011077,0.023797,0.016377,-0.025713,0.035882,0.999270
2011-09-26T14:30:18.395084,3380,0.011446,0.017684,0.012411,-0.025819,0.035670,0.999323
2011-09-26T14:30:18.405084,3390,0.011815,0.011571,0.008445,-0.025926,0.035459,0.999377
2011-09-26T14:30:18.415084,3400,0.012184,0.005458,0.004479,-0.026032,0.035248,0.999430
2011-09-26T14:30:18.425084,3410,0.012553,-0.000655,0.000513,-0.026138,0.035037,0.999483
2011-09-26T14:30:18.435084,3420,0.012922,-0.006768,-0.003453,-0.026244,0.034825,0.999537
2011-09-26T14:30:18.445084,3430,0.010797,-0.006588,-0.004802,-0.026120,0.035125,0.999428
2011-09-26T14:30:18.455084,3440,0.008631,-0.006307,-0.006108,-0.025992,0.035432,0.999316
2011-09-26T14:30:18.465084,3450,0.006466,-0.006027,-0.007414,-0.025865,0.035739,0.999204
2011-09-26T14:30:18.475084,3460,0.004301,-0.005746,-0.008721,-0.025737,0.036046,0.999093
2011-09-26T14:30:18.485084,3470,0.002136,-0.005466,-0.010027,-0.025609,0.036353,0.998981
2011-09-26T14:30:18.495084,3480,-0.000030,-0.005185,-0.011334,-0.025481,0.036660,0.998870
2011-09-26T14:30:18.505084,3490,-0.002195,-0.004905,-0.012640,-0.025353,0.036968,0.998758
2011-09-26T14:30:18.515084,3500,-0.004360,-0.004624,-0.013947,-0.025225,0.037275,0.998646
2011-09-26T14:30:18.525084,3510,-0.006526,-0.004343,-0.015253,-0.025098,0.037582,0.998535
2011-09-26T14:30:18.535084,3520,-0.008691,-0.004063,-0.016559,-0.024970,0.037889,0.998423
2011-09-26T14:30:18.545084,3530,-0.010856,-0.003782,-0.017866,-0.024842,0.038196,0.998312
2011-09-26T14:30:18.555084,3540,-0.009922,-0.002782,-0.017045,-0.024705,0.037915,0.998607
2011-09-26T14:30:18.565084,3550,-0.008933,-0.001769,-0.016187,-0.024567,0.037623,0.998909
2011-09-26T14:30:18.575084,3560,-0.007945,-0.000756,-0.015329,-0.024429,0.037330,0.999212
2011-09-26T14:30:18.585084,3570,-0.006956,0.000258,-0.014471,-0.024292,0.037038,0.999514
2011-09-26T14:30:18.595084,3580,-0.005968,0.001271,-0.013614,-0.024154,0.036746,0.999817
2011-09-26T14:30:18.605084,3590,-0.004979,0.002284,-0.012756,-0.024017,0.036454,1.000119
2011-09-26T14:30:18.615084,3600,-0.003991,0.003297,-0.011898,-0.023879,0.036162,1.000422
2011-09-26T14:30:18.625084,3610,-0.003002,0.004310,-0.011040,-0.023742,0.035870,1.000724
2011-09-26T14:30:18.635084,3620,-0.002014,0.005323,-0.010182,-0.023604,0.035578,1.001027
2011-09-26T14:30:18.645084,3630,-0.001025,0.006336,-0.009324,-0.023467,0.035286,1.001329
2011-09-26T14:30:18.655084,3640,-0.000611,0.009553,-0.008849,-0.023680,0.035553,1.000978
2011-09-26T14:30:18.665084,3650,-0.000219,0.012852,-0.008387,-0.023907,0.035840,1.000603
2011-09-26T14:30:18.675084,3660,0.000174,0.016151,-0.007926,-0.024133,0.036128,1.000227
2011-09-26T14:30:18.685084,3670,0.000566,0.019450,-0.007465,-0.024359,0.036415,0.999852
2011-09-26T14:30:18.695084,3680,0.000959,0.022749,-0.007003,-0.024586,0.036703,0.999476
2011-09-26T14:30:18.705084,3690,0.001351,0.026048,-0.006542,-0.024812,0.036990,0.999101
2011-09-26T14:30:18.715084,3700,0.001744,0.029347,-0.006080,-0.025039,0.037278,0.998725
2011-09-26T14:30:18.725084,3710,0.002136,0.032646,-0.005619,-0.025265,0.037565,0.998350
2011-09-26T14:30:18.735084,3720,0.002529,0.035945,-0.005158,-0.025491,0.037853,0.997975
2011-09-26T14:30:18.745084,3730,0.002921,0.039245,-0.004696,-0.025718,0.038140,0.997599
2011-09-26T14:30:18.755084,3740,-0.003246,0.040423,-0.004281,-0.025691,0.037955,0.997771
2011-09-26T14:30:18.765084,3750,-0.009547,0.041557,-0.003867,-0.025659,0.037759,0.997954
2011-09-26T14:30:18.775084,3760,-0.015848,0.042692,-0.003453,-0.025627,0.037564,0.998138
2011-09-26T14:30:18.785084,3770,-0.022149,0.043827,-0.003038,-0.025595,0.037368,0.998321
2011-09-26T14:30:18.795084,3780,-0.028450,0.044962,-0.002624,-0.025562,0.037173,0.998504
2011-09-26T14:30:18.805084,3790,-0.034751,0.046096,-0.002210,-0.025530,0.036977,0.998687
2011-09-26T14:30:18.815084,3800,-0.041052,0.047231,-0.001796,-0.025498,0.036782,0.998871
2011-09-26T14:30:18.825084,3810,-0.047353,0.048366,-0.001382,-0.025466,0.036586,0.999054
2011-09-26T14:30:18.835084,3820,-0.053654,0.049500,-0.000967,-0.025434,0.036391,0.999237
2011-09-26T14:30:18.845084,3830,-0.059955,0.050635,-0.000553,-0.025402,0.036196,0.999420
2011-09-26T14:30:18.855084,3840,-0.066256,0.051770,-0.000139,-0.025370,0.036000,0.999603
2011-09-26T14:30:18.865084,3850,-0.060359,0.044106,-0.003288,-0.025253,0.036020,0.999505
2011-09-26T14:30:18.875084,3860,-0.054214,0.036264,-0.006509,-0.025135,0.036043,0.999401
2011-09-26T14:30:18.885084,3870,-0.048070,0.028421,-0.009731,-0.025017,0.036067,0.999296
2011-09-26T14:30:18.895084,3880,-0.041925,0.020579,-0.012952,-0.024899,0.036091,0.999192
2011-09-26T14:30:18.905084,3890,-0.035780,0.012737,-0.016174,-0.024780,0.036115,0.999088
2011-09-26T14:30:18.915084,3900,-0.029636,0.004894,-0.019395,-0.024662,0.036138,0.998983
2011-09-26T14:30:18.925084,3910,-0.023491,-0.002948,-0.022617,-0.024544,0.036162,0.998879
2011-09-26T14:30:18.935084,3920,-0.017347,-0.010791,-0.025838,-0.024426,0.036186,0.998774
2011-09-26T14:30:18.945084,3930,-0.011202,-0.018633,-0.029060,-0.024307,0.036210,0.998670
2011-09-26T14:30:18.955084,3940,-0.005057,-0.026475,-0.032281,-0.024189,0.036233,0.998566
2011-09-26T14:30:18.965084,3950,-0.006814,-0.020785,-0.024347,-0.024184,0.036267,0.998773
2011-09-26T14:30:18.975084,3960,-0.008707,-0.014863,-0.016222,-0.024182,0.036301,0.998986
2011-09-26T14:30:18.985084,3970,-0.010599,-0.008942,-0.008097,-0.024179,0.036334,0.999199
2011-09-26T14:30:18.995084,3980,-0.012491,-0.003020,0.000028,-0.024176,0.036368,0.999412
2011-09-26T14:30:19.005084,3990,-0.014383,0.002901,0.008153,-0.024173,0.036402,0.999625
2011-09-26T14:30:19.015084,4000,-0.016275,0.008823,0.016278,-0.024170,0.036436,0.999838
2011-09-26T14:30:19.025084,4010,-0.018167,0.014744,0.024403,-0.024168,0.036469,1.000051
2011-09-26T14:30:19.035084,4020,-0.020059,0.020666,0.032528,-0.024165,0.036503,1.000264
2011-09-26T14:30:19.045084,4030,-0.021951,0.026587,0.040653,-0.024162,0.036537,1.000476
2011-09-26T14:30:19.055084,4040,-0.023843,0.032509,0.048778,-0.024159,0.036570,1.000689
2011-09-26T14:30:19.065084,4050,-0.023301,0.027954,0.038920,-0.024315,0.036497,1.000513
2011-09-26T14:30:19.075084,4060,-0.022715,0.023209,0.028737,-0.024474,0.036421,1.000329
2011-09-26T14:30:19.085084,4070,-0.022129,0.018464,0.018554,-0.024633,0.036345,1.000145
2011-09-26T14:30:19.095084,4080,-0.021542,0.013719,0.008370,-0.024793,0.036269,0.999961
2011-09-26T14:30:19.105084,4090,-0.020956,0.008974,-0.001813,-0.024952,0.036193,0.999777
2011-09-26T14:30:19.115084,4100,-0.020370,0.004229,-0.011996,-0.025111,0.036118,0.999594
2011-09-26T14:30:19.125084,4110,-0.019784,-0.000517,-0.022180,-0.025270,0.036042,0.999410
2011-09-26T14:30:19.135084,4120,-0.019198,-0.005262,-0.032363,-0.025429,0.035966,0.999226
2011-09-26T14:30:19.145084,4130,-0.018611,-0.010007,-0.042547,-0.025588,0.035890,0.999042
2011-09-26T14:30:19.155084,4140,-0.018025,-0.014752,-0.052730,-0.025747,0.035814,0.998858
2011-09-26T14:30:19.165084,4150,-0.017439,-0.019497,-0.062913,-0.025906,0.035739,0.998674
2011-09-26T14:30:19.175084,4160,-0.013800,-0.020683,-0.058381,-0.025744,0.035806,0.998756
2011-09-26T14:30:19.185084,4170,-0.010036,-0.021723,-0.053246,-0.025569,0.035879,0.998848
2011-09-26T14:30:19.195084,4180,-0.006273,-0.022764,-0.048112,-0.025393,0.035952,0.998940
2011-09-26T14:30:19.205084,4190,-0.002509,-0.023804,-0.042978,-0.025218,0.036025,0.999033
2011-09-26T14:30:19.215084,4200,0.001255,-0.024845,-0.037843,-0.025042,0.036098,0.999125
2011-09-26T14:30:19.225084,4210,0.005018,-0.025885,-0.032709,-0.024867,0.036170,0.999217
2011-09-26T14:30:19.235084,4220,0.008782,-0.026925,-0.027574,-0.024692,0.036243,0.999310
2011-09-26T14:30:19.245084,4230,0.012546,-0.027966,-0.022440,-0.024516,0.036316,0.999402
2011-09-26T14:30:19.255084,4240,0.016310,-0.029006,-0.017305,-0.024341,0.036389,0.999494
2011-09-26T14:30:19.265084,4250,0.020073,-0.030047,-0.012171,-0.024165,0.036462,0.999586
2011-09-26T14:30:19.275084,4260,0.016459,-0.027988,-0.009354,-0.024223,0.036489,0.999577
2011-09-26T14:30:19.285084,4270,0.012747,-0.025888,-0.006569,-0.024284,0.036516,0.999566
2011-09-26T14:30:19.295084,4280,0.009034,-0.023788,-0.003783,-0.024345,0.036543,0.999555
2011-09-26T14:30:19.305084,4290,0.005322,-0.021689,-0.000997,-0.024406,0.036569,0.999544
2011-09-26T14:30:19.315084,4300,0.001609,-0.019589,0.001789,-0.024466,0.036596,0.999533
2011-09-26T14:30:19.325084,4310,-0.002103,-0.017489,0.004574,-0.024527,0.036623,0.999522
2011-09-26T14:30:19.335084,4320,-0.005816,-0.015389,0.007360,-0.024588,0.036649,0.999511
2011-09-26T14:30:19.345084,4330,-0.009528,-0.013289,0.010146,-0.024649,0.036676,0.999499
2011-09-26T14:30:19.355084,4340,-0.013241,-0.011189,0.012931,-0.024710,0.036703,0.999488
2011-09-26T14:30:19.365084,4350,-0.016953,-0.009089,0.015717,-0.024771,0.036729,0.999477
2011-09-26T14:30:19.375084,4360,-0.016470,-0.005449,0.014200,-0.024900,0.036817,0.999282
2011-09-26T14:30:19.385084,4370,-0.015921,-0.001785,0.012617,-0.025031,0.036907,0.999084
2011-09-26T14:30:19.395084,4380,-0.015373,0.001879,0.011035,-0.025162,0.036996,0.998886
2011-09-26T14:30:19.405084,4390,-0.014825,0.005543,0.009452,-0.025293,0.037085,0.998689
2011-09-26T14:30:19.415084,4400,-0.014277,0.009208,0.007869,-0.025424,0.037174,0.998491
2011-09-26T14:30:19.425084,4410,-0.013728,0.012872,0.006286,-0.025555,0.037264,0.998293
2011-09-26T14:30:19.435084,4420,-0.013180,0.016536,0.004703,-0.025685,0.037353,0.998095
2011-09-26T14:30:19.445084,4430,-0.012632,0.020200,0.003120,-0.025816,0.037442,0.997897
2011-09-26T14:30:19.455084,4440,-0.012084,0.023864,0.001538,-0.025947,0.037531,0.997699
2011-09-26T14:30:19.465084,4450,-0.011535,0.027528,-0.000045,-0.026078,0.037620,0.997501
2011-09-26T14:30:19.475084,4460,-0.010987,0.031192,-0.001628,-0.026209,0.037710,0.997303
2011-09-26T14:30:19.485084,4470,-0.012804,0.024344,0.000987,-0.026089,0.037471,0.997590
2011-09-26T14:30:19.495084,4480,-0.014653,0.017350,0.003661,-0.025965,0.037228,0.997885
2011-09-26T14:30:19.505084,4490,-0.016502,0.010356,0.006335,-0.025842,0.036984,0.998179
2011-09-26T14:30:19.515084,4500,-0.018352,0.003362,0.009009,-0.025718,0.036741,0.998473
2011-09-26T14:30:19.525084,4510,-0.020201,-0.003631,0.011683,-0.025594,0.036498,0.998767
2011-09-26T14:30:19.535084,4520,-0.022050,-0.010625,0.014357,-0.025471,0.036255,0.999061
2011-09-26T14:30:19.545084,4530,-0.023900,-0.017619,0.017030,-0.025347,0.036011,0.999355
2011-09-26T14:30:19.555084,4540,-0.025749,-0.024613,0.019704,-0.025224,0.035768,0.999649
2011-09-26T14:30:19.565084,4550,-0.027598,-0.031607,0.022378,-0.025100,0.035525,0.999944
2011-09-26T14:30:19.575084,4560,-0.029447,-0.038601,0.025052,-0.024977,0.035282,1.000238
2011-09-26T14:30:19.585084,4570,-0.025905,-0.032971,0.020289,-0.024902,0.035403,1.000075
2011-09-26T14:30:19.595084,4580,-0.022285,-0.027159,0.015419,-0.024829,0.035529,0.999906
2011-09-26T14:30:19.605084,4590,-0.018664,-0.021348,0.010549,-0.024755,0.035655,0.999737
2011-09-26T14:30:19.615084,4600,-0.015044,-0.015536,0.005679,-0.024681,0.035782,0.999568
2011-09-26T14:30:19.625084,4610,-0.011424,-0.009724,0.000808,-0.024608,0.035908,0.999399
2011-09-26T14:30:19.635084,4620,-0.007804,-0.003912,-0.004062,-0.024534,0.036034,0.999230
2011-09-26T14:30:19.645084,4630,-0.004183,0.001900,-0.008932,-0.024460,0.036161,0.999061
2011-09-26T14:30:19.655084,4640,-0.000563,0.007711,-0.013802,-0.024387,0.036287,0.998892
2011-09-26T14:30:19.665084,4650,0.003057,0.013523,-0.018672,-0.024313,0.036413,0.998723
2011-09-26T14:30:19.675084,4660,0.006678,0.019335,-0.023542,-0.024239,0.036540,0.998554
2011-09-26T14:30:19.685084,4670,0.009271,0.020626,-0.019081,-0.024291,0.036592,0.998710
2011-09-26T14:30:19.695084,4680,0.011845,0.021833,-0.014445,-0.024346,0.036643,0.998872
2011-09-26T14:30:19.705084,4690,0.014418,0.023039,-0.009809,-0.024400,0.036695,0.999033
2011-09-26T14:30:19.715084,4700,0.016992,0.024246,-0.005173,-0.024454,0.036746,0.999195
2011-09-26T14:30:19.725084,4710,0.019566,0.025452,-0.000537,-0.024509,0.036797,0.999357
2011-09-26T14:30:19.735084,4720,0.022140,0.026659,0.004099,-0.024563,0.036848,0.999519
2011-09-26T14:30:19.745084,4730,0.024714,0.027865,0.008734,-0.024617,0.036899,0.999681
2011-09-26T14:30:19.755084,4740,0.027288,0.029072,0.013370,-0.024672,0.036950,0.999843
2011-09-26T14:30:19.765084,4750,0.029862,0.030278,0.018006,-0.024726,0.037002,1.000004
2011-09-26T14:30:19.775084,4760,0.032436,0.031485,0.022642,-0.024780,0.037053,1.000166
2011-09-26T14:30:19.785084,4770,0.035010,0.032692,0.027278,-0.024834,0.037104,1.000328
2011-09-26T14:30:19.795084,4780,0.032668,0.030232,0.029086,-0.024973,0.037126,1.000079
2011-09-26T14:30:19.805084,4790,0.030232,0.027701,0.030839,-0.025113,0.037149,0.999822
2011-09-26T14:30:19.815084,4800,0.027795,0.025170,0.032592,-0.025253,0.037171,0.999565
2011-09-26T14:30:19.825084,4810,0.025359,0.022639,0.034346,-0.025393,0.037193,0.999308
2011-09-26T14:30:19.835084,4820,0.022922,0.020108,0.036099,-0.025533,0.037215,0.999051
2011-09-26T14:30:19.845084,4830,0.020485,0.017577,0.037852,-0.025674,0.037237,0.998794
2011-09-26T14:30:19.855084,4840,0.018049,0.015046,0.039605,-0.025814,0.037259,0.998537
2011-09-26T14:30:19.865084,4850,0.015612,0.012515,0.041358,-0.025954,0.037281,0.998280
2011-09-26T14:30:19.875084,4860,0.013176,0.009984,0.043111,-0.026094,0.037303,0.998024
2011-09-26T14:30:19.885084,4870,0.010739,0.007453,0.044865,-0.026234,0.037325,0.997767
2011-09-26T14:30:19.895084,4880,0.007631,0.002285,0.045921,-0.025952,0.037098,0.998076
2011-09-26T14:30:19.905084,4890,0.004509,-0.002936,0.046964,-0.025661,0.036867,0.998397
2011-09-26T14:30:19.915084,4900,0.001387,-0.008156,0.048006,-0.025371,0.036635,0.998717
2011-09-26T14:30:19.925084,4910,-0.001734,-0.013377,0.049049,-0.025080,0.036403,0.999038
2011-09-26T14:30:19.935084,4920,-0.004856,-0.018598,0.050092,-0.024790,0.036171,0.999359
2011-09-26T14:30:19.945084,4930,-0.007978,-0.023819,0.051134,-0.024500,0.035939,0.999679
2011-09-26T14:30:19.955084,4940,-0.011100,-0.029039,0.052177,-0.024209,0.035707,1.000000
2011-09-26T14:30:19.965084,4950,-0.014221,-0.034260,0.053220,-0.023919,0.035475,1.000321
2011-09-26T14:30:19.975084,4960,-0.017343,-0.039481,0.054262,-0.023628,0.035243,1.000642
2011-09-26T14:30:19.985084,4970,-0.020465,-0.044702,0.055305,-0.023338,0.035012,1.000962
2011-09-26T14:30:19.995084,4980,-0.021130,-0.040406,0.045384,-0.023490,0.035181,1.000765
2011-09-26T14:30:20.005084,4990,-0.021749,-0.035933,0.035258,-0.023650,0.035358,1.000558
2011-09-26T14:30:20.015084,5000,-0.022368,-0.031460,0.025133,-0.023811,0.035534,1.000350
2011-09-26T14:30:20.025084,5010,-0.022987,-0.026987,0.015008,-0.023971,0.035711,1.000143
2011-09-26T14:30:20.035084,5020,-0.023606,-0.022514,0.004882,-0.024132,0.035888,0.999936
2011-09-26T14:30:20.045084,5030,-0.024225,-0.018041,-0.005243,-0.024292,0.036065,0.999729
2011-09-26T14:30:20.055084,5040,-0.024844,-0.013568,-0.015368,-0.024453,0.036242,0.999522
2011-09-26T14:30:20.065084,5050,-0.025463,-0.009095,-0.025494,-0.024613,0.036418,0.999314
2011-09-26T14:30:20.075084,5060,-0.026082,-0.004622,-0.035619,-0.024773,0.036595,0.999107
2011-09-26T14:30:20.085084,5070,-0.026701,-0.000149,-0.045744,-0.024934,0.036772,0.998900
2011-09-26T14:30:20.095084,5080,-0.027320,0.004324,-0.055870,-0.025094,0.036949,0.998693
2011-09-26T14:30:20.105084,5090,-0.026085,0.005868,-0.052310,-0.025094,0.036926,0.998744
2011-09-26T14:30:20.115084,5100,-0.024808,0.007346,-0.048443,-0.025090,0.036899,0.998802
2011-09-26T14:30:20.125084,5110,-0.023531,0.008824,-0.044576,-0.025085,0.036872,0.998859
2011-09-26T14:30:20.135084,5120,-0.022255,0.010302,-0.040709,-0.025081,0.036845,0.998917
2011-09-26T14:30:20.145084,5130,-0.020978,0.011780,-0.036842,-0.025077,0.036818,0.998974
2011-09-26T14:30:20.155084,5140,-0.019702,0.013258,-0.032975,-0.025073,0.036791,0.999031
2011-09-26T14:30:20.165084,5150,-0.018425,0.014736,-0.029108,-0.025069,0.036764,0.999089
2011-09-26T14:30:20.175084,5160,-0.017149,0.016214,-0.025241,-0.025064,0.036737,0.999146
2011-09-26T14:30:20.185084,5170,-0.015872,0.017692,-0.021374,-0.025060,0.036710,0.999204
2011-09-26T14:30:20.195084,5180,-0.014595,0.019170,-0.017507,-0.025056,0.036683,0.999261
2011-09-26T14:30:20.205084,5190,-0.016308,0.015167,-0.016146,-0.025071,0.036665,0.999219
2011-09-26T14:30:20.215084,5200,-0.018079,0.011057,-0.014834,-0.025087,0.036647,0.999175
2011-09-26T14:30:20.225084,5210,-0.019850,0.006946,-0.013521,-0.025103,0.036629,0.999132
2011-09-26T14:30:20.235084,5220,-0.021622,0.002835,-0.012209,-0.025119,0.036611,0.999088
2011-09-26T14:30:20.245084,5230,-0.023393,-0.001275,-0.010897,-0.025135,0.036593,0.999044
2011-09-26T14:30:20.255084,5240,-0.025164,-0.005386,-0.009584,-0.025151,0.036575,0.999000
2011-09-26T14:30:20.265084,5250,-0.026935,-0.009496,-0.008272,-0.025167,0.036557,0.998956
2011-09-26T14:30:20.275084,5260,-0.028707,-0.013607,-0.006960,-0.025183,0.036539,0.998913
2011-09-26T14:30:20.285084,5270,-0.030478,-0.017718,-0.005647,-0.025198,0.036522,0.998869
2011-09-26T14:30:20.295084,5280,-0.032249,-0.021828,-0.004335,-0.025214,0.036504,0.998825
2011-09-26T14:30:20.305084,5290,-0.026349,-0.019495,-0.004030,-0.025202,0.036522,0.998757
2011-09-26T14:30:20.315084,5300,-0.020267,-0.017009,-0.003749,-0.025190,0.036542,0.998688
2011-09-26T14:30:20.325084,5310,-0.014184,-0.014523,-0.003468,-0.025177,0.036561,0.998619
2011-09-26T14:30:20.335084,5320,-0.008102,-0.012037,-0.003188,-0.025164,0.036581,0.998551
2011-09-26T14:30:20.345084,5330,-0.002019,-0.009550,-0.002907,-0.025152,0.036600,0.998482
2011-09-26T14:30:20.355084,5340,0.004063,-0.007064,-0.002626,-0.025139,0.036620,0.998413
2011-09-26T14:30:20.365084,5350,0.010145,-0.004578,-0.002345,-0.025126,0.036639,0.998344
2011-09-26T14:30:20.375084,5360,0.016228,-0.002092,-0.002064,-0.025114,0.036659,0.998276
2011-09-26T14:30:20.385084,5370,0.022310,0.000394,-0.001783,-0.025101,0.036678,0.998207
2011-09-26T14:30:20.395084,5380,0.028393,0.002880,-0.001502,-0.025088,0.036698,0.998138
2011-09-26T14:30:20.405084,5390,0.034475,0.005367,-0.001222,-0.025076,0.036717,0.998070
2011-09-26T14:30:20.415084,5400,0.029880,0.002657,-0.000911,-0.025027,0.036685,0.998302
2011-09-26T14:30:20.425084,5410,0.025040,-0.000171,-0.000601,-0.024977,0.036651,0.998541
2011-09-26T14:30:20.435084,5420,0.020200,-0.002999,-0.000290,-0.024927,0.036618,0.998781
2011-09-26T14:30:20.445084,5430,0.015360,-0.005828,0.000021,-0.024877,0.036584,0.999020
2011-09-26T14:30:20.455084,5440,0.010520,-0.008656,0.000332,-0.024827,0.036551,0.999260
2011-09-26T14:30:20.465084,5450,0.005681,-0.011485,0.000643,-0.024777,0.036517,0.999499
2011-09-26T14:30:20.475084,5460,0.000841,-0.014313,0.000954,-0.024727,0.036484,0.999739
2011-09-26T14:30:20.485084,5470,-0.003999,-0.017141,0.001265,-0.024677,0.036451,0.999978
2011-09-26T14:30:20.495084,5480,-0.008839,-0.019970,0.001576,-0.024627,0.036417,1.000217
2011-09-26T14:30:20.505084,5490,-0.013679,-0.022798,0.001886,-0.024578,0.036384,1.000457
2011-09-26T14:30:20.515084,5500,-0.016404,-0.019387,0.001491,-0.024701,0.036481,1.000199
2011-09-26T14:30:20.525084,5510,-0.019084,-0.015846,0.001080,-0.024828,0.036581,0.999930
2011-09-26T14:30:20.535084,5520,-0.021765,-0.012304,0.000669,-0.024956,0.036682,0.999662
2011-09-26T14:30:20.545084,5530,-0.024445,-0.008762,0.000258,-0.025083,0.036782,0.999393
2011-09-26T14:30:20.555084,5540,-0.027126,-0.005220,-0.000153,-0.025210,0.036882,0.999125
2011-09-26T14:30:20.565084,5550,-0.029806,-0.001678,-0.000564,-0.025337,0.036982,0.998856
2011-09-26T14:30:20.575084,5560,-0.032487,0.001864,-0.000974,-0.025464,0.037083,0.998588
2011-09-26T14:30:20.585084,5570,-0.035167,0.005406,-0.001385,-0.025592,0.037183,0.998319
2011-09-26T14:30:20.595084,5580,-0.037848,0.008948,-0.001796,-0.025719,0.037283,0.998051
2011-09-26T14:30:20.605084,5590,-0.040528,0.012490,-0.002207,-0.025846,0.037384,0.997782
2011-09-26T14:30:20.615084,5600,-0.043208,0.016032,-0.002618,-0.025973,0.037484,0.997514
2011-09-26T14:30:20.625084,5610,-0.041402,0.014889,0.000060,-0.025758,0.037321,0.997810
2011-09-26T14:30:20.635084,5620,-0.039393,0.013536,0.002877,-0.025527,0.037146,0.998132
2011-09-26T14:30:20.645084,5630,-0.037384,0.012182,0.005694,-0.025297,0.036971,0.998454
2011-09-26T14:30:20.655084,5640,-0.035375,0.010828,0.008511,-0.025066,0.036796,0.998776
2011-09-26T14:30:20.665084,5650,-0.033366,0.009475,0.011327,-0.024835,0.036621,0.999098
2011-09-26T14:30:20.675084,5660,-0.031357,0.008121,0.014144,-0.024605,0.036446,0.999420
2011-09-26T14:30:20.685084,5670,-0.029348,0.006767,0.016961,-0.024374,0.036271,0.999742
2011-09-26T14:30:20.695084,5680,-0.027339,0.005414,0.019778,-0.024143,0.036096,1.000063
2011-09-26T14:30:20.705084,5690,-0.025330,0.004060,0.022595,-0.023913,0.035921,1.000385
2011-09-26T14:30:20.715084,5700,-0.023321,0.002706,0.025412,-0.023682,0.035746,1.000707
2011-09-26T14:30:20.725084,5710,-0.022810,0.005049,0.022178,-0.023863,0.035878,1.000476
2011-09-26T14:30:20.735084,5720,-0.022337,0.007487,0.018787,-0.024054,0.036017,1.000230
2011-09-26T14:30:20.745084,5730,-0.021864,0.009926,0.015397,-0.024246,0.036157,0.999984
2011-09-26T14:30:20.755084,5740,-0.021391,0.012364,0.012006,-0.024437,0.036296,0.999739
2011-09-26T14:30:20.765084,5750,-0.020919,0.014803,0.008615,-0.024629,0.036436,0.999493
2011-09-26T14:30:20.775084,5760,-0.020446,0.017241,0.005224,-0.024820,0.036575,0.999247
2011-09-26T14:30:20.785084,5770,-0.019973,0.019679,0.001834,-0.025012,0.036715,0.999002
2011-09-26T14:30:20.795084,5780,-0.019500,0.022118,-0.001557,-0.025203,0.036854,0.998756
2011-09-26T14:30:20.805084,5790,-0.019028,0.024556,-0.004948,-0.025395,0.036994,0.998510
2011-09-26T14:30:20.815084,5800,-0.018555,0.026995,-0.008338,-0.025586,0.037133,0.998265
2011-09-26T14:30:20.825084,5810,-0.016597,0.025456,-0.008077,-0.025527,0.037110,0.998355
2011-09-26T14:30:20.835084,5820,-0.014608,0.023836,-0.007741,-0.025462,0.037083,0.998452
2011-09-26T14:30:20.845084,5830,-0.012619,0.022216,-0.007405,-0.025398,0.037057,0.998550
2011-09-26T14:30:20.855084,5840,-0.010631,0.020596,-0.007069,-0.025333,0.037030,0.998647
2011-09-26T14:30:20.865084,5850,-0.008642,0.018976,-0.006733,-0.025268,0.037004,0.998744
2011-09-26T14:30:20.875084,5860,-0.006653,0.017356,-0.006398,-0.025204,0.036977,0.998842
2011-09-26T14:30:20.885084,5870,-0.004665,0.015736,-0.006062,-0.025139,0.036951,0.998939
2011-09-26T14:30:20.895084,5880,-0.002676,0.014117,-0.005726,-0.025075,0.036924,0.999036
2011-09-26T14:30:20.905084,5890,-0.000687,0.012497,-0.005390,-0.025010,0.036898,0.999134
2011-09-26T14:30:20.915084,5900,0.001301,0.010877,-0.005054,-0.024945,0.036871,0.999231
2011-09-26T14:30:20.925084,5910,0.003290,0.009257,-0.004718,-0.024881,0.036845,0.999328
2011-09-26T14:30:20.935084,5920,-0.000771,0.007962,-0.004612,-0.024911,0.036849,0.999282
2011-09-26T14:30:20.945084,5930,-0.004957,0.006674,-0.004510,-0.024944,0.036853,0.999232
2011-09-26T14:30:20.955084,5940,-0.009144,0.005387,-0.004409,-0.024976,0.036857,0.999182
2011-09-26T14:30:20.965084,5950,-0.013331,0.004099,-0.004308,-0.025009,0.036861,0.999133
2011-09-26T14:30:20.975084,5960,-0.017517,0.002811,-0.004206,-0.025041,0.036866,0.999083
2011-09-26T14:30:20.985084,5970,-0.021704,0.001524,-0.004105,-0.025073,0.036870,0.999033
2011-09-26T14:30:20.995084,5980,-0.025891,0.000236,-0.004003,-0.025106,0.036874,0.998984
2011-09-26T14:30:21.005084,5990,-0.030078,-0.001052,-0.003902,-0.025138,0.036878,0.998934
2011-09-26T14:30:21.015084,6000,-0.034264,-0.002340,-0.003801,-0.025171,0.036883,0.998884
2011-09-26T14:30:21.025084,6010,-0.038451,-0.003627,-0.003699,-0.025203,0.036887,0.998835
2011-09-26T14:30:21.035084,6020,-0.036702,-0.003118,-0.002558,-0.025212,0.036914,0.998784
2011-09-26T14:30:21.045084,6030,-0.034832,-0.002571,-0.001395,-0.025221,0.036943,0.998734
2011-09-26T14:30:21.055084,6040,-0.032962,-0.002024,-0.000232,-0.025230,0.036971,0.998683
2011-09-26T14:30:21.065084,6050,-0.031092,-0.001478,0.000931,-0.025238,0.036999,0.998633
2011-09-26T14:30:21.075084,6060,-0.029222,-0.000931,0.002093,-0.025247,0.037027,0.998582
2011-09-26T14:30:21.085084,6070,-0.027352,-0.000385,0.003256,-0.025256,0.037055,0.998532
2011-09-26T14:30:21.095084,6080,-0.025481,0.000162,0.004419,-0.025264,0.037083,0.998481
2011-09-26T14:30:21.105084,6090,-0.023611,0.000708,0.005582,-0.025273,0.037112,0.998431
2011-09-26T14:30:21.115084,6100,-0.021741,0.001255,0.006744,-0.025282,0.037140,0.998380
2011-09-26T14:30:21.125084,6110,-0.019871,0.001802,0.007907,-0.025291,0.037168,0.998330
2011-09-26T14:30:21.135084,6120,-0.018001,0.002348,0.009070,-0.025299,0.037196,0.998280
2011-09-26T14:30:21.145084,6130,-0.016226,-0.001034,0.005868,-0.025261,0.037058,0.998478
2011-09-26T14:30:21.155084,6140,-0.014454,-0.004523,0.002547,-0.025221,0.036916,0.998684
2011-09-26T14:30:21.165084,6150,-0.012681,-0.008012,-0.000774,-0.025181,0.036774,0.998889
2011-09-26T14:30:21.175084,6160,-0.010909,-0.011501,-0.004095,-0.025141,0.036632,0.999095
2011-09-26T14:30:21.185084,6170,-0.009137,-0.014990,-0.007416,-0.025101,0.036490,0.999300
2011-09-26T14:30:21.195084,6180,-0.007365,-0.018479,-0.010737,-0.025061,0.036348,0.999506
2011-09-26T14:30:21.205084,6190,-0.005593,-0.021968,-0.014058,-0.025021,0.036206,0.999711
2011-09-26T14:30:21.215084,6200,-0.003820,-0.025458,-0.017379,-0.024981,0.036064,0.999917
2011-09-26T14:30:21.225084,6210,-0.002048,-0.028947,-0.020700,-0.024941,0.035921,1.000122
2011-09-26T14:30:21.235084,6220,-0.000276,-0.032436,-0.024020,-0.024901,0.035779,1.000328
2011-09-26T14:30:21.245084,6230,0.000072,-0.025850,-0.021835,-0.024925,0.035910,1.000122
2011-09-26T14:30:21.255084,6240,0.000393,-0.019067,-0.019542,-0.024950,0.036046,0.999908
2011-09-26T14:30:21.265084,6250,0.000713,-0.012285,-0.017249,-0.024974,0.036183,0.999694
2011-09-26T14:30:21.275084,6260,0.001034,-0.005502,-0.014956,-0.024999,0.036319,0.999480
2011-09-26T14:30:21.285084,6270,0.001354,0.001280,-0.012663,-0.025024,0.036455,0.999267
2011-09-26T14:30:21.295084,6280,0.001675,0.008063,-0.010370,-0.025049,0.036591,0.999053
2011-09-26T14:30:21.305084,6290,0.001995,0.014846,-0.008077,-0.025074,0.036727,0.998839
2011-09-26T14:30:21.315084,6300,0.002316,0.021628,-0.005784,-0.025099,0.036864,0.998625
2011-09-26T14:30:21.325084,6310,0.002636,0.028411,-0.003491,-0.025124,0.037000,0.998412
2011-09-26T14:30:21.335084,6320,0.002957,0.035193,-0.001198,-0.025149,0.037136,0.998198
2011-09-26T14:30:21.345084,6330,0.003977,0.031138,-0.002425,-0.025059,0.036987,0.998413
2011-09-26T14:30:21.355084,6340,0.005013,0.026830,-0.003735,-0.024967,0.036832,0.998639
2011-09-26T14:30:21.365084,6350,0.006050,0.022523,-0.005045,-0.024874,0.036677,0.998864
2011-09-26T14:30:21.375084,6360,0.007086,0.018215,-0.006354,-0.024782,0.036522,0.999089
2011-09-26T14:30:21.385084,6370,0.008123,0.013908,-0.007664,-0.024689,0.036367,0.999314
2011-09-26T14:30:21.395084,6380,0.009159,0.009601,-0.008973,-0.024597,0.036212,0.999540
2011-09-26T14:30:21.405084,6390,0.010195,0.005293,-0.010283,-0.024504,0.036057,0.999765
2011-09-26T14:30:21.415084,6400,0.011232,0.000986,-0.011592,-0.024412,0.035902,0.999990
2011-09-26T14:30:21.425084,6410,0.012268,-0.003322,-0.012902,-0.024319,0.035747,1.000216
2011-09-26T14:30:21.435084,6420,0.013304,-0.007629,-0.014211,-0.024227,0.035592,1.000441
2011-09-26T14:30:21.445084,6430,0.014341,-0.011936,-0.015521,-0.024135,0.035437,1.000666
2011-09-26T14:30:21.455084,6440,0.011532,-0.009715,-0.017151,-0.024329,0.035604,1.000432
2011-09-26T14:30:21.465084,6450,0.008617,-0.007313,-0.018790,-0.024531,0.035779,1.000184
2011-09-26T14:30:21.475084,6460,0.005703,-0.004910,-0.020429,-0.024734,0.035955,0.999936
2011-09-26T14:30:21.485084,6470,0.002788,-0.002508,-0.022068,-0.024936,0.036131,0.999689
2011-09-26T14:30:21.495084,6480,-0.000127,-0.000105,-0.023707,-0.025139,0.036307,0.999441
2011-09-26T14:30:21.505084,6490,-0.003042,0.002297,-0.025347,-0.025341,0.036482,0.999193
2011-09-26T14:30:21.515084,6500,-0.005957,0.004700,-0.026986,-0.025544,0.036658,0.998946
2011-09-26T14:30:21.525084,6510,-0.008872,0.007102,-0.028625,-0.025746,0.036834,0.998698
2011-09-26T14:30:21.535084,6520,-0.011787,0.009505,-0.030264,-0.025949,0.037010,0.998450
2011-09-26T14:30:21.545084,6530,-0.014702,0.011907,-0.031903,-0.026151,0.037186,0.998203
2011-09-26T14:30:21.555084,6540,-0.015779,0.005906,-0.028086,-0.025953,0.037074,0.998411
2011-09-26T14:30:21.565084,6550,-0.016810,-0.000307,-0.024131,-0.025744,0.036954,0.998631
2011-09-26T14:30:21.575084,6560,-0.017841,-0.006521,-0.020176,-0.025536,0.036835,0.998851
2011-09-26T14:30:21.585084,6570,-0.018872,-0.012734,-0.016221,-0.025327,0.036715,0.999071
2011-09-26T14:30:21.595084,6580,-0.019902,-0.018947,-0.012266,-0.025119,0.036596,0.999290
2011-09-26T14:30:21.605084,6590,-0.020933,-0.025160,-0.008311,-0.024911,0.036476,0.999510
2011-09-26T14:30:21.615084,6600,-0.021964,-0.031374,-0.004356,-0.024702,0.036357,0.999730
2011-09-26T14:30:21.625084,6610,-0.022995,-0.037587,-0.000401,-0.024494,0.036238,0.999950
2011-09-26T14:30:21.635084,6620,-0.024025,-0.043800,0.003554,-0.024285,0.036118,1.000170
2011-09-26T14:30:21.645084,6630,-0.025056,-0.050013,0.007508,-0.024077,0.035999,1.000390
2011-09-26T14:30:21.655084,6640,-0.023978,-0.042649,0.003677,-0.024223,0.036120,1.000208
2011-09-26T14:30:21.665084,6650,-0.022812,-0.034718,-0.000480,-0.024383,0.036250,1.000010
2011-09-26T14:30:21.675084,6660,-0.021645,-0.026787,-0.004637,-0.024544,0.036381,0.999812
2011-09-26T14:30:21.685084,6670,-0.020479,-0.018856,-0.008793,-0.024705,0.036512,0.999613
2011-09-26T14:30:21.695084,6680,-0.019313,-0.010925,-0.012950,-0.024866,0.036642,0.999415
2011-09-26T14:30:21.705084,6690,-0.018146,-0.002994,-0.017107,-0.025026,0.036773,0.999217
2011-09-26T14:30:21.715084,6700,-0.016980,0.004938,-0.021264,-0.025187,0.036904,0.999018
2011-09-26T14:30:21.725084,6710,-0.015814,0.012869,-0.025420,-0.025348,0.037034,0.998820
2011-09-26T14:30:21.735084,6720,-0.014648,0.020800,-0.029577,-0.025509,0.037165,0.998621
2011-09-26T14:30:21.745084,6730,-0.013481,0.028731,-0.033734,-0.025669,0.037296,0.998423
2011-09-26T14:30:21.755084,6740,-0.012307,0.027110,-0.033303,-0.025543,0.037188,0.998555
2011-09-26T14:30:21.765084,6750,-0.011133,0.025263,-0.032763,-0.025409,0.037075,0.998695
2011-09-26T14:30:21.775084,6760,-0.009959,0.023415,-0.032223,-0.025276,0.036961,0.998834
2011-09-26T14:30:21.785084,6770,-0.008785,0.021568,-0.031683,-0.025142,0.036848,0.998974
2011-09-26T14:30:21.795084,6780,-0.007611,0.019721,-0.031143,-0.025008,0.036735,0.999114
2011-09-26T14:30:21.805084,6790,-0.006437,0.017873,-0.030604,-0.024875,0.036621,0.999253
2011-09-26T14:30:21.815084,6800,-0.005263,0.016026,-0.030064,-0.024741,0.036508,0.999393
2011-09-26T14:30:21.825084,6810,-0.004088,0.014179,-0.029524,-0.024608,0.036394,0.999533
2011-09-26T14:30:21.835084,6820,-0.002914,0.012332,-0.028984,-0.024474,0.036281,0.999672
2011-09-26T14:30:21.845084,6830,-0.001740,0.010484,-0.028444,-0.024340,0.036167,0.999812
2011-09-26T14:30:21.855084,6840,-0.000566,0.008637,-0.027905,-0.024207,0.036054,0.999952
2011-09-26T14:30:21.865084,6850,-0.003492,0.007599,-0.029167,-0.024361,0.036181,0.999782
2011-09-26T14:30:21.875084,6860,-0.006523,0.006582,-0.030476,-0.024522,0.036314,0.999604
2011-09-26T14:30:21.885084,6870,-0.009554,0.005564,-0.031784,-0.024684,0.036447,0.999427
2011-09-26T14:30:21.895084,6880,-0.012585,0.004546,-0.033093,-0.024845,0.036580,0.999249
2011-09-26T14:30:21.905084,6890,-0.015616,0.003529,-0.034401,-0.025006,0.036713,0.999072
2011-09-26T14:30:21.915084,6900,-0.018646,0.002511,-0.035710,-0.025168,0.036846,0.998894
2011-09-26T14:30:21.925084,6910,-0.021677,0.001494,-0.037018,-0.025329,0.036979,0.998717
2011-09-26T14:30:21.935084,6920,-0.024708,0.000476,-0.038326,-0.025490,0.037112,0.998539
2011-09-26T14:30:21.945084,6930,-0.027739,-0.000541,-0.039635,-0.025652,0.037245,0.998361
2011-09-26T14:30:21.955084,6940,-0.030770,-0.001559,-0.040943,-0.025813,0.037378,0.998184
2011-09-26T14:30:21.965084,6950,-0.030929,-0.003025,-0.037785,-0.025649,0.037280,0.998427
2011-09-26T14:30:21.975084,6960,-0.031019,-0.004502,-0.034519,-0.025478,0.037176,0.998680
2011-09-26T14:30:21.985084,6970,-0.031109,-0.005978,-0.031252,-0.025306,0.037073,0.998934
2011-09-26T14:30:21.995084,6980,-0.031199,-0.007455,-0.027985,-0.025135,0.036969,0.999187
2011-09-26T14:30:22.005084,6990,-0.031289,-0.008932,-0.024719,-0.024963,0.036865,0.999440
2011-09-26T14:30:22.015084,7000,-0.031380,-0.010409,-0.021452,-0.024792,0.036762,0.999694
2011-09-26T14:30:22.025084,7010,-0.031470,-0.011886,-0.018186,-0.024620,0.036658,0.999947
2011-09-26T14:30:22.035084,7020,-0.031560,-0.013363,-0.014919,-0.024448,0.036555,1.000200
2011-09-26T14:30:22.045084,7030,-0.031650,-0.014840,-0.011652,-0.024277,0.036451,1.000454
2011-09-26T14:30:22.055084,7040,-0.031740,-0.016317,-0.008386,-0.024105,0.036348,1.000707
2011-09-26T14:30:22.065084,7050,-0.028937,-0.020184,-0.006012,-0.024202,0.036313,1.000557
2011-09-26T14:30:22.075084,7060,-0.026058,-0.024114,-0.003662,-0.024306,0.036280,1.000396
2011-09-26T14:30:22.085084,7070,-0.023179,-0.028044,-0.001312,-0.024409,0.036248,1.000235
2011-09-26T14:30:22.095084,7080,-0.020300,-0.031974,0.001038,-0.024513,0.036215,1.000075
2011-09-26T14:30:22.105084,7090,-0.017421,-0.035904,0.003388,-0.024617,0.036182,0.999914
2011-09-26T14:30:22.115084,7100,-0.014543,-0.039835,0.005739,-0.024721,0.036150,0.999753
2011-09-26T14:30:22.125084,7110,-0.011664,-0.043765,0.008089,-0.024824,0.036117,0.999593
2011-09-26T14:30:22.135084,7120,-0.008785,-0.047695,0.010439,-0.024928,0.036084,0.999432
2011-09-26T14:30:22.145084,7130,-0.005906,-0.051625,0.012789,-0.025032,0.036052,0.999271
2011-09-26T14:30:22.155084,7140,-0.003027,-0.055555,0.015139,-0.025136,0.036019,0.999111
2011-09-26T14:30:22.165084,7150,-0.000148,-0.059485,0.017489,-0.025239,0.035986,0.998950
2011-09-26T14:30:22.175084,7160,0.002832,-0.051519,0.016498,-0.025186,0.036029,0.999035
2011-09-26T14:30:22.185084,7170,0.005816,-0.043120,0.015386,-0.025127,0.036073,0.999130
2011-09-26T14:30:22.195084,7180,0.008800,-0.034722,0.014273,-0.025068,0.036118,0.999225
2011-09-26T14:30:22.205084,7190,0.011784,-0.026324,0.013161,-0.025009,0.036163,0.999319
2011-09-26T14:30:22.215084,7200,0.014768,-0.017926,0.012048,-0.024950,0.036208,0.999414
2011-09-26T14:30:22.225084,7210,0.017752,-0.009528,0.010936,-0.024891,0.036253,0.999508
2011-09-26T14:30:22.235084,7220,0.020736,-0.001129,0.009823,-0.024831,0.036297,0.999603
2011-09-26T14:30:22.245084,7230,0.023720,0.007269,0.008711,-0.024772,0.036342,0.999697
2011-09-26T14:30:22.255084,7240,0.026704,0.015667,0.007598,-0.024713,0.036387,0.999792
2011-09-26T14:30:22.265084,7250,0.029688,0.024065,0.006486,-0.024654,0.036432,0.999887
2011-09-26T14:30:22.275084,7260,0.021905,0.019763,0.010839,-0.024625,0.036394,0.999891
2011-09-26T14:30:22.285084,7270,0.013840,0.015127,0.015336,-0.024597,0.036354,0.999894
2011-09-26T14:30:22.295084,7280,0.005774,0.010490,0.019832,-0.024568,0.036314,0.999896
2011-09-26T14:30:22.305084,7290,-0.002292,0.005854,0.024329,-0.024540,0.036274,0.999899
2011-09-26T14:30:22.315084,7300,-0.010358,0.001218,0.028826,-0.024512,0.036234,0.999901
2011-09-26T14:30:22.325084,7310,-0.018423,-0.003419,0.033323,-0.024483,0.036194,0.999904
2011-09-26T14:30:22.335084,7320,-0.026489,-0.008055,0.037820,-0.024455,0.036154,0.999906
2011-09-26T14:30:22.345084,7330,-0.034555,-0.012691,0.042317,-0.024427,0.036114,0.999908
2011-09-26T14:30:22.355084,7340,-0.042621,-0.017327,0.046814,-0.024398,0.036074,0.999911
2011-09-26T14:30:22.365084,7350,-0.050686,-0.021964,0.051310,-0.024370,0.036034,0.999913
2011-09-26T14:30:22.375084,7360,-0.058752,-0.026600,0.055807,-0.024342,0.035994,0.999916
2011-09-26T14:30:22.385084,7370,-0.053335,-0.023050,0.055653,-0.024419,0.036123,0.999765
2011-09-26T14:30:22.395084,7380,-0.047562,-0.019284,0.055376,-0.024500,0.036256,0.999610
2011-09-26T14:30:22.405084,7390,-0.041789,-0.015518,0.055099,-0.024581,0.036389,0.999455
2011-09-26T14:30:22.415084,7400,-0.036015,-0.011752,0.054822,-0.024661,0.036523,0.999299
2011-09-26T14:30:22.425084,7410,-0.030242,-0.007986,0.054545,-0.024742,0.036656,0.999144
2011-09-26T14:30:22.435084,7420,-0.024468,-0.004220,0.054268,-0.024822,0.036789,0.998989
2011-09-26T14:30:22.445084,7430,-0.018695,-0.000453,0.053991,-0.024903,0.036923,0.998834
2011-09-26T14:30:22.455084,7440,-0.012921,0.003313,0.053714,-0.024984,0.037056,0.998679
2011-09-26T14:30:22.465084,7450,-0.007148,0.007079,0.053437,-0.025064,0.037189,0.998524
2011-09-26T14:30:22.475084,7460,-0.001374,0.010845,0.053160,-0.025145,0.037323,0.998369
2011-09-26T14:30:22.485084,7470,-0.000272,0.006643,0.049550,-0.025129,0.037127,0.998495
2011-09-26T14:30:22.495084,7480,0.000694,0.002206,0.045842,-0.025110,0.036921,0.998630
2011-09-26T14:30:22.505084,7490,0.001660,-0.002230,0.042134,-0.025091,0.036715,0.998764
2011-09-26T14:30:22.515084,7500,0.002625,-0.006666,0.038427,-0.025072,0.036509,0.998899
2011-09-26T14:30:22.525084,7510,0.003591,-0.011102,0.034719,-0.025053,0.036303,0.999034
2011-09-26T14:30:22.535084,7520,0.004557,-0.015538,0.031011,-0.025034,0.036097,0.999168
2011-09-26T14:30:22.545084,7530,0.005523,-0.019974,0.027303,-0.025016,0.035891,0.999303
2011-09-26T14:30:22.555084,7540,0.006488,-0.024410,0.023595,-0.024997,0.035686,0.999437
2011-09-26T14:30:22.565084,7550,0.007454,-0.028846,0.019887,-0.024978,0.035480,0.999572
2011-09-26T14:30:22.575084,7560,0.008420,-0.033283,0.016179,-0.024959,0.035274,0.999707
2011-09-26T14:30:22.585084,7570,0.007786,-0.029363,0.012457,-0.025036,0.035448,0.999524
2011-09-26T14:30:22.595084,7580,0.007102,-0.025180,0.008735,-0.025116,0.035634,0.999331
2011-09-26T14:30:22.605084,7590,0.006417,-0.020997,0.005012,-0.025197,0.035821,0.999139
2011-09-26T14:30:22.615084,7600,0.005733,-0.016814,0.001289,-0.025277,0.036007,0.998946
2011-09-26T14:30:22.625084,7610,0.005049,-0.012631,-0.002433,-0.025357,0.036193,0.998754
2011-09-26T14:30:22.635084,7620,0.004364,-0.008449,-0.006156,-0.025437,0.036379,0.998561
2011-09-26T14:30:22.645084,7630,0.003680,-0.004266,-0.009878,-0.025517,0.036565,0.998368
2011-09-26T14:30:22.655084,7640,0.002996,-0.000083,-0.013601,-0.025597,0.036752,0.998176
2011-09-26T14:30:22.665084,7650,0.002312,0.004100,-0.017323,-0.025678,0.036938,0.997983
2011-09-26T14:30:22.675084,7660,0.001627,0.008283,-0.021046,-0.025758,0.037124,0.997791
2011-09-26T14:30:22.685084,7670,0.000943,0.012466,-0.024769,-0.025838,0.037310,0.997598
2011-09-26T14:30:22.695084,7680,0.002816,0.010516,-0.021213,-0.025645,0.037205,0.997863
2011-09-26T14:30:22.705084,7690,0.004777,0.008354,-0.017407,-0.025442,0.037090,0.998144
2011-09-26T14:30:22.715084,7700,0.006737,0.006193,-0.013600,-0.025240,0.036975,0.998425
2011-09-26T14:30:22.725084,7710,0.008698,0.004032,-0.009794,-0.025037,0.036860,0.998706
2011-09-26T14:30:22.735084,7720,0.010659,0.001871,-0.005988,-0.024835,0.036745,0.998987
2011-09-26T14:30:22.745084,7730,0.012620,-0.000291,-0.002181,-0.024632,0.036630,0.999268
2011-09-26T14:30:22.755084,7740,0.014581,-0.002452,0.001625,-0.024430,0.036515,0.999549
2011-09-26T14:30:22.765084,7750,0.016542,-0.004613,0.005431,-0.024227,0.036400,0.999830
2011-09-26T14:30:22.775084,7760,0.018502,-0.006774,0.009238,-0.024025,0.036285,1.000111
2011-09-26T14:30:22.785084,7770,0.020463,-0.008936,0.013044,-0.023822,0.036169,1.000392
2011-09-26T14:30:22.795084,7780,0.016235,-0.005234,0.013043,-0.024026,0.036270,1.000210
2011-09-26T14:30:22.805084,7790,0.011808,-0.001344,0.012919,-0.024242,0.036378,1.000012
2011-09-26T14:30:22.815084,7800,0.007381,0.002545,0.012795,-0.024459,0.036485,0.999814
2011-09-26T14:30:22.825084,7810,0.002954,0.006435,0.012672,-0.024676,0.036593,0.999616
2011-09-26T14:30:22.835084,7820,-0.001473,0.010325,0.012548,-0.024892,0.036700,0.999419
2011-09-26T14:30:22.845084,7830,-0.005900,0.014215,0.012425,-0.025109,0.036808,0.999221
2011-09-26T14:30:22.855084,7840,-0.010327,0.018104,0.012301,-0.025325,0.036916,0.999023
2011-09-26T14:30:22.865084,7850,-0.014754,0.021994,0.012177,-0.025542,0.037023,0.998826
2011-09-26T14:30:22.875084,7860,-0.019180,0.025884,0.012054,-0.025759,0.037131,0.998628
2011-09-26T14:30:22.885084,7870,-0.023607,0.029774,0.011930,-0.025975,0.037238,0.998430
2011-09-26T14:30:22.895084,7880,-0.021527,0.027148,0.010279,-0.025822,0.037156,0.998531
2011-09-26T14:30:22.905084,7890,-0.019227,0.024301,0.008575,-0.025657,0.037068,0.998643
2011-09-26T14:30:22.915084,7900,-0.016926,0.021454,0.006872,-0.025491,0.036980,0.998754
2011-09-26T14:30:22.925084,7910,-0.014626,0.018607,0.005169,-0.025326,0.036891,0.998865
2011-09-26T14:30:22.935084,7920,-0.012325,0.015760,0.003465,-0.025160,0.036803,0.998976
2011-09-26T14:30:22.945084,7930,-0.010024,0.012913,0.001762,-0.024994,0.036714,0.999088
2011-09-26T14:30:22.955084,7940,-0.007724,0.010066,0.000059,-0.024829,0.036626,0.999199
2011-09-26T14:30:22.965084,7950,-0.005423,0.007219,-0.001645,-0.024663,0.036538,0.999310
2011-09-26T14:30:22.975084,7960,-0.003123,0.004372,-0.003348,-0.024498,0.036449,0.999421
2011-09-26T14:30:22.985084,7970,-0.000822,0.001525,-0.005051,-0.024332,0.036361,0.999533
2011-09-26T14:30:22.995084,7980,0.001479,-0.001321,-0.006755,-0.024167,0.036273,0.999644
2011-09-26T14:30:23.005084,7990,-0.000990,-0.002975,-0.006819,-0.024259,0.036384,0.999577
2011-09-26T14:30:23.015084,8000,-0.003616,-0.004589,-0.006830,-0.024359,0.036503,0.999505
2011-09-26T14:30:23.025084,8010,-0.006241,-0.006203,-0.006840,-0.024460,0.036622,0.999433
2011-09-26T14:30:23.035084,8020,-0.008867,-0.007817,-0.006850,-0.024560,0.036740,0.999361
2011-09-26T14:30:23.045084,8030,-0.011493,-0.009431,-0.006861,-0.024661,0.036859,0.999288
2011-09-26T14:30:23.055084,8040,-0.014119,-0.011045,-0.006871,-0.024762,0.036977,0.999216
2011-09-26T14:30:23.065084,8050,-0.016745,-0.012659,-0.006882,-0.024862,0.037096,0.999144
2011-09-26T14:30:23.075084,8060,-0.019370,-0.014272,-0.006892,-0.024963,0.037214,0.999072
2011-09-26T14:30:23.085084,8070,-0.021996,-0.015886,-0.006902,-0.025063,0.037333,0.998999
2011-09-26T14:30:23.095084,8080,-0.024622,-0.017500,-0.006913,-0.025164,0.037451,0.998927
2011-09-26T14:30:23.105084,8090,-0.025331,-0.013835,-0.006005,-0.025090,0.037351,0.999050
2011-09-26T14:30:23.115084,8100,-0.025960,-0.009948,-0.005059,-0.025009,0.037242,0.999180
2011-09-26T14:30:23.125084,8110,-0.026589,-0.006061,-0.004113,-0.024928,0.037132,0.999311
2011-09-26T14:30:23.135084,8120,-0.027217,-0.002174,-0.003167,-0.024847,0.037023,0.999441
2011-09-26T14:30:23.145084,8130,-0.027846,0.001713,-0.002221,-0.024766,0.036914,0.999572
2011-09-26T14:30:23.155084,8140,-0.028475,0.005600,-0.001275,-0.024685,0.036804,0.999702
2011-09-26T14:30:23.165084,8150,-0.029104,0.009486,-0.000329,-0.024604,0.036695,0.999833
2011-09-26T14:30:23.175084,8160,-0.029732,0.013373,0.000617,-0.024524,0.036586,0.999963
2011-09-26T14:30:23.185084,8170,-0.030361,0.017260,0.001563,-0.024443,0.036476,1.000094
2011-09-26T14:30:23.195084,8180,-0.030990,0.021147,0.002509,-0.024362,0.036367,1.000224
2011-09-26T14:30:23.205084,8190,-0.029056,0.015314,0.003326,-0.024390,0.036318,1.000179
2011-09-26T14:30:23.215084,8200,-0.027027,0.009123,0.004139,-0.024422,0.036271,1.000127
2011-09-26T14:30:23.225084,8210,-0.024998,0.002931,0.004951,-0.024454,0.036225,1.000076
2011-09-26T14:30:23.235084,8220,-0.022969,-0.003260,0.005764,-0.024487,0.036178,1.000024
2011-09-26T14:30:23.245084,8230,-0.020940,-0.009452,0.006576,-0.024519,0.036131,0.999972
2011-09-26T14:30:23.255084,8240,-0.018911,-0.015644,0.007388,-0.024551,0.036084,0.999921
2011-09-26T14:30:23.265084,8250,-0.016882,-0.021835,0.008201,-0.024584,0.036038,0.999869
2011-09-26T14:30:23.275084,8260,-0.014854,-0.028027,0.009013,-0.024616,0.035991,0.999817
2011-09-26T14:30:23.285084,8270,-0.012825,-0.034218,0.009826,-0.024648,0.035944,0.999765
2011-09-26T14:30:23.295084,8280,-0.010796,-0.040410,0.010638,-0.024680,0.035898,0.999714
2011-09-26T14:30:23.305084,8290,-0.008767,-0.046601,0.011451,-0.024713,0.035851,0.999662
2011-09-26T14:30:23.315084,8300,-0.007151,-0.036769,0.008566,-0.024744,0.035955,0.999611
2011-09-26T14:30:23.325084,8310,-0.005550,-0.026386,0.005554,-0.024775,0.036065,0.999561
2011-09-26T14:30:23.335084,8320,-0.003949,-0.016003,0.002542,-0.024806,0.036175,0.999510
2011-09-26T14:30:23.345084,8330,-0.002347,-0.005621,-0.000470,-0.024837,0.036284,0.999460
2011-09-26T14:30:23.355084,8340,-0.000746,0.004762,-0.003482,-0.024868,0.036394,0.999409
2011-09-26T14:30:23.365084,8350,0.000855,0.015145,-0.006494,-0.024900,0.036503,0.999359
2011-09-26T14:30:23.375084,8360,0.002457,0.025528,-0.009506,-0.024931,0.036613,0.999308
2011-09-26T14:30:23.385084,8370,0.004058,0.035911,-0.012518,-0.024962,0.036723,0.999258
2011-09-26T14:30:23.395084,8380,0.005659,0.046293,-0.015530,-0.024993,0.036832,0.999207
2011-09-26T14:30:23.405084,8390,0.007261,0.056676,-0.018542,-0.025024,0.036942,0.999157
2011-09-26T14:30:23.415084,8400,0.006057,0.050154,-0.017289,-0.024942,0.036857,0.999247
2011-09-26T14:30:23.425084,8410,0.004739,0.042946,-0.015862,-0.024855,0.036764,0.999343
2011-09-26T14:30:23.435084,8420,0.003422,0.035737,-0.014436,-0.024769,0.036671,0.999439
2011-09-26T14:30:23.445084,8430,0.002104,0.028529,-0.013010,-0.024682,0.036578,0.999534
2011-09-26T14:30:23.455084,8440,0.000787,0.021321,-0.011583,-0.024596,0.036485,0.999630
2011-09-26T14:30:23.465084,8450,-0.000531,0.014113,-0.010157,-0.024509,0.036392,0.999726
2011-09-26T14:30:23.475084,8460,-0.001849,0.006904,-0.008731,-0.024422,0.036299,0.999822
2011-09-26T14:30:23.485084,8470,-0.003166,-0.000304,-0.007305,-0.024336,0.036206,0.999918
2011-09-26T14:30:23.495084,8480,-0.004484,-0.007512,-0.005878,-0.024249,0.036113,1.000014
2011-09-26T14:30:23.505084,8490,-0.005801,-0.014720,-0.004452,-0.024163,0.036019,1.000110
2011-09-26T14:30:23.515084,8500,-0.007119,-0.021929,-0.003026,-0.024076,0.035926,1.000206
2011-09-26T14:30:23.525084,8510,-0.005281,-0.018824,-0.004064,-0.024248,0.036073,1.000016
2011-09-26T14:30:23.535084,8520,-0.003332,-0.015353,-0.005189,-0.024429,0.036228,0.999815
2011-09-26T14:30:23.545084,8530,-0.001382,-0.011881,-0.006315,-0.024610,0.036383,0.999615
2011-09-26T14:30:23.555084,8540,0.000568,-0.008409,-0.007441,-0.024791,0.036538,0.999415
2011-09-26T14:30:23.565084,8550,0.002518,-0.004937,-0.008567,-0.024973,0.036693,0.999214
2011-09-26T14:30:23.575084,8560,0.004468,-0.001466,-0.009692,-0.025154,0.036848,0.999014
2011-09-26T14:30:23.585084,8570,0.006418,0.002006,-0.010818,-0.025335,0.037003,0.998814
2011-09-26T14:30:23.595084,8580,0.008368,0.005478,-0.011944,-0.025516,0.037158,0.998613
2011-09-26T14:30:23.605084,8590,0.010317,0.008949,-0.013070,-0.025697,0.037313,0.998413
2011-09-26T14:30:23.615084,8600,0.012267,0.012421,-0.014195,-0.025879,0.037468,0.998213
2011-09-26T14:30:23.625084,8610,0.012936,0.009797,-0.011910,-0.025699,0.037300,0.998438
2011-09-26T14:30:23.635084,8620,0.013526,0.006794,-0.009412,-0.025497,0.037112,0.998690
2011-09-26T14:30:23.645084,8630,0.014115,0.003791,-0.006915,-0.025296,0.036924,0.998942
2011-09-26T14:30:23.655084,8640,0.014705,0.000788,-0.004417,-0.025094,0.036736,0.999194
2011-09-26T14:30:23.665084,8650,0.015294,-0.002214,-0.001920,-0.024892,0.036549,0.999446
2011-09-26T14:30:23.675084,8660,0.015884,-0.005217,0.000577,-0.024690,0.036361,0.999698
2011-09-26T14:30:23.685084,8670,0.016473,-0.008220,0.003075,-0.024488,0.036173,0.999950
2011-09-26T14:30:23.695084,8680,0.017063,-0.011222,0.005572,-0.024286,0.035985,1.000202
2011-09-26T14:30:23.705084,8690,0.017652,-0.014225,0.008070,-0.024085,0.035797,1.000454
2011-09-26T14:30:23.715084,8700,0.018242,-0.017228,0.010567,-0.023883,0.035609,1.000705
2011-09-26T14:30:23.725084,8710,0.013444,-0.018565,0.011844,-0.023957,0.035648,1.000574
2011-09-26T14:30:23.735084,8720,0.008422,-0.019833,0.013070,-0.024043,0.035697,1.000426
2011-09-26T14:30:23.745084,8730,0.003399,-0.021100,0.014297,-0.024129,0.035745,1.000278
2011-09-26T14:30:23.755084,8740,-0.001623,-0.022368,0.015523,-0.024215,0.035793,1.000131
2011-09-26T14:30:23.765084,8750,-0.006646,-0.023636,0.016749,-0.024300,0.035841,0.999983
2011-09-26T14:30:23.775084,8760,-0.011668,-0.024903,0.017976,-0.024386,0.035890,0.999835
2011-09-26T14:30:23.785084,8770,-0.016691,-0.026171,0.019202,-0.024472,0.035938,0.999687
2011-09-26T14:30:23.795084,8780,-0.021713,-0.027439,0.020428,-0.024558,0.035986,0.999540
2011-09-26T14:30:23.805084,8790,-0.026735,-0.028707,0.021654,-0.024644,0.036035,0.999392
2011-09-26T14:30:23.815084,8800,-0.031758,-0.029974,0.022881,-0.024729,0.036083,0.999244
2011-09-26T14:30:23.825084,8810,-0.036780,-0.031242,0.024107,-0.024815,0.036131,0.999096
2011-09-26T14:30:23.835084,8820,-0.034372,-0.026018,0.026669,-0.024844,0.036149,0.999138
2011-09-26T14:30:23.845084,8830,-0.031720,-0.020581,0.029274,-0.024871,0.036165,0.999185
2011-09-26T14:30:23.855084,8840,-0.029069,-0.015144,0.031879,-0.024898,0.036181,0.999233
2011-09-26T14:30:23.865084,8850,-0.026417,-0.009707,0.034485,-0.024925,0.036198,0.999280
2011-09-26T14:30:23.875084,8860,-0.023766,-0.004270,0.037090,-0.024952,0.036214,0.999328
2011-09-26T14:30:23.885084,8870,-0.021114,0.001167,0.039696,-0.024979,0.036231,0.999375
2011-09-26T14:30:23.895084,8880,-0.018462,0.006604,0.042301,-0.025006,0.036247,0.999423
2011-09-26T14:30:23.905084,8890,-0.015811,0.012040,0.044907,-0.025033,0.036263,0.999470
2011-09-26T14:30:23.915084,8900,-0.013159,0.017477,0.047512,-0.025060,0.036280,0.999518
2011-09-26T14:30:23.925084,8910,-0.010507,0.022914,0.050117,-0.025087,0.036296,0.999565
2011-09-26T14:30:23.935084,8920,-0.010582,0.015147,0.049126,-0.025101,0.036337,0.999476
2011-09-26T14:30:23.945084,8930,-0.010750,0.006931,0.048012,-0.025115,0.036379,0.999381
2011-09-26T14:30:23.955084,8940,-0.010917,-0.001284,0.046898,-0.025128,0.036421,0.999287
2011-09-26T14:30:23.965084,8950,-0.011084,-0.009500,0.045784,-0.025141,0.036462,0.999193
2011-09-26T14:30:23.975084,8960,-0.011252,-0.017716,0.044670,-0.025155,0.036504,0.999099
2011-09-26T14:30:23.985084,8970,-0.011419,-0.025932,0.043555,-0.025168,0.036546,0.999004
2011-09-26T14:30:23.995084,8980,-0.011587,-0.034148,0.042441,-0.025182,0.036588,0.998910
2011-09-26T14:30:24.005084,8990,-0.011754,-0.042363,0.041327,-0.025195,0.036629,0.998816
2011-09-26T14:30:24.015084,9000,-0.011921,-0.050579,0.040213,-0.025208,0.036671,0.998722
2011-09-26T14:30:24.025084,9010,-0.012089,-0.058795,0.039099,-0.025222,0.036713,0.998627
2011-09-26T14:30:24.035084,9020,-0.010685,-0.048996,0.035017,-0.025233,0.036716,0.998596
2011-09-26T14:30:24.045084,9030,-0.009217,-0.038459,0.030814,-0.025244,0.036718,0.998566
2011-09-26T14:30:24.055084,9040,-0.007750,-0.027922,0.026610,-0.025255,0.036719,0.998537
2011-09-26T14:30:24.065084,9050,-0.006282,-0.017385,0.022407,-0.025266,0.036721,0.998508
2011-09-26T14:30:24.075084,9060,-0.004814,-0.006847,0.018203,-0.025278,0.036723,0.998479
2011-09-26T14:30:24.085084,9070,-0.003346,0.003690,0.014000,-0.025289,0.036725,0.998450
2011-09-26T14:30:24.095084,9080,-0.001878,0.014227,0.009796,-0.025300,0.036726,0.998421
2011-09-26T14:30:24.105084,9090,-0.000410,0.024765,0.005593,-0.025311,0.036728,0.998392
2011-09-26T14:30:24.115084,9100,0.001057,0.035302,0.001389,-0.025322,0.036730,0.998362
2011-09-26T14:30:24.125084,9110,0.002525,0.045839,-0.002814,-0.025333,0.036731,0.998333
2011-09-26T14:30:24.135084,9120,0.003993,0.056376,-0.007018,-0.025345,0.036733,0.998304
2011-09-26T14:30:24.145084,9130,0.001935,0.042791,-0.009341,-0.025283,0.036628,0.998439
2011-09-26T14:30:24.155084,9140,-0.000312,0.027917,-0.011564,-0.025218,0.036517,0.998582
2011-09-26T14:30:24.165084,9150,-0.002559,0.013042,-0.013787,-0.025153,0.036407,0.998725
2011-09-26T14:30:24.175084,9160,-0.004805,-0.001832,-0.016010,-0.025088,0.036296,0.998868
2011-09-26T14:30:24.185084,9170,-0.007052,-0.016706,-0.018233,-0.025023,0.036185,0.999011
2011-09-26T14:30:24.195084,9180,-0.009299,-0.031580,-0.020456,-0.024957,0.036074,0.999154
2011-09-26T14:30:24.205084,9190,-0.011545,-0.046454,-0.022679,-0.024892,0.035963,0.999298
2011-09-26T14:30:24.215084,9200,-0.013792,-0.061329,-0.024902,-0.024827,0.035853,0.999441
2011-09-26T14:30:24.225084,9210,-0.016038,-0.076203,-0.027125,-0.024762,0.035742,0.999584
2011-09-26T14:30:24.235084,9220,-0.018285,-0.091077,-0.029348,-0.024697,0.035631,0.999727
2011-09-26T14:30:24.245084,9230,-0.012599,-0.077327,-0.027331,-0.024775,0.035803,0.999637
2011-09-26T14:30:24.255084,9240,-0.006598,-0.062443,-0.025147,-0.024858,0.035986,0.999538
2011-09-26T14:30:24.265084,9250,-0.000597,-0.047559,-0.022963,-0.024942,0.036169,0.999439
2011-09-26T14:30:24.275084,9260,0.005404,-0.032675,-0.020779,-0.025025,0.036352,0.999340
2011-09-26T14:30:24.285084,9270,0.011405,-0.017791,-0.018595,-0.025109,0.036535,0.999241
2011-09-26T14:30:24.295084,9280,0.017406,-0.002907,-0.016410,-0.025192,0.036718,0.999142
2011-09-26T14:30:24.305084,9290,0.023407,0.011977,-0.014226,-0.025275,0.036901,0.999043
2011-09-26T14:30:24.315084,9300,0.029408,0.026861,-0.012042,-0.025359,0.037084,0.998944
2011-09-26T14:30:24.325084,9310,0.035408,0.041745,-0.009858,-0.025442,0.037267,0.998845
2011-09-26T14:30:24.335084,9320,0.041409,0.056629,-0.007674,-0.025526,0.037450,0.998746
2011-09-26T14:30:24.345084,9330,0.037777,0.050079,-0.000205,-0.025381,0.037325,0.998876
2011-09-26T14:30:24.355084,9340,0.033759,0.042671,0.007475,-0.025228,0.037186,0.999015
2011-09-26T14:30:24.365084,9350,0.029741,0.035262,0.015155,-0.025074,0.037048,0.999154
2011-09-26T14:30:24.375084,9360,0.025722,0.027853,0.022835,-0.024920,0.036910,0.999293
2011-09-26T14:30:24.385084,9370,0.021704,0.020445,0.030515,-0.024767,0.036772,0.999432
2011-09-26T14:30:24.395084,9380,0.017686,0.013036,0.038195,-0.024613,0.036633,0.999571
2011-09-26T14:30:24.405084,9390,0.013668,0.005628,0.045875,-0.024460,0.036495,0.999710
2011-09-26T14:30:24.415084,9400,0.009650,-0.001781,0.053555,-0.024306,0.036357,0.999849
2011-09-26T14:30:24.425084,9410,0.005632,-0.009189,0.061235,-0.024152,0.036218,0.999988
2011-09-26T14:30:24.435084,9420,0.001614,-0.016598,0.068915,-0.023999,0.036080,1.000127
2011-09-26T14:30:24.445084,9430,-0.002405,-0.024006,0.076595,-0.023845,0.035942,1.000265
2011-09-26T14:30:24.455084,9440,-0.001686,-0.021422,0.069028,-0.024025,0.036026,1.000110
2011-09-26T14:30:24.465084,9450,-0.000755,-0.018390,0.060777,-0.024219,0.036121,0.999940
2011-09-26T14:30:24.475084,9460,0.000176,-0.015358,0.052527,-0.024414,0.036215,0.999771
2011-09-26T14:30:24.485084,9470,0.001106,-0.012326,0.044276,-0.024609,0.036310,0.999602
2011-09-26T14:30:24.495084,9480,0.002037,-0.009294,0.036026,-0.024803,0.036404,0.999433
2011-09-26T14:30:24.505084,9490,0.002968,-0.006262,0.027776,-0.024998,0.036498,0.999264
2011-09-26T14:30:24.515084,9500,0.003899,-0.003230,0.019525,-0.025192,0.036593,0.999095
2011-09-26T14:30:24.525084,9510,0.004829,-0.000198,0.011275,-0.025387,0.036687,0.998925
2011-09-26T14:30:24.535084,9520,0.005760,0.002834,0.003025,-0.025582,0.036782,0.998756
2011-09-26T14:30:24.545084,9530,0.006691,0.005866,-0.005226,-0.025776,0.036876,0.998587
2011-09-26T14:30:24.555084,9540,0.009389,0.004571,-0.008553,-0.025652,0.036789,0.998750
2011-09-26T14:30:24.565084,9550,0.012165,0.003086,-0.011665,-0.025513,0.036695,0.998928
2011-09-26T14:30:24.575084,9560,0.014941,0.001601,-0.014777,-0.025375,0.036601,0.999106
2011-09-26T14:30:24.585084,9570,0.017717,0.000116,-0.017889,-0.025236,0.036506,0.999283
2011-09-26T14:30:24.595084,9580,0.020493,-0.001369,-0.021001,-0.025098,0.036412,0.999461
2011-09-26T14:30:24.605084,9590,0.023269,-0.002854,-0.024113,-0.024959,0.036318,0.999639
2011-09-26T14:30:24.615084,9600,0.026045,-0.004339,-0.027225,-0.024821,0.036223,0.999816
2011-09-26T14:30:24.625084,9610,0.028821,-0.005824,-0.030337,-0.024682,0.036129,0.999994
2011-09-26T14:30:24.635084,9620,0.031597,-0.007310,-0.033449,-0.024543,0.036035,1.000172
2011-09-26T14:30:24.645084,9630,0.034373,-0.008795,-0.036561,-0.024405,0.035940,1.000349
2011-09-26T14:30:24.655084,9640,0.032303,-0.010109,-0.033911,-0.024489,0.036033,1.000204
2011-09-26T14:30:24.665084,9650,0.029933,-0.011413,-0.030905,-0.024586,0.036137,1.000039
2011-09-26T14:30:24.675084,9660,0.027563,-0.012718,-0.027898,-0.024684,0.036241,0.999873
2011-09-26T14:30:24.685084,9670,0.025193,-0.014022,-0.024892,-0.024782,0.036345,0.999708
2011-09-26T14:30:24.695084,9680,0.022824,-0.015326,-0.021885,-0.024879,0.036450,0.999542
2011-09-26T14:30:24.705084,9690,0.020454,-0.016630,-0.018879,-0.024977,0.036554,0.999377
2011-09-26T14:30:24.715084,9700,0.018084,-0.017934,-0.015872,-0.025075,0.036658,0.999212
2011-09-26T14:30:24.725084,9710,0.015714,-0.019238,-0.012866,-0.025172,0.036762,0.999046
2011-09-26T14:30:24.735084,9720,0.013344,-0.020542,-0.009859,-0.025270,0.036866,0.998881
2011-09-26T14:30:24.745084,9730,0.010974,-0.021847,-0.006853,-0.025367,0.036971,0.998715
2011-09-26T14:30:24.755084,9740,0.008604,-0.023151,-0.003847,-0.025465,0.037075,0.998550
2011-09-26T14:30:24.765084,9750,0.008046,-0.022238,-0.003475,-0.025352,0.036993,0.998718
2011-09-26T14:30:24.775084,9760,0.007566,-0.021228,-0.003218,-0.025230,0.036903,0.998901
2011-09-26T14:30:24.785084,9770,0.007086,-0.020219,-0.002961,-0.025108,0.036813,0.999084
2011-09-26T14:30:24.795084,9780,0.006606,-0.019209,-0.002704,-0.024987,0.036723,0.999267
2011-09-26T14:30:24.805084,9790,0.006126,-0.018200,-0.002446,-0.024865,0.036633,0.999450
2011-09-26T14:30:24.815084,9800,0.005646,-0.017191,-0.002189,-0.024743,0.036543,0.999633
2011-09-26T14:30:24.825084,9810,0.005166,-0.016181,-0.001932,-0.024621,0.036453,0.999816
2011-09-26T14:30:24.835084,9820,0.004686,-0.015172,-0.001675,-0.024499,0.036363,0.999999
2011-09-26T14:30:24.845084,9830,0.004206,-0.014162,-0.001418,-0.024377,0.036273,1.000182
2011-09-26T14:30:24.855084,9840,0.003726,-0.013153,-0.001161,-0.024255,0.036183,1.000365
2011-09-26T14:30:24.865084,9850,0.002717,-0.010067,-0.001287,-0.024397,0.036231,1.000135
2011-09-26T14:30:24.875084,9860,0.001683,-0.006882,-0.001432,-0.024552,0.036285,0.999885
2011-09-26T14:30:24.885084,9870,0.000648,-0.003698,-0.001577,-0.024707,0.036339,0.999636
2011-09-26T14:30:24.895084,9880,-0.000386,-0.000513,-0.001722,-0.024862,0.036393,0.999386
2011-09-26T14:30:24.905084,9890,-0.001420,0.002672,-0.001868,-0.025017,0.036447,0.999137
2011-09-26T14:30:24.915084,9900,-0.002455,0.005857,-0.002013,-0.025172,0.036501,0.998887
2011-09-26T14:30:24.925084,9910,-0.003489,0.009041,-0.002158,-0.025327,0.036556,0.998638
2011-09-26T14:30:24.935084,9920,-0.004524,0.012226,-0.002303,-0.025482,0.036610,0.998388
2011-09-26T14:30:24.945084,9930,-0.005558,0.015411,-0.002448,-0.025637,0.036664,0.998138
2011-09-26T14:30:24.955084,9940,-0.006592,0.018596,-0.002593,-0.025792,0.036718,0.997889
2011-09-26T14:30:24.965084,9950,-0.005727,0.020981,-0.003812,-0.025728,0.036770,0.997985
2011-09-26T14:30:24.975084,9960,-0.004781,0.023331,-0.005076,-0.025655,0.036822,0.998095
2011-09-26T14:30:24.985084,9970,-0.003835,0.025682,-0.006341,-0.025582,0.036875,0.998205
2011-09-26T14:30:24.995084,9980,-0.002889,0.028033,-0.007605,-0.025509,0.036927,0.998316
2011-09-26T14:30:25.005084,9990,-0.001944,0.030384,-0.008869,-0.025436,0.036979,0.998426
2011-09-26T14:30:25.015084,10000,-0.000998,0.032735,-0.010134,-0.025363,0.037031,0.998536
2011-09-26T14:30:25.025084,10010,-0.000052,0.035086,-0.011398,-0.025290,0.037083,0.998647
2011-09-26T14:30:25.035084,10020,0.000894,0.037437,-0.012663,-0.025217,0.037136,0.998757
2011-09-26T14:30:25.045084,10030,0.001840,0.039788,-0.013927,-0.025144,0.037188,0.998867
2011-09-26T14:30:25.055084,10040,0.002786,0.042138,-0.015192,-0.025071,0.037240,0.998978
2011-09-26T14:30:25.065084,10050,0.003732,0.044489,-0.016456,-0.024998,0.037292,0.999088
2011-09-26T14:30:25.075084,10060,0.001211,0.040241,-0.016704,-0.024969,0.037193,0.999072
2011-09-26T14:30:25.085084,10070,-0.001471,0.035688,-0.016906,-0.024942,0.037086,0.999050
2011-09-26T14:30:25.095084,10080,-0.004153,0.031135,-0.017107,-0.024915,0.036979,0.999028
2011-09-26T14:30:25.105084,10090,-0.006834,0.026582,-0.017308,-0.024888,0.036872,0.999007
2011-09-26T14:30:25.115084,10100,-0.009516,0.022028,-0.017510,-0.024861,0.036765,0.998985
2011-09-26T14:30:25.125084,10110,-0.012197,0.017475,-0.017711,-0.024834,0.036659,0.998963
2011-09-26T14:30:25.135084,10120,-0.014879,0.012922,-0.017912,-0.024807,0.036552,0.998941
2011-09-26T14:30:25.145084,10130,-0.017561,0.008369,-0.018113,-0.024779,0.036445,0.998919
2011-09-26T14:30:25.155084,10140,-0.020242,0.003815,-0.018315,-0.024752,0.036338,0.998897
2011-09-26T14:30:25.165084,10150,-0.022924,-0.000738,-0.018516,-0.024725,0.036232,0.998875
2011-09-26T14:30:25.175084,10160,-0.019298,0.004515,-0.014953,-0.024838,0.036285,0.998810
2011-09-26T14:30:25.185084,10170,-0.015295,0.010353,-0.011164,-0.024958,0.036347,0.998742
2011-09-26T14:30:25.195084,10180,-0.011292,0.016192,-0.007376,-0.025079,0.036410,0.998675
2011-09-26T14:30:25.205084,10190,-0.007289,0.022031,-0.003587,-0.025199,0.036472,0.998607
2011-09-26T14:30:25.215084,10200,-0.003285,0.027869,0.000201,-0.025320,0.036535,0.998539
2011-09-26T14:30:25.225084,10210,0.000718,0.033708,0.003990,-0.025441,0.036597,0.998472
2011-09-26T14:30:25.235084,10220,0.004721,0.039547,0.007778,-0.025561,0.036660,0.998404
2011-09-26T14:30:25.245084,10230,0.008724,0.045385,0.011567,-0.025682,0.036722,0.998336
2011-09-26T14:30:25.255084,10240,0.012727,0.051224,0.015355,-0.025803,0.036785,0.998268
2011-09-26T14:30:25.265084,10250,0.016730,0.057063,0.019143,-0.025923,0.036847,0.998201
2011-09-26T14:30:25.275084,10260,0.020733,0.062901,0.022932,-0.026044,0.036910,0.998133
2011-09-26T14:30:25.285084,10270,0.015895,0.052394,0.018041,-0.025889,0.036816,0.998334
2011-09-26T14:30:25.295084,10280,0.010688,0.041206,0.012788,-0.025722,0.036716,0.998546
2011-09-26T14:30:25.305084,10290,0.005482,0.030018,0.007536,-0.025555,0.036616,0.998759
2011-09-26T14:30:25.315084,10300,0.000275,0.018829,0.002283,-0.025388,0.036516,0.998971
2011-09-26T14:30:25.325084,10310,-0.004932,0.007641,-0.002969,-0.025221,0.036416,0.999183
2011-09-26T14:30:25.335084,10320,-0.010138,-0.003547,-0.008222,-0.025054,0.036316,0.999395
2011-09-26T14:30:25.345084,10330,-0.015345,-0.014735,-0.013475,-0.024887,0.036215,0.999607
2011-09-26T14:30:25.355084,10340,-0.020551,-0.025924,-0.018727,-0.024720,0.036115,0.999820
2011-09-26T14:30:25.365084,10350,-0.025758,-0.037112,-0.023980,-0.024553,0.036015,1.000032
2011-09-26T14:30:25.375084,10360,-0.030965,-0.048300,-0.029233,-0.024386,0.035915,1.000244
2011-09-26T14:30:25.385084,10370,-0.027499,-0.042309,-0.022899,-0.024458,0.036052,1.000081
2011-09-26T14:30:25.395084,10380,-0.023609,-0.035478,-0.016000,-0.024542,0.036201,0.999899
2011-09-26T14:30:25.405084,10390,-0.019720,-0.028648,-0.009101,-0.024626,0.036349,0.999718
2011-09-26T14:30:25.415084,10400,-0.015830,-0.021817,-0.002201,-0.024710,0.036498,0.999536
2011-09-26T14:30:25.425084,10410,-0.011940,-0.014986,0.004698,-0.024794,0.036647,0.999355
2011-09-26T14:30:25.435084,10420,-0.008051,-0.008156,0.011598,-0.024878,0.036796,0.999173
2011-09-26T14:30:25.445084,10430,-0.004161,-0.001325,0.018497,-0.024962,0.036944,0.998992
2011-09-26T14:30:25.455084,10440,-0.000271,0.005506,0.025397,-0.025046,0.037093,0.998810
2011-09-26T14:30:25.465084,10450,0.003618,0.012337,0.032296,-0.025129,0.037242,0.998629
2011-09-26T14:30:25.475084,10460,0.007508,0.019167,0.039196,-0.025213,0.037390,0.998447
2011-09-26T14:30:25.485084,10470,0.008557,0.017125,0.033719,-0.025108,0.037307,0.998608
2011-09-26T14:30:25.495084,10480,0.009473,0.014672,0.027668,-0.024993,0.037213,0.998785
2011-09-26T14:30:25.505084,10490,0.010390,0.012219,0.021618,-0.024879,0.037119,0.998962
2011-09-26T14:30:25.515084,10500,0.011307,0.009765,0.015567,-0.024765,0.037025,0.999138
2011-09-26T14:30:25.525084,10510,0.012224,0.007312,0.009516,-0.024650,0.036931,0.999315
2011-09-26T14:30:25.535084,10520,0.013140,0.004858,0.003466,-0.024536,0.036837,0.999492
2011-09-26T14:30:25.545084,10530,0.014057,0.002405,-0.002585,-0.024421,0.036743,0.999669
2011-09-26T14:30:25.555084,10540,0.014974,-0.000048,-0.008636,-0.024307,0.036649,0.999845
2011-09-26T14:30:25.565084,10550,0.015891,-0.002502,-0.014686,-0.024192,0.036555,1.000022
2011-09-26T14:30:25.575084,10560,0.016807,-0.004955,-0.020737,-0.024078,0.036461,1.000199
2011-09-26T14:30:25.585084,10570,0.017724,-0.007408,-0.026787,-0.023964,0.036366,1.000375
2011-09-26T14:30:25.595084,10580,0.015623,-0.009703,-0.028730,-0.024148,0.036407,1.000190
2011-09-26T14:30:25.605084,10590,0.013383,-0.011990,-0.030484,-0.024345,0.036453,0.999989
2011-09-26T14:30:25.615084,10600,0.011142,-0.014277,-0.032238,-0.024543,0.036499,0.999787
2011-09-26T14:30:25.625084,10610,0.008902,-0.016564,-0.033991,-0.024741,0.036546,0.999585
2011-09-26T14:30:25.635084,10620,0.006662,-0.018851,-0.035745,-0.024938,0.036592,0.999383
2011-09-26T14:30:25.645084,10630,0.004422,-0.021138,-0.037499,-0.025136,0.036638,0.999182
2011-09-26T14:30:25.655084,10640,0.002181,-0.023425,-0.039253,-0.025334,0.036685,0.998980
2011-09-26T14:30:25.665084,10650,-0.000059,-0.025712,-0.041006,-0.025532,0.036731,0.998778
2011-09-26T14:30:25.675084,10660,-0.002299,-0.027999,-0.042760,-0.025729,0.036777,0.998576
2011-09-26T14:30:25.685084,10670,-0.004539,-0.030286,-0.044514,-0.025927,0.036824,0.998375
2011-09-26T14:30:25.695084,10680,-0.004417,-0.026574,-0.037747,-0.025769,0.036743,0.998585
2011-09-26T14:30:25.705084,10690,-0.004166,-0.022535,-0.030513,-0.025591,0.036655,0.998817
2011-09-26T14:30:25.715084,10700,-0.003914,-0.018495,-0.023280,-0.025413,0.036567,0.999050
2011-09-26T14:30:25.725084,10710,-0.003663,-0.014455,-0.016046,-0.025235,0.036479,0.999283
2011-09-26T14:30:25.735084,10720,-0.003412,-0.010415,-0.008813,-0.025057,0.036392,0.999516
2011-09-26T14:30:25.745084,10730,-0.003160,-0.006375,-0.001579,-0.024879,0.036304,0.999748
2011-09-26T14:30:25.755084,10740,-0.002909,-0.002335,0.005654,-0.024702,0.036216,0.999981
2011-09-26T14:30:25.765084,10750,-0.002658,0.001705,0.012887,-0.024524,0.036128,1.000214
2011-09-26T14:30:25.775084,10760,-0.002406,0.005744,0.020121,-0.024346,0.036040,1.000447
2011-09-26T14:30:25.785084,10770,-0.002155,0.009784,0.027354,-0.024168,0.035953,1.000679
2011-09-26T14:30:25.795084,10780,-0.004955,0.008544,0.028785,-0.024233,0.036018,1.000550
2011-09-26T14:30:25.805084,10790,-0.007908,0.007041,0.029926,-0.024311,0.036092,1.000403
2011-09-26T14:30:25.815084,10800,-0.010860,0.005539,0.031068,-0.024389,0.036165,1.000255
2011-09-26T14:30:25.825084,10810,-0.013812,0.004036,0.032210,-0.024466,0.036238,1.000108
2011-09-26T14:30:25.835084,10820,-0.016765,0.002533,0.033351,-0.024544,0.036311,0.999960
2011-09-26T14:30:25.845084,10830,-0.019717,0.001030,0.034493,-0.024621,0.036385,0.999813
2011-09-26T14:30:25.855084,10840,-0.022669,-0.000473,0.035635,-0.024699,0.036458,0.999666
2011-09-26T14:30:25.865084,10850,-0.025622,-0.001976,0.036776,-0.024776,0.036531,0.999518
2011-09-26T14:30:25.875084,10860,-0.028574,-0.003479,0.037918,-0.024854,0.036604,0.999371
2011-09-26T14:30:25.885084,10870,-0.031526,-0.004982,0.039059,-0.024931,0.036678,0.999224
2011-09-26T14:30:25.895084,10880,-0.034479,-0.006484,0.040201,-0.025009,0.036751,0.999076
2011-09-26T14:30:25.905084,10890,-0.032095,-0.006825,0.039312,-0.024968,0.036711,0.999135
2011-09-26T14:30:25.915084,10900,-0.029435,-0.007106,0.038318,-0.024921,0.036666,0.999204
2011-09-26T14:30:25.925084,10910,-0.026776,-0.007388,0.037324,-0.024874,0.036620,0.999273
2011-09-26T14:30:25.935084,10920,-0.024117,-0.007669,0.036330,-0.024827,0.036574,0.999343
2011-09-26T14:30:25.945084,10930,-0.021458,-0.007950,0.035336,-0.024780,0.036529,0.999412
2011-09-26T14:30:25.955084,10940,-0.018799,-0.008231,0.034342,-0.024733,0.036483,0.999481
2011-09-26T14:30:25.965084,10950,-0.016139,-0.008512,0.033348,-0.024686,0.036438,0.999551
2011-09-26T14:30:25.975084,10960,-0.013480,-0.008793,0.032354,-0.024639,0.036392,0.999620
2011-09-26T14:30:25.985084,10970,-0.010821,-0.009074,0.031360,-0.024592,0.036347,0.999689
2011-09-26T14:30:25.995084,10980,-0.008162,-0.009355,0.030367,-0.024545,0.036301,0.999758
2011-09-26T14:30:26.005084,10990,-0.005470,-0.007875,0.027680,-0.024647,0.036308,0.999639
2011-09-26T14:30:26.015084,11000,-0.002777,-0.006297,0.024899,-0.024756,0.036318,0.999508
2011-09-26T14:30:26.025084,11010,-0.000084,-0.004720,0.022119,-0.024866,0.036328,0.999378
2011-09-26T14:30:26.035084,11020,0.002609,-0.003142,0.019339,-0.024976,0.036338,0.999248
2011-09-26T14:30:26.045084,11030,0.005302,-0.001565,0.016558,-0.025086,0.036349,0.999117
2011-09-26T14:30:26.055084,11040,0.007995,0.000013,0.013778,-0.025196,0.036359,0.998987
2011-09-26T14:30:26.065084,11050,0.010688,0.001590,0.010998,-0.025306,0.036369,0.998857
2011-09-26T14:30:26.075084,11060,0.013381,0.003167,0.008218,-0.025416,0.036379,0.998726
2011-09-26T14:30:26.085084,11070,0.016074,0.004745,0.005437,-0.025525,0.036389,0.998596
2011-09-26T14:30:26.095084,11080,0.018767,0.006322,0.002657,-0.025635,0.036399,0.998466
2011-09-26T14:30:26.105084,11090,0.016426,0.007869,0.000426,-0.025580,0.036475,0.998485
2011-09-26T14:30:26.115084,11100,0.013688,0.009414,-0.001761,-0.025512,0.036557,0.998516
2011-09-26T14:30:26.125084,11110,0.010950,0.010959,-0.003949,-0.025443,0.036638,0.998547
2011-09-26T14:30:26.135084,11120,0.008213,0.012504,-0.006136,-0.025375,0.036719,0.998578
2011-09-26T14:30:26.145084,11130,0.005475,0.014048,-0.008324,-0.025306,0.036801,0.998609
2011-09-26T14:30:26.155084,11140,0.002737,0.015593,-0.010511,-0.025238,0.036882,0.998640
2011-09-26T14:30:26.165084,11150,-0.000001,0.017138,-0.012699,-0.025170,0.036964,0.998671
2011-09-26T14:30:26.175084,11160,-0.002738,0.018682,-0.014886,-0.025101,0.037045,0.998702
2011-09-26T14:30:26.185084,11170,-0.005476,0.020227,-0.017074,-0.025033,0.037126,0.998733
2011-09-26T14:30:26.195084,11180,-0.008214,0.021772,-0.019261,-0.024964,0.037208,0.998764
2011-09-26T14:30:26.205084,11190,-0.010952,0.023316,-0.021449,-0.024896,0.037289,0.998795
2011-09-26T14:30:26.215084,11200,-0.012412,0.021336,-0.019877,-0.024912,0.037201,0.998797
2011-09-26T14:30:26.225084,11210,-0.013802,0.019164,-0.018101,-0.024932,0.037103,0.998797
2011-09-26T14:30:26.235084,11220,-0.015193,0.016992,-0.016326,-0.024952,0.037005,0.998797
2011-09-26T14:30:26.245084,11230,-0.016584,0.014820,-0.014550,-0.024972,0.036908,0.998798
2011-09-26T14:30:26.255084,11240,-0.017975,0.012648,-0.012775,-0.024993,0.036810,0.998798
2011-09-26T14:30:26.265084,11250,-0.019365,0.010477,-0.010999,-0.025013,0.036712,0.998798
2011-09-26T14:30:26.275084,11260,-0.020756,0.008305,-0.009223,-0.025033,0.036614,0.998798
2011-09-26T14:30:26.285084,11270,-0.022147,0.006133,-0.007448,-0.025053,0.036517,0.998799
2011-09-26T14:30:26.295084,11280,-0.023538,0.003961,-0.005672,-0.025073,0.036419,0.998799
2011-09-26T14:30:26.305084,11290,-0.024928,0.001789,-0.003896,-0.025094,0.036321,0.998799
2011-09-26T14:30:26.315084,11300,-0.023749,-0.000331,-0.004450,-0.025028,0.036311,0.998892
2011-09-26T14:30:26.325084,11310,-0.022444,-0.002450,-0.005117,-0.024958,0.036304,0.998989
2011-09-26T14:30:26.335084,11320,-0.021140,-0.004568,-0.005785,-0.024889,0.036298,0.999085
2011-09-26T14:30:26.345084,11330,-0.019835,-0.006686,-0.006452,-0.024819,0.036292,0.999182
2011-09-26T14:30:26.355084,11340,-0.018530,-0.008804,-0.007119,-0.024749,0.036285,0.999279
2011-09-26T14:30:26.365084,11350,-0.017226,-0.010923,-0.007786,-0.024679,0.036279,0.999376
2011-09-26T14:30:26.375084,11360,-0.015921,-0.013041,-0.008453,-0.024610,0.036273,0.999473
2011-09-26T14:30:26.385084,11370,-0.014616,-0.015159,-0.009120,-0.024540,0.036266,0.999570
2011-09-26T14:30:26.395084,11380,-0.013312,-0.017277,-0.009787,-0.024470,0.036260,0.999666
2011-09-26T14:30:26.405084,11390,-0.012007,-0.019396,-0.010455,-0.024401,0.036254,0.999763
2011-09-26T14:30:26.415084,11400,-0.013781,-0.023114,-0.009829,-0.024395,0.036215,0.999802
2011-09-26T14:30:26.425084,11410,-0.015719,-0.026919,-0.009134,-0.024393,0.036175,0.999837
2011-09-26T14:30:26.435084,11420,-0.017657,-0.030723,-0.008439,-0.024391,0.036135,0.999872
2011-09-26T14:30:26.445084,11430,-0.019596,-0.034527,-0.007745,-0.024389,0.036095,0.999908
2011-09-26T14:30:26.455084,11440,-0.021534,-0.038332,-0.007050,-0.024387,0.036055,0.999943
2011-09-26T14:30:26.465084,11450,-0.023472,-0.042136,-0.006355,-0.024385,0.036015,0.999978
2011-09-26T14:30:26.475084,11460,-0.025410,-0.045940,-0.005660,-0.024384,0.035975,1.000014
2011-09-26T14:30:26.485084,11470,-0.027349,-0.049744,-0.004966,-0.024382,0.035935,1.000049
2011-09-26T14:30:26.495084,11480,-0.029287,-0.053549,-0.004271,-0.024380,0.035895,1.000084
2011-09-26T14:30:26.505084,11490,-0.031225,-0.057353,-0.003576,-0.024378,0.035855,1.000120
2011-09-26T14:30:26.515084,11500,-0.033163,-0.061157,-0.002882,-0.024376,0.035815,1.000155
2011-09-26T14:30:26.525084,11510,-0.028983,-0.052459,-0.005272,-0.024442,0.036026,0.999976
2011-09-26T14:30:26.535084,11520,-0.024473,-0.043089,-0.007829,-0.024512,0.036251,0.999785
2011-09-26T14:30:26.545084,11530,-0.019964,-0.033719,-0.010386,-0.024582,0.036476,0.999595
2011-09-26T14:30:26.555084,11540,-0.015454,-0.024350,-0.012943,-0.024652,0.036701,0.999404
2011-09-26T14:30:26.565084,11550,-0.010945,-0.014980,-0.015499,-0.024722,0.036926,0.999213
2011-09-26T14:30:26.575084,11560,-0.006435,-0.005610,-0.018056,-0.024791,0.037151,0.999022
2011-09-26T14:30:26.585084,11570,-0.001926,0.003760,-0.020613,-0.024861,0.037376,0.998832
2011-09-26T14:30:26.595084,11580,0.002584,0.013130,-0.023170,-0.024931,0.037600,0.998641
2011-09-26T14:30:26.605084,11590,0.007093,0.022500,-0.025726,-0.025001,0.037825,0.998450
2011-09-26T14:30:26.615084,11600,0.011603,0.031870,-0.028283,-0.025071,0.038050,0.998260
2011-09-26T14:30:26.625084,11610,0.010502,0.028346,-0.029300,-0.025068,0.037832,0.998367
2011-09-26T14:30:26.635084,11620,0.009016,0.023935,-0.030210,-0.025060,0.037584,0.998494
2011-09-26T14:30:26.645084,11630,0.007530,0.019525,-0.031121,-0.025052,0.037336,0.998621
2011-09-26T14:30:26.655084,11640,0.006044,0.015115,-0.032032,-0.025044,0.037087,0.998749
2011-09-26T14:30:26.665084,11650,0.004557,0.010705,-0.032942,-0.025035,0.036839,0.998876
2011-09-26T14:30:26.675084,11660,0.003071,0.006294,-0.033853,-0.025027,0.036591,0.999003
2011-09-26T14:30:26.685084,11670,0.001585,0.001884,-0.034764,-0.025019,0.036342,0.999131
2011-09-26T14:30:26.695084,11680,0.000099,-0.002526,-0.035675,-0.025011,0.036094,0.999258
2011-09-26T14:30:26.705084,11690,-0.001387,-0.006937,-0.036585,-0.025003,0.035846,0.999385
2011-09-26T14:30:26.715084,11700,-0.002874,-0.011347,-0.037496,-0.024995,0.035597,0.999512
2011-09-26T14:30:26.725084,11710,-0.001355,-0.010834,-0.029756,-0.025067,0.035686,0.999421
2011-09-26T14:30:26.735084,11720,0.000348,-0.010022,-0.021488,-0.025144,0.035796,0.999316
2011-09-26T14:30:26.745084,11730,0.002050,-0.009209,-0.013220,-0.025221,0.035905,0.999211
2011-09-26T14:30:26.755084,11740,0.003752,-0.008396,-0.004952,-0.025298,0.036014,0.999106
2011-09-26T14:30:26.765084,11750,0.005454,-0.007583,0.003316,-0.025374,0.036124,0.999001
2011-09-26T14:30:26.775084,11760,0.007156,-0.006771,0.011584,-0.025451,0.036233,0.998896
2011-09-26T14:30:26.785084,11770,0.008859,-0.005958,0.019851,-0.025528,0.036343,0.998791
2011-09-26T14:30:26.795084,11780,0.010561,-0.005145,0.028119,-0.025605,0.036452,0.998686
2011-09-26T14:30:26.805084,11790,0.012263,-0.004333,0.036387,-0.025682,0.036562,0.998581
2011-09-26T14:30:26.815084,11800,0.013965,-0.003520,0.044655,-0.025759,0.036671,0.998475
2011-09-26T14:30:26.825084,11810,0.015667,-0.002707,0.052923,-0.025836,0.036780,0.998370
2011-09-26T14:30:26.835084,11820,0.018711,-0.006417,0.051346,-0.025668,0.036711,0.998563
2011-09-26T14:30:26.845084,11830,0.021826,-0.010370,0.049240,-0.025487,0.036632,0.998771
2011-09-26T14:30:26.855084,11840,0.024941,-0.014323,0.047133,-0.025307,0.036554,0.998980
2011-09-26T14:30:26.865084,11850,0.028056,-0.018276,0.045027,-0.025126,0.036475,0.999188
2011-09-26T14:30:26.875084,11860,0.031172,-0.022229,0.042920,-0.024945,0.036396,0.999396
2011-09-26T14:30:26.885084,11870,0.034287,-0.026183,0.040813,-0.024764,0.036317,0.999605
2011-09-26T14:30:26.895084,11880,0.037402,-0.030136,0.038707,-0.024584,0.036239,0.999813
2011-09-26T14:30:26.905084,11890,0.040518,-0.034089,0.036600,-0.024403,0.036160,1.000021
2011-09-26T14:30:26.915084,11900,0.043633,-0.038042,0.034494,-0.024222,0.036081,1.000230
2011-09-26T14:30:26.925084,11910,0.046748,-0.041995,0.032387,-0.024041,0.036003,1.000438
2011-09-26T14:30:26.935084,11920,0.039699,-0.039318,0.029968,-0.024148,0.036092,1.000315
2011-09-26T14:30:26.945084,11930,0.032063,-0.036258,0.027531,-0.024272,0.036191,1.000173
2011-09-26T14:30:26.955084,11940,0.024426,-0.033199,0.025094,-0.024396,0.036290,1.000031
2011-09-26T14:30:26.965084,11950,0.016790,-0.030139,0.022657,-0.024519,0.036388,0.999889
2011-09-26T14:30:26.975084,11960,0.009154,-0.027079,0.020220,-0.024643,0.036487,0.999747
2011-09-26T14:30:26.985084,11970,0.001517,-0.024019,0.017783,-0.024767,0.036586,0.999605
2011-09-26T14:30:26.995084,11980,-0.006119,-0.020959,0.015346,-0.024890,0.036685,0.999462
2011-09-26T14:30:27.005084,11990,-0.013755,-0.017899,0.012909,-0.025014,0.036784,0.999320
2011-09-26T14:30:27.015084,12000,-0.021392,-0.014839,0.010472,-0.025138,0.036883,0.999178
2011-09-26T14:30:27.025084,12010,-0.029028,-0.011779,0.008035,-0.025261,0.036982,0.999036
2011-09-26T14:30:27.035084,12020,-0.036664,-0.008719,0.005598,-0.025385,0.037081,0.998894
2011-09-26T14:30:27.045084,12030,-0.034981,-0.006595,0.005935,-0.025289,0.036960,0.998951
2011-09-26T14:30:27.055084,12040,-0.032801,-0.004521,0.006420,-0.025182,0.036827,0.999019
2011-09-26T14:30:27.065084,12050,-0.030621,-0.002447,0.006904,-0.025075,0.036694,0.999087
2011-09-26T14:30:27.075084,12060,-0.028441,-0.000372,0.007389,-0.024967,0.036562,0.999155
2011-09-26T14:30:27.085084,12070,-0.026261,0.001702,0.007874,-0.024860,0.036429,0.999223
2011-09-26T14:30:27.095084,12080,-0.024081,0.003776,0.008359,-0.024753,0.036296,0.999291
2011-09-26T14:30:27.105084,12090,-0.021901,0.005851,0.008843,-0.024646,0.036164,0.999359
2011-09-26T14:30:27.115084,12100,-0.019721,0.007925,0.009328,-0.024538,0.036031,0.999426
2011-09-26T14:30:27.125084,12110,-0.017541,0.009999,0.009813,-0.024431,0.035898,0.999494
2011-09-26T14:30:27.135084,12120,-0.015361,0.012074,0.010298,-0.024324,0.035766,0.999562
2011-09-26T14:30:27.145084,12130,-0.014413,0.010247,0.003578,-0.024390,0.035856,0.999493
2011-09-26T14:30:27.155084,12140,-0.013562,0.008118,-0.003701,-0.024469,0.035964,0.999414
2011-09-26T14:30:27.165084,12150,-0.012710,0.005989,-0.010979,-0.024549,0.036072,0.999334
2011-09-26T14:30:27.175084,12160,-0.011858,0.003860,-0.018258,-0.024628,0.036181,0.999255
2011-09-26T14:30:27.185084,12170,-0.011006,0.001731,-0.025537,-0.024707,0.036289,0.999175
2011-09-26T14:30:27.195084,12180,-0.010154,-0.000398,-0.032816,-0.024787,0.036397,0.999095
2011-09-26T14:30:27.205084,12190,-0.009302,-0.002527,-0.040094,-0.024866,0.036505,0.999016
2011-09-26T14:30:27.215084,12200,-0.008450,-0.004656,-0.047373,-0.024945,0.036613,0.998936
2011-09-26T14:30:27.225084,12210,-0.007598,-0.006785,-0.054652,-0.025025,0.036721,0.998857
2011-09-26T14:30:27.235084,12220,-0.006746,-0.008914,-0.061931,-0.025104,0.036829,0.998777
2011-09-26T14:30:27.245084,12230,-0.009888,-0.007269,-0.060523,-0.025130,0.036936,0.998721
2011-09-26T14:30:27.255084,12240,-0.013256,-0.005411,-0.058623,-0.025153,0.037042,0.998666
2011-09-26T14:30:27.265084,12250,-0.016624,-0.003552,-0.056723,-0.025176,0.037149,0.998611
2011-09-26T14:30:27.275084,12260,-0.019992,-0.001694,-0.054822,-0.025199,0.037255,0.998556
2011-09-26T14:30:27.285084,12270,-0.023360,0.000165,-0.052922,-0.025222,0.037362,0.998501
2011-09-26T14:30:27.295084,12280,-0.026729,0.002023,-0.051022,-0.025245,0.037468,0.998446
2011-09-26T14:30:27.305084,12290,-0.030097,0.003882,-0.049122,-0.025268,0.037575,0.998391
2011-09-26T14:30:27.315084,12300,-0.033465,0.005740,-0.047221,-0.025291,0.037681,0.998335
2011-09-26T14:30:27.325084,12310,-0.036833,0.007599,-0.045321,-0.025313,0.037788,0.998280
2011-09-26T14:30:27.335084,12320,-0.040201,0.009458,-0.043421,-0.025336,0.037894,0.998225
2011-09-26T14:30:27.345084,12330,-0.043569,0.011316,-0.041520,-0.025359,0.038001,0.998170
2011-09-26T14:30:27.355084,12340,-0.039823,0.009028,-0.040283,-0.025291,0.037761,0.998303
2011-09-26T14:30:27.365084,12350,-0.035666,0.006500,-0.039085,-0.025217,0.037502,0.998446
2011-09-26T14:30:27.375084,12360,-0.031508,0.003972,-0.037886,-0.025144,0.037243,0.998589
2011-09-26T14:30:27.385084,12370,-0.027351,0.001444,-0.036687,-0.025070,0.036984,0.998733
2011-09-26T14:30:27.395084,12380,-0.023193,-0.001084,-0.035489,-0.024997,0.036725,0.998876
2011-09-26T14:30:27.405084,12390,-0.019035,-0.003612,-0.034290,-0.024923,0.036465,0.999019
2011-09-26T14:30:27.415084,12400,-0.014878,-0.006140,-0.033091,-0.024850,0.036206,0.999162
2011-09-26T14:30:27.425084,12410,-0.010720,-0.008668,-0.031893,-0.024776,0.035947,0.999306
2011-09-26T14:30:27.435084,12420,-0.006563,-0.011196,-0.030694,-0.024703,0.035688,0.999449
2011-09-26T14:30:27.445084,12430,-0.002405,-0.013724,-0.029495,-0.024629,0.035429,0.999592
2011-09-26T14:30:27.455084,12440,0.000604,-0.010065,-0.027801,-0.024634,0.035509,0.999560
2011-09-26T14:30:27.465084,12450,0.003549,-0.006054,-0.026079,-0.024644,0.035609,0.999517
2011-09-26T14:30:27.475084,12460,0.006493,-0.002043,-0.024357,-0.024653,0.035708,0.999474
2011-09-26T14:30:27.485084,12470,0.009437,0.001968,-0.022634,-0.024663,0.035808,0.999431
2011-09-26T14:30:27.495084,12480,0.012381,0.005980,-0.020912,-0.024673,0.035908,0.999388
2011-09-26T14:30:27.505084,12490,0.015325,0.009991,-0.019190,-0.024682,0.036008,0.999345
2011-09-26T14:30:27.515084,12500,0.018269,0.014002,-0.017467,-0.024692,0.036107,0.999303
2011-09-26T14:30:27.525084,12510,0.021213,0.018013,-0.015745,-0.024702,0.036207,0.999260
2011-09-26T14:30:27.535084,12520,0.024157,0.022024,-0.014022,-0.024711,0.036307,0.999217
2011-09-26T14:30:27.545084,12530,0.027101,0.026036,-0.012300,-0.024721,0.036407,0.999174
2011-09-26T14:30:27.555084,12540,0.025322,0.021116,-0.012298,-0.024663,0.036395,0.999263
2011-09-26T14:30:27.565084,12550,0.023278,0.015694,-0.012392,-0.024602,0.036377,0.999360
2011-09-26T14:30:27.575084,12560,0.021234,0.010273,-0.012486,-0.024541,0.036359,0.999457
2011-09-26T14:30:27.585084,12570,0.019190,0.004851,-0.012580,-0.024480,0.036341,0.999554
2011-09-26T14:30:27.595084,12580,0.017146,-0.000570,-0.012674,-0.024418,0.036323,0.999650
2011-09-26T14:30:27.605084,12590,0.015102,-0.005992,-0.012769,-0.024357,0.036305,0.999747
2011-09-26T14:30:27.615084,12600,0.013057,-0.011414,-0.012863,-0.024296,0.036287,0.999844
2011-09-26T14:30:27.625084,12610,0.011013,-0.016835,-0.012957,-0.024235,0.036268,0.999940
2011-09-26T14:30:27.635084,12620,0.008969,-0.022257,-0.013051,-0.024173,0.036250,1.000037
2011-09-26T14:30:27.645084,12630,0.006925,-0.027678,-0.013145,-0.024112,0.036232,1.000134
2011-09-26T14:30:27.655084,12640,0.004881,-0.033100,-0.013239,-0.024051,0.036214,1.000230
2011-09-26T14:30:27.665084,12650,0.004176,-0.024124,-0.011760,-0.024202,0.036346,1.000045
2011-09-26T14:30:27.675084,12660,0.003567,-0.014133,-0.010169,-0.024369,0.036488,0.999840
2011-09-26T14:30:27.685084,12670,0.002957,-0.004143,-0.008578,-0.024535,0.036631,0.999635
2011-09-26T14:30:27.695084,12680,0.002347,0.005848,-0.006988,-0.024702,0.036773,0.999430
2011-09-26T14:30:27.705084,12690,0.001737,0.015838,-0.005397,-0.024869,0.036915,0.999226
2011-09-26T14:30:27.715084,12700,0.001127,0.025829,-0.003807,-0.025035,0.037058,0.999021
2011-09-26T14:30:27.725084,12710,0.000517,0.035819,-0.002216,-0.025202,0.037200,0.998816
2011-09-26T14:30:27.735084,12720,-0.000093,0.045809,-0.000625,-0.025368,0.037342,0.998611
2011-09-26T14:30:27.745084,12730,-0.000703,0.055800,0.000965,-0.025535,0.037484,0.998406
2011-09-26T14:30:27.755084,12740,-0.001313,0.065790,0.002556,-0.025701,0.037627,0.998201
2011-09-26T14:30:27.765084,12750,-0.002509,0.060711,-0.000377,-0.025550,0.037413,0.998379
2011-09-26T14:30:27.775084,12760,-0.003740,0.054734,-0.003580,-0.025380,0.037177,0.998579
2011-09-26T14:30:27.785084,12770,-0.004971,0.048756,-0.006782,-0.025210,0.036942,0.998780
2011-09-26T14:30:27.795084,12780,-0.006202,0.042779,-0.009985,-0.025040,0.036707,0.998981
2011-09-26T14:30:27.805084,12790,-0.007434,0.036802,-0.013187,-0.024870,0.036471,0.999182
2011-09-26T14:30:27.815084,12800,-0.008665,0.030825,-0.016390,-0.024701,0.036236,0.999382
2011-09-26T14:30:27.825084,12810,-0.009896,0.024848,-0.019592,-0.024531,0.036000,0.999583
2011-09-26T14:30:27.835084,12820,-0.011127,0.018871,-0.022795,-0.024361,0.035765,0.999784
2011-09-26T14:30:27.845084,12830,-0.012359,0.012894,-0.025998,-0.024191,0.035530,0.999985
2011-09-26T14:30:27.855084,12840,-0.013590,0.006917,-0.029200,-0.024021,0.035294,1.000185
2011-09-26T14:30:27.865084,12850,-0.012769,0.004566,-0.024711,-0.024116,0.035415,1.000107
2011-09-26T14:30:27.875084,12860,-0.011824,0.002433,-0.019759,-0.024227,0.035558,1.000011
2011-09-26T14:30:27.885084,12870,-0.010879,0.000300,-0.014807,-0.024339,0.035701,0.999916
2011-09-26T14:30:27.895084,12880,-0.009934,-0.001833,-0.009855,-0.024450,0.035843,0.999820
2011-09-26T14:30:27.905084,12890,-0.008989,-0.003967,-0.004903,-0.024561,0.035986,0.999725
2011-09-26T14:30:27.915084,12900,-0.008045,-0.006100,0.000050,-0.024673,0.036128,0.999629
2011-09-26T14:30:27.925084,12910,-0.007100,-0.008233,0.005002,-0.024784,0.036271,0.999534
2011-09-26T14:30:27.935084,12920,-0.006155,-0.010366,0.009954,-0.024895,0.036413,0.999439
2011-09-26T14:30:27.945084,12930,-0.005210,-0.012499,0.014906,-0.025006,0.036556,0.999343
2011-09-26T14:30:27.955084,12940,-0.004266,-0.014632,0.019858,-0.025118,0.036698,0.999248
2011-09-26T14:30:27.965084,12950,-0.003321,-0.016765,0.024810,-0.025229,0.036841,0.999152
2011-09-26T14:30:27.975084,12960,-0.000944,-0.013648,0.025126,-0.025147,0.036836,0.999245
2011-09-26T14:30:27.985084,12970,0.001516,-0.010230,0.025176,-0.025055,0.036823,0.999348
2011-09-26T14:30:27.995084,12980,0.003975,-0.006813,0.025226,-0.024962,0.036809,0.999451
2011-09-26T14:30:28.005084,12990,0.006434,-0.003396,0.025277,-0.024869,0.036796,0.999554
2011-09-26T14:30:28.015084,13000,0.008893,0.000021,0.025327,-0.024777,0.036783,0.999657
2011-09-26T14:30:28.025084,13010,0.011352,0.003438,0.025377,-0.024684,0.036769,0.999760
2011-09-26T14:30:28.035084,13020,0.013812,0.006856,0.025428,-0.024591,0.036756,0.999863
2011-09-26T14:30:28.045084,13030,0.016271,0.010273,0.025478,-0.024499,0.036743,0.999966
2011-09-26T14:30:28.055084,13040,0.018730,0.013690,0.025528,-0.024406,0.036729,1.000069
2011-09-26T14:30:28.065084,13050,0.021189,0.017107,0.025579,-0.024313,0.036716,1.000172
2011-09-26T14:30:28.075084,13060,0.014230,0.014674,0.017145,-0.024422,0.036727,1.000008
2011-09-26T14:30:28.085084,13070,0.006721,0.011899,0.008217,-0.024543,0.036740,0.999829
2011-09-26T14:30:28.095084,13080,-0.000788,0.009124,-0.000711,-0.024663,0.036752,0.999649
2011-09-26T14:30:28.105084,13090,-0.008297,0.006349,-0.009639,-0.024784,0.036764,0.999470
2011-09-26T14:30:28.115084,13100,-0.015806,0.003574,-0.018567,-0.024904,0.036777,0.999291
2011-09-26T14:30:28.125084,13110,-0.023315,0.000799,-0.027495,-0.025025,0.036789,0.999111
2011-09-26T14:30:28.135084,13120,-0.030823,-0.001976,-0.036423,-0.025145,0.036802,0.998932
2011-09-26T14:30:28.145084,13130,-0.038332,-0.004751,-0.045351,-0.025266,0.036814,0.998753
2011-09-26T14:30:28.155084,13140,-0.045841,-0.007526,-0.054279,-0.025386,0.036826,0.998573
2011-09-26T14:30:28.165084,13150,-0.053350,-0.010301,-0.063207,-0.025507,0.036839,0.998394
2011-09-26T14:30:28.175084,13160,-0.051083,-0.007045,-0.059765,-0.025468,0.036827,0.998404
2011-09-26T14:30:28.185084,13170,-0.047977,-0.003271,-0.055262,-0.025417,0.036814,0.998431
2011-09-26T14:30:28.195084,13180,-0.044870,0.000504,-0.050758,-0.025365,0.036801,0.998458
2011-09-26T14:30:28.205084,13190,-0.041763,0.004278,-0.046254,-0.025313,0.036788,0.998485
2011-09-26T14:30:28.215084,13200,-0.038657,0.008052,-0.041750,-0.025261,0.036774,0.998511
2011-09-26T14:30:28.225084,13210,-0.035550,0.011827,-0.037247,-0.025209,0.036761,0.998538
2011-09-26T14:30:28.235084,13220,-0.032444,0.015601,-0.032743,-0.025158,0.036748,0.998565
2011-09-26T14:30:28.245084,13230,-0.029337,0.019375,-0.028239,-0.025106,0.036734,0.998592
2011-09-26T14:30:28.255084,13240,-0.026230,0.023150,-0.023735,-0.025054,0.036721,0.998618
2011-09-26T14:30:28.265084,13250,-0.023124,0.026924,-0.019232,-0.025002,0.036708,0.998645
2011-09-26T14:30:28.275084,13260,-0.020017,0.030698,-0.014728,-0.024950,0.036694,0.998672
2011-09-26T14:30:28.285084,13270,-0.015157,0.026589,-0.010063,-0.024957,0.036641,0.998724
2011-09-26T14:30:28.295084,13280,-0.010194,0.022018,-0.005389,-0.024967,0.036585,0.998778
2011-09-26T14:30:28.305084,13290,-0.005231,0.017446,-0.000715,-0.024978,0.036530,0.998831
2011-09-26T14:30:28.315084,13300,-0.000268,0.012875,0.003959,-0.024988,0.036474,0.998885
2011-09-26T14:30:28.325084,13310,0.004696,0.008303,0.008633,-0.024998,0.036418,0.998938
2011-09-26T14:30:28.335084,13320,0.009659,0.003732,0.013307,-0.025008,0.036362,0.998992
2011-09-26T14:30:28.345084,13330,0.014622,-0.000840,0.017981,-0.025019,0.036307,0.999046
2011-09-26T14:30:28.355084,13340,0.019585,-0.005412,0.022655,-0.025029,0.036251,0.999099
2011-09-26T14:30:28.365084,13350,0.024548,-0.009983,0.027329,-0.025039,0.036195,0.999153
2011-09-26T14:30:28.375084,13360,0.029511,-0.014555,0.032003,-0.025050,0.036140,0.999206
2011-09-26T14:30:28.385084,13370,0.027827,-0.010123,0.029820,-0.025107,0.036253,0.999090
2011-09-26T14:30:28.395084,13380,0.025751,-0.005160,0.027232,-0.025167,0.036376,0.998963
2011-09-26T14:30:28.405084,13390,0.023674,-0.000197,0.024645,-0.025227,0.036499,0.998837
2011-09-26T14:30:28.415084,13400,0.021598,0.004766,0.022057,-0.025287,0.036622,0.998710
2011-09-26T14:30:28.425084,13410,0.019521,0.009729,0.019469,-0.025348,0.036745,0.998584
2011-09-26T14:30:28.435084,13420,0.017445,0.014692,0.016882,-0.025408,0.036868,0.998457
2011-09-26T14:30:28.445084,13430,0.015368,0.019655,0.014294,-0.025468,0.036990,0.998330
2011-09-26T14:30:28.455084,13440,0.013292,0.024618,0.011707,-0.025528,0.037113,0.998204
2011-09-26T14:30:28.465084,13450,0.011215,0.029581,0.009119,-0.025588,0.037236,0.998077
2011-09-26T14:30:28.475084,13460,0.009139,0.034544,0.006532,-0.025648,0.037359,0.997951
2011-09-26T14:30:28.485084,13470,0.007062,0.039506,0.003944,-0.025709,0.037482,0.997824
2011-09-26T14:30:28.495084,13480,0.004264,0.033172,0.007926,-0.025587,0.037266,0.998070
2011-09-26T14:30:28.505084,13490,0.001424,0.026179,0.012289,-0.025454,0.037029,0.998338
