pc_time,ts_ms,gyroX,gyroY,gyroZ,accelX,accelY,accelZ
2011-09-26T13:24:51.660923,0,-1.440492,0.447343,2.755273,-0.018430,0.047039,0.972614
2011-09-26T13:24:51.670923,10,-1.382678,0.462232,2.783123,-0.018580,0.046355,0.976799
2011-09-26T13:24:51.680923,20,-1.324865,0.477120,2.810972,-0.018729,0.045671,0.980983
2011-09-26T13:24:51.690923,30,-1.267051,0.492009,2.838821,-0.018878,0.044988,0.985167
2011-09-26T13:24:51.700923,40,-1.209238,0.506898,2.866671,-0.019027,0.044304,0.989351
2011-09-26T13:24:51.710923,50,-1.151424,0.521787,2.894520,-0.019176,0.043620,0.993535
2011-09-26T13:24:51.720923,60,-1.093610,0.536676,2.922370,-0.019325,0.042936,0.997719
2011-09-26T13:24:51.730923,70,-1.035797,0.551565,2.950219,-0.019474,0.042253,1.001903
2011-09-26T13:24:51.740923,80,-0.977983,0.566454,2.978068,-0.019624,0.041569,1.006087
2011-09-26T13:24:51.750923,90,-0.920169,0.581343,3.005918,-0.019773,0.040885,1.010271
2011-09-26T13:24:51.760923,100,-0.862356,0.596232,3.033767,-0.019922,0.040201,1.014455
2011-09-26T13:24:51.770923,110,-0.729501,0.561019,3.054681,-0.020478,0.040690,1.011704
2011-09-26T13:24:51.780923,120,-0.596216,0.525519,3.075555,-0.021037,0.041185,1.008912
2011-09-26T13:24:51.790923,130,-0.462931,0.490019,3.096429,-0.021596,0.041680,1.006121
2011-09-26T13:24:51.800923,140,-0.329647,0.454520,3.117303,-0.022155,0.042176,1.003330
2011-09-26T13:24:51.810923,150,-0.196362,0.419020,3.138177,-0.022713,0.042671,1.000538
2011-09-26T13:24:51.820923,160,-0.063078,0.383520,3.159051,-0.023272,0.043166,0.997747
2011-09-26T13:24:51.830923,170,0.070207,0.348020,3.179925,-0.023831,0.043662,0.994956
2011-09-26T13:24:51.840923,180,0.203491,0.312520,3.200799,-0.024390,0.044157,0.992164
2011-09-26T13:24:51.850923,190,0.336776,0.277020,3.221673,-0.024948,0.044652,0.989373
2011-09-26T13:24:51.860923,200,0.470060,0.241521,3.242548,-0.025507,0.045147,0.986582
2011-09-26T13:24:51.870923,210,0.576215,0.195890,3.263766,-0.026027,0.044164,0.988902
2011-09-26T13:24:51.880923,220,0.682318,0.150241,3.284986,-0.026547,0.043178,0.991233
2011-09-26T13:24:51.890923,230,0.788421,0.104592,3.306205,-0.027066,0.042192,0.993563
2011-09-26T13:24:51.900923,240,0.894524,0.058943,3.327425,-0.027586,0.041207,0.995894
2011-09-26T13:24:51.910923,250,1.000627,0.013293,3.348644,-0.028106,0.040221,0.998224
2011-09-26T13:24:51.920923,260,1.106731,-0.032356,3.369864,-0.028626,0.039235,1.000555
2011-09-26T13:24:51.930923,270,1.212834,-0.078005,3.391083,-0.029145,0.038249,1.002885
2011-09-26T13:24:51.940923,280,1.318937,-0.123654,3.412303,-0.029665,0.037263,1.005215
2011-09-26T13:24:51.950923,290,1.425040,-0.169304,3.433522,-0.030185,0.036277,1.007546
2011-09-26T13:24:51.960923,300,1.531143,-0.214953,3.454741,-0.030705,0.035291,1.009876
2011-09-26T13:24:51.970923,310,1.637247,-0.260602,3.475961,-0.031224,0.034305,1.012207
2011-09-26T13:24:51.980923,320,1.664975,-0.276330,3.506543,-0.030247,0.035506,1.009791
2011-09-26T13:24:51.990923,330,1.692632,-0.292030,3.537133,-0.029268,0.036708,1.007372
2011-09-26T13:24:52.000923,340,1.720290,-0.307730,3.567724,-0.028289,0.037911,1.004952
2011-09-26T13:24:52.010923,350,1.747947,-0.323430,3.598314,-0.027310,0.039113,1.002533
2011-09-26T13:24:52.020923,360,1.775605,-0.339131,3.628904,-0.026331,0.040316,1.000113
2011-09-26T13:24:52.030923,370,1.803262,-0.354831,3.659495,-0.025352,0.041518,0.997693
2011-09-26T13:24:52.040923,380,1.830920,-0.370531,3.690085,-0.024373,0.042721,0.995274
2011-09-26T13:24:52.050923,390,1.858577,-0.386231,3.720676,-0.023394,0.043923,0.992854
2011-09-26T13:24:52.060923,400,1.886234,-0.401932,3.751266,-0.022415,0.045126,0.990435
2011-09-26T13:24:52.070923,410,1.913892,-0.417632,3.781856,-0.021436,0.046328,0.988015
2011-09-26T13:24:52.080923,420,1.952719,-0.295162,3.783927,-0.018832,0.051328,0.991281
2011-09-26T13:24:52.090923,430,1.991580,-0.172280,3.785913,-0.016223,0.056339,0.994563
2011-09-26T13:24:52.100923,440,2.030440,-0.049398,3.787899,-0.013614,0.061350,0.997846
2011-09-26T13:24:52.110923,450,2.069301,0.073485,3.789885,-0.011005,0.066362,1.001129
2011-09-26T13:24:52.120923,460,2.108162,0.196367,3.791871,-0.008396,0.071373,1.004411
2011-09-26T13:24:52.130923,470,2.147022,0.319249,3.793857,-0.005787,0.076384,1.007694
2011-09-26T13:24:52.140923,480,2.185883,0.442132,3.795843,-0.003178,0.081395,1.010977
2011-09-26T13:24:52.150923,490,2.224743,0.565014,3.797829,-0.000569,0.086406,1.014259
2011-09-26T13:24:52.160923,500,2.263604,0.687897,3.799815,0.002039,0.091417,1.017542
2011-09-26T13:24:52.170923,510,2.302465,0.810779,3.801801,0.004648,0.096429,1.020825
2011-09-26T13:24:52.180923,520,2.245755,0.826160,3.801918,0.004800,0.093702,1.016255
2011-09-26T13:24:52.190923,530,2.188672,0.841120,3.802029,0.004942,0.090945,1.011655
2011-09-26T13:24:52.200923,540,2.131588,0.856079,3.802139,0.005085,0.088188,1.007054
2011-09-26T13:24:52.210923,550,2.074504,0.871039,3.802249,0.005227,0.085431,1.002454
2011-09-26T13:24:52.220923,560,2.017420,0.885998,3.802359,0.005369,0.082674,0.997854
2011-09-26T13:24:52.230923,570,1.960336,0.900958,3.802469,0.005511,0.079917,0.993253
2011-09-26T13:24:52.240923,580,1.903252,0.915917,3.802579,0.005654,0.077160,0.988653
2011-09-26T13:24:52.250923,590,1.846168,0.930877,3.802689,0.005796,0.074403,0.984053
2011-09-26T13:24:52.260923,600,1.789084,0.945836,3.802800,0.005938,0.071646,0.979452
2011-09-26T13:24:52.270923,610,1.732001,0.960796,3.802910,0.006080,0.068890,0.974852
2011-09-26T13:24:52.280923,620,1.674917,0.975755,3.803020,0.006223,0.066133,0.970251
2011-09-26T13:24:52.290923,630,1.643927,0.940964,3.801773,0.005251,0.068264,0.970119
2011-09-26T13:24:52.300923,640,1.613657,0.904802,3.800489,0.004249,0.070530,0.970110
2011-09-26T13:24:52.310923,650,1.583387,0.868640,3.799204,0.003247,0.072796,0.970101
2011-09-26T13:24:52.320923,660,1.553116,0.832478,3.797920,0.002245,0.075062,0.970092
2011-09-26T13:24:52.330923,670,1.522846,0.796316,3.796636,0.001243,0.077329,0.970083
2011-09-26T13:24:52.340923,680,1.492575,0.760154,3.795351,0.000241,0.079595,0.970074
2011-09-26T13:24:52.350923,690,1.462305,0.723992,3.794067,-0.000761,0.081861,0.970065
2011-09-26T13:24:52.360923,700,1.432034,0.687830,3.792782,-0.001763,0.084127,0.970056
2011-09-26T13:24:52.370923,710,1.401764,0.651668,3.791498,-0.002765,0.086393,0.970047
2011-09-26T13:24:52.380923,720,1.371493,0.615506,3.790214,-0.003767,0.088659,0.970039
2011-09-26T13:24:52.390923,730,1.372815,0.685591,3.780752,-0.003723,0.088330,0.972088
2011-09-26T13:24:52.400923,740,1.374241,0.756028,3.771264,-0.003676,0.087992,0.974144
2011-09-26T13:24:52.410923,750,1.375668,0.826464,3.761776,-0.003630,0.087655,0.976200
2011-09-26T13:24:52.420923,760,1.377094,0.896901,3.752287,-0.003583,0.087317,0.978256
2011-09-26T13:24:52.430923,770,1.378520,0.967337,3.742799,-0.003536,0.086979,0.980312
2011-09-26T13:24:52.440923,780,1.379946,1.037774,3.733310,-0.003489,0.086642,0.982368
2011-09-26T13:24:52.450923,790,1.381373,1.108210,3.723822,-0.003442,0.086304,0.984425
2011-09-26T13:24:52.460923,800,1.382799,1.178647,3.714333,-0.003396,0.085966,0.986481
2011-09-26T13:24:52.470923,810,1.384225,1.249083,3.704845,-0.003349,0.085629,0.988537
2011-09-26T13:24:52.480923,820,1.385688,1.319385,3.695356,-0.003302,0.085292,0.990591
2011-09-26T13:24:52.490923,830,1.427230,1.240689,3.685465,-0.003693,0.085557,0.990900
2011-09-26T13:24:52.500923,840,1.468773,1.161992,3.675573,-0.004084,0.085822,0.991208
2011-09-26T13:24:52.510923,850,1.510316,1.083296,3.665681,-0.004475,0.086088,0.991517
2011-09-26T13:24:52.520923,860,1.551858,1.004599,3.655790,-0.004866,0.086353,0.991825
2011-09-26T13:24:52.530923,870,1.593401,0.925903,3.645898,-0.005257,0.086618,0.992134
2011-09-26T13:24:52.540923,880,1.634944,0.847207,3.636006,-0.005648,0.086884,0.992442
2011-09-26T13:24:52.550923,890,1.676487,0.768510,3.626115,-0.006039,0.087149,0.992751
2011-09-26T13:24:52.560923,900,1.718029,0.689814,3.616223,-0.006430,0.087415,0.993059
2011-09-26T13:24:52.570923,910,1.759572,0.611117,3.606332,-0.006821,0.087680,0.993368
2011-09-26T13:24:52.580923,920,1.801115,0.532421,3.596440,-0.007212,0.087945,0.993676
2011-09-26T13:24:52.590923,930,1.842657,0.453725,3.586548,-0.007603,0.088211,0.993984
2011-09-26T13:24:52.600923,940,1.841122,0.389731,3.571396,-0.007914,0.087334,0.993548
2011-09-26T13:24:52.610923,950,1.839327,0.325826,3.556213,-0.008224,0.086450,0.993108
2011-09-26T13:24:52.620923,960,1.837532,0.261920,3.541029,-0.008535,0.085567,0.992667
2011-09-26T13:24:52.630923,970,1.835737,0.198015,3.525845,-0.008845,0.084683,0.992227
2011-09-26T13:24:52.640923,980,1.833942,0.134110,3.510662,-0.009156,0.083799,0.991786
2011-09-26T13:24:52.650923,990,1.832147,0.070204,3.495478,-0.009466,0.082916,0.991345
2011-09-26T13:24:52.660923,1000,1.830352,0.006299,3.480294,-0.009776,0.082032,0.990905
2011-09-26T13:24:52.670923,1010,1.828557,-0.057606,3.465111,-0.010087,0.081149,0.990464
2011-09-26T13:24:52.680923,1020,1.826762,-0.121512,3.449927,-0.010397,0.080265,0.990024
2011-09-26T13:24:52.690923,1030,1.824967,-0.185417,3.434744,-0.010708,0.079381,0.989583
2011-09-26T13:24:52.700923,1040,1.812658,-0.133133,3.428764,-0.010755,0.082678,0.990152
2011-09-26T13:24:52.710923,1050,1.800296,-0.080257,3.422832,-0.010802,0.085995,0.990726
2011-09-26T13:24:52.720923,1060,1.787933,-0.027380,3.416900,-0.010848,0.089313,0.991300
2011-09-26T13:24:52.730923,1070,1.775571,0.025496,3.410968,-0.010894,0.092630,0.991874
2011-09-26T13:24:52.740923,1080,1.763208,0.078373,3.405035,-0.010941,0.095947,0.992447
2011-09-26T13:24:52.750923,1090,1.750846,0.131250,3.399103,-0.010987,0.099265,0.993021
2011-09-26T13:24:52.760923,1100,1.738483,0.184126,3.393171,-0.011033,0.102582,0.993595
2011-09-26T13:24:52.770923,1110,1.726121,0.237003,3.387239,-0.011080,0.105900,0.994169
2011-09-26T13:24:52.780923,1120,1.713758,0.289880,3.381306,-0.011126,0.109217,0.994743
2011-09-26T13:24:52.790923,1130,1.701396,0.342756,3.375374,-0.011172,0.112535,0.995317
2011-09-26T13:24:52.800923,1140,1.666066,0.307052,3.359706,-0.010852,0.111214,0.995619
2011-09-26T13:24:52.810923,1150,1.630478,0.270356,3.343928,-0.010527,0.109841,0.995917
2011-09-26T13:24:52.820923,1160,1.594890,0.233659,3.328151,-0.010203,0.108469,0.996216
2011-09-26T13:24:52.830923,1170,1.559303,0.196963,3.312374,-0.009878,0.107096,0.996515
2011-09-26T13:24:52.840923,1180,1.523715,0.160266,3.296596,-0.009554,0.105723,0.996814
2011-09-26T13:24:52.850923,1190,1.488128,0.123570,3.280819,-0.009230,0.104351,0.997112
2011-09-26T13:24:52.860923,1200,1.452540,0.086873,3.265042,-0.008905,0.102978,0.997411
2011-09-26T13:24:52.870923,1210,1.416953,0.050177,3.249264,-0.008581,0.101605,0.997710
2011-09-26T13:24:52.880923,1220,1.381365,0.013480,3.233487,-0.008256,0.100232,0.998009
2011-09-26T13:24:52.890923,1230,1.345778,-0.023216,3.217710,-0.007932,0.098860,0.998307
2011-09-26T13:24:52.900923,1240,1.310190,-0.059913,3.201932,-0.007607,0.097487,0.998606
2011-09-26T13:24:52.910923,1250,1.326637,-0.086552,3.165528,-0.007965,0.097316,0.999830
2011-09-26T13:24:52.920923,1260,1.343451,-0.113120,3.128979,-0.008328,0.097154,1.001060
2011-09-26T13:24:52.930923,1270,1.360265,-0.139688,3.092429,-0.008691,0.096991,1.002291
2011-09-26T13:24:52.940923,1280,1.377079,-0.166256,3.055879,-0.009054,0.096829,1.003521
2011-09-26T13:24:52.950923,1290,1.393893,-0.192824,3.019330,-0.009417,0.096667,1.004751
2011-09-26T13:24:52.960923,1300,1.410707,-0.219392,2.982780,-0.009780,0.096504,1.005982
2011-09-26T13:24:52.970923,1310,1.427521,-0.245960,2.946230,-0.010142,0.096342,1.007212
2011-09-26T13:24:52.980923,1320,1.444335,-0.272528,2.909681,-0.010505,0.096180,1.008443
2011-09-26T13:24:52.990923,1330,1.461149,-0.299097,2.873131,-0.010868,0.096017,1.009673
2011-09-26T13:24:53.000923,1340,1.477963,-0.325665,2.836581,-0.011231,0.095855,1.010903
2011-09-26T13:24:53.010923,1350,1.369113,-0.370467,2.798771,-0.011505,0.093928,1.010522
2011-09-26T13:24:53.020923,1360,1.259070,-0.415441,2.760948,-0.011779,0.091983,1.010126
2011-09-26T13:24:53.030923,1370,1.149027,-0.460416,2.723126,-0.012052,0.090039,1.009730
2011-09-26T13:24:53.040923,1380,1.038984,-0.505391,2.685303,-0.012326,0.088095,1.009334
2011-09-26T13:24:53.050923,1390,0.928941,-0.550366,2.647481,-0.012600,0.086151,1.008938
2011-09-26T13:24:53.060923,1400,0.818898,-0.595341,2.609658,-0.012873,0.084207,1.008542
2011-09-26T13:24:53.070923,1410,0.708855,-0.640316,2.571836,-0.013147,0.082263,1.008146
2011-09-26T13:24:53.080923,1420,0.598812,-0.685291,2.534013,-0.013420,0.080319,1.007749
2011-09-26T13:24:53.090923,1430,0.488769,-0.730266,2.496191,-0.013694,0.078374,1.007353
2011-09-26T13:24:53.100923,1440,0.378726,-0.775241,2.458368,-0.013967,0.076430,1.006957
2011-09-26T13:24:53.110923,1450,0.268683,-0.820216,2.420546,-0.014241,0.074486,1.006561
2011-09-26T13:24:53.120923,1460,0.312573,-0.757424,2.370073,-0.013347,0.074147,1.010210
2011-09-26T13:24:53.130923,1470,0.357951,-0.693592,2.319478,-0.012442,0.073822,1.013898
2011-09-26T13:24:53.140923,1480,0.403329,-0.629759,2.268883,-0.011537,0.073498,1.017586
2011-09-26T13:24:53.150923,1490,0.448706,-0.565927,2.218288,-0.010631,0.073174,1.021274
2011-09-26T13:24:53.160923,1500,0.494084,-0.502094,2.167693,-0.009726,0.072850,1.024962
2011-09-26T13:24:53.170923,1510,0.539462,-0.438261,2.117098,-0.008821,0.072526,1.028650
2011-09-26T13:24:53.180923,1520,0.584839,-0.374429,2.066503,-0.007916,0.072202,1.032338
2011-09-26T13:24:53.190923,1530,0.630217,-0.310596,2.015907,-0.007011,0.071878,1.036026
2011-09-26T13:24:53.200923,1540,0.675595,-0.246764,1.965312,-0.006105,0.071554,1.039714
2011-09-26T13:24:53.210923,1550,0.720973,-0.182931,1.914717,-0.005200,0.071230,1.043402
2011-09-26T13:24:53.220923,1560,0.875604,-0.006793,1.871905,-0.003700,0.069111,1.041170
2011-09-26T13:24:53.230923,1570,1.031753,0.170904,1.829200,-0.002191,0.066968,1.038856
2011-09-26T13:24:53.240923,1580,1.187902,0.348601,1.786495,-0.000682,0.064824,1.036541
2011-09-26T13:24:53.250923,1590,1.344051,0.526298,1.743791,0.000827,0.062681,1.034227
2011-09-26T13:24:53.260923,1600,1.500200,0.703996,1.701086,0.002335,0.060537,1.031912
2011-09-26T13:24:53.270923,1610,1.656349,0.881693,1.658381,0.003844,0.058394,1.029598
2011-09-26T13:24:53.280923,1620,1.812497,1.059390,1.615677,0.005353,0.056250,1.027284
2011-09-26T13:24:53.290923,1630,1.968646,1.237087,1.572972,0.006861,0.054107,1.024969
2011-09-26T13:24:53.300923,1640,2.124795,1.414785,1.530268,0.008370,0.051963,1.022655
2011-09-26T13:24:53.310923,1650,2.280944,1.592482,1.487563,0.009879,0.049820,1.020340
2011-09-26T13:24:53.320923,1660,2.341258,1.710056,1.485786,0.006614,0.045033,1.008239
2011-09-26T13:24:53.330923,1670,2.400606,1.827023,1.484421,0.003301,0.040220,0.996039
2011-09-26T13:24:53.340923,1680,2.459954,1.943991,1.483057,-0.000012,0.035407,0.983838
2011-09-26T13:24:53.350923,1690,2.519301,2.060958,1.481693,-0.003324,0.030594,0.971638
2011-09-26T13:24:53.360923,1700,2.578649,2.177926,1.480328,-0.006637,0.025781,0.959438
2011-09-26T13:24:53.370923,1710,2.637997,2.294893,1.478964,-0.009950,0.020968,0.947238
2011-09-26T13:24:53.380923,1720,2.697344,2.411861,1.477599,-0.013263,0.016155,0.935038
2011-09-26T13:24:53.390923,1730,2.756692,2.528829,1.476235,-0.016576,0.011342,0.922838
2011-09-26T13:24:53.400923,1740,2.816040,2.645796,1.474871,-0.019889,0.006529,0.910637
2011-09-26T13:24:53.410923,1750,2.875388,2.762764,1.473506,-0.023202,0.001716,0.898437
2011-09-26T13:24:53.420923,1760,2.934735,2.879731,1.472142,-0.026515,-0.003097,0.886237
2011-09-26T13:24:53.430923,1770,2.979616,2.801726,1.478793,-0.027784,0.002092,0.891468
2011-09-26T13:24:53.440923,1780,3.024409,2.722542,1.485493,-0.029041,0.007342,0.896805
2011-09-26T13:24:53.450923,1790,3.069202,2.643359,1.492192,-0.030298,0.012592,0.902142
2011-09-26T13:24:53.460923,1800,3.113996,2.564175,1.498892,-0.031555,0.017842,0.907478
2011-09-26T13:24:53.470923,1810,3.158789,2.484992,1.505592,-0.032812,0.023092,0.912815
2011-09-26T13:24:53.480923,1820,3.203582,2.405809,1.512291,-0.034069,0.028342,0.918152
2011-09-26T13:24:53.490923,1830,3.248375,2.326625,1.518991,-0.035326,0.033592,0.923488
2011-09-26T13:24:53.500923,1840,3.293169,2.247442,1.525691,-0.036583,0.038842,0.928825
2011-09-26T13:24:53.510923,1850,3.337962,2.168258,1.532390,-0.037840,0.044092,0.934162
2011-09-26T13:24:53.520923,1860,3.382755,2.089075,1.539090,-0.039097,0.049342,0.939498
2011-09-26T13:24:53.530923,1870,3.315819,1.940167,1.539009,-0.039881,0.052241,0.938177
2011-09-26T13:24:53.540923,1880,3.248028,1.790725,1.538877,-0.040662,0.055122,0.936805
2011-09-26T13:24:53.550923,1890,3.180237,1.641283,1.538745,-0.041442,0.058003,0.935433
2011-09-26T13:24:53.560923,1900,3.112447,1.491842,1.538612,-0.042223,0.060884,0.934061
2011-09-26T13:24:53.570923,1910,3.044656,1.342400,1.538480,-0.043003,0.063765,0.932689
2011-09-26T13:24:53.580923,1920,2.976865,1.192958,1.538348,-0.043784,0.066645,0.931317
2011-09-26T13:24:53.590923,1930,2.909074,1.043516,1.538215,-0.044564,0.069526,0.929945
2011-09-26T13:24:53.600923,1940,2.841283,0.894075,1.538083,-0.045345,0.072407,0.928573
2011-09-26T13:24:53.610923,1950,2.773492,0.744633,1.537950,-0.046125,0.075288,0.927201
2011-09-26T13:24:53.620923,1960,2.705702,0.595191,1.537818,-0.046906,0.078169,0.925829
2011-09-26T13:24:53.630923,1970,2.534178,0.466725,1.515867,-0.045840,0.079068,0.933977
2011-09-26T13:24:53.640923,1980,2.361670,0.338457,1.493709,-0.044757,0.079948,0.942214
2011-09-26T13:24:53.650923,1990,2.189162,0.210189,1.471551,-0.043674,0.080827,0.950452
2011-09-26T13:24:53.660923,2000,2.016654,0.081921,1.449393,-0.042590,0.081707,0.958690
2011-09-26T13:24:53.670923,2010,1.844146,-0.046346,1.427234,-0.041507,0.082587,0.966928
2011-09-26T13:24:53.680923,2020,1.671638,-0.174614,1.405076,-0.040424,0.083467,0.975165
2011-09-26T13:24:53.690923,2030,1.499130,-0.302882,1.382918,-0.039341,0.084347,0.983403
2011-09-26T13:24:53.700923,2040,1.326622,-0.431150,1.360760,-0.038258,0.085227,0.991641
2011-09-26T13:24:53.710923,2050,1.154114,-0.559417,1.338602,-0.037174,0.086106,0.999879
2011-09-26T13:24:53.720923,2060,0.981606,-0.687685,1.316444,-0.036091,0.086986,1.008116
2011-09-26T13:24:53.730923,2070,0.809098,-0.815953,1.294286,-0.035008,0.087866,1.016354
2011-09-26T13:24:53.740923,2080,0.822520,-0.847363,1.275883,-0.033689,0.084434,1.019583
2011-09-26T13:24:53.750923,2090,0.841336,-0.875962,1.257588,-0.032362,0.080876,1.022668
2011-09-26T13:24:53.760923,2100,0.860152,-0.904561,1.239294,-0.031036,0.077319,1.025752
2011-09-26T13:24:53.770923,2110,0.878968,-0.933161,1.221000,-0.029710,0.073761,1.028836
2011-09-26T13:24:53.780923,2120,0.897785,-0.961760,1.202706,-0.028383,0.070204,1.031920
2011-09-26T13:24:53.790923,2130,0.916601,-0.990359,1.184412,-0.027057,0.066647,1.035004
2011-09-26T13:24:53.800923,2140,0.935417,-1.018959,1.166118,-0.025730,0.063089,1.038088
2011-09-26T13:24:53.810923,2150,0.954233,-1.047558,1.147824,-0.024404,0.059532,1.041172
2011-09-26T13:24:53.820923,2160,0.973050,-1.076157,1.129530,-0.023078,0.055974,1.044257
2011-09-26T13:24:53.830923,2170,0.991866,-1.104757,1.111236,-0.021751,0.052417,1.047341
2011-09-26T13:24:53.840923,2180,1.029871,-1.046156,1.110420,-0.021353,0.053476,1.046291
2011-09-26T13:24:53.850923,2190,1.068117,-0.986461,1.109824,-0.020967,0.054593,1.045189
2011-09-26T13:24:53.860923,2200,1.106364,-0.926766,1.109229,-0.020580,0.055711,1.044087
2011-09-26T13:24:53.870923,2210,1.144610,-0.867070,1.108633,-0.020194,0.056828,1.042985
2011-09-26T13:24:53.880923,2220,1.182856,-0.807375,1.108037,-0.019807,0.057945,1.041882
2011-09-26T13:24:53.890923,2230,1.221102,-0.747679,1.107441,-0.019420,0.059062,1.040780
2011-09-26T13:24:53.900923,2240,1.259349,-0.687984,1.106845,-0.019034,0.060180,1.039678
2011-09-26T13:24:53.910923,2250,1.297595,-0.628289,1.106250,-0.018647,0.061297,1.038576
2011-09-26T13:24:53.920923,2260,1.335841,-0.568593,1.105654,-0.018261,0.062414,1.037474
2011-09-26T13:24:53.930923,2270,1.374088,-0.508898,1.105058,-0.017874,0.063531,1.036372
2011-09-26T13:24:53.940923,2280,1.379180,-0.455392,1.095005,-0.018153,0.062211,1.032447
2011-09-26T13:24:53.950923,2290,1.383964,-0.401944,1.084864,-0.018438,0.060868,1.028496
2011-09-26T13:24:53.960923,2300,1.388748,-0.348496,1.074723,-0.018723,0.059526,1.024545
2011-09-26T13:24:53.970923,2310,1.393532,-0.295048,1.064582,-0.019008,0.058183,1.020594
2011-09-26T13:24:53.980923,2320,1.398317,-0.241599,1.054441,-0.019292,0.056840,1.016642
2011-09-26T13:24:53.990923,2330,1.403101,-0.188151,1.044300,-0.019577,0.055497,1.012691
2011-09-26T13:24:54.000923,2340,1.407885,-0.134703,1.034159,-0.019862,0.054154,1.008740
2011-09-26T13:24:54.010923,2350,1.412669,-0.081255,1.024018,-0.020147,0.052812,1.004789
2011-09-26T13:24:54.020923,2360,1.417454,-0.027807,1.013877,-0.020432,0.051469,1.000837
2011-09-26T13:24:54.030923,2370,1.422238,0.025641,1.003736,-0.020717,0.050126,0.996886
2011-09-26T13:24:54.040923,2380,1.427022,0.079090,0.993595,-0.021002,0.048783,0.992935
2011-09-26T13:24:54.050923,2390,1.406739,0.098994,0.979012,-0.021744,0.051032,0.991964
2011-09-26T13:24:54.060923,2400,1.386113,0.118440,0.964367,-0.022493,0.053331,0.991034
2011-09-26T13:24:54.070923,2410,1.365487,0.137886,0.949723,-0.023242,0.055629,0.990105
2011-09-26T13:24:54.080923,2420,1.344861,0.157332,0.935078,-0.023991,0.057928,0.989175
2011-09-26T13:24:54.090923,2430,1.324235,0.176777,0.920434,-0.024740,0.060226,0.988245
2011-09-26T13:24:54.100923,2440,1.303608,0.196223,0.905790,-0.025489,0.062525,0.987315
2011-09-26T13:24:54.110923,2450,1.282982,0.215669,0.891145,-0.026238,0.064823,0.986385
2011-09-26T13:24:54.120923,2460,1.262356,0.235115,0.876501,-0.026987,0.067121,0.985455
2011-09-26T13:24:54.130923,2470,1.241730,0.254560,0.861857,-0.027736,0.069420,0.984526
2011-09-26T13:24:54.140923,2480,1.221104,0.274006,0.847212,-0.028485,0.071718,0.983596
2011-09-26T13:24:54.150923,2490,1.179737,0.223239,0.826601,-0.029266,0.070732,0.983171
2011-09-26T13:24:54.160923,2500,1.138136,0.171676,0.805923,-0.030048,0.069708,0.982753
2011-09-26T13:24:54.170923,2510,1.096534,0.120113,0.785244,-0.030829,0.068684,0.982334
2011-09-26T13:24:54.180923,2520,1.054932,0.068549,0.764565,-0.031611,0.067660,0.981915
2011-09-26T13:24:54.190923,2530,1.013331,0.016986,0.743886,-0.032393,0.066636,0.981497
2011-09-26T13:24:54.200923,2540,0.971729,-0.034577,0.723208,-0.033174,0.065612,0.981078
2011-09-26T13:24:54.210923,2550,0.930128,-0.086140,0.702529,-0.033956,0.064588,0.980659
2011-09-26T13:24:54.220923,2560,0.888526,-0.137703,0.681850,-0.034738,0.063564,0.980240
2011-09-26T13:24:54.230923,2570,0.846924,-0.189266,0.661172,-0.035519,0.062540,0.979822
2011-09-26T13:24:54.240923,2580,0.805323,-0.240829,0.640493,-0.036301,0.061516,0.979403
2011-09-26T13:24:54.250923,2590,0.744179,-0.373274,0.633151,-0.035580,0.061005,0.982067
2011-09-26T13:24:54.260923,2600,0.682253,-0.508956,0.626342,-0.034798,0.060514,0.984854
2011-09-26T13:24:54.270923,2610,0.620326,-0.644638,0.619533,-0.034016,0.060023,0.987642
2011-09-26T13:24:54.280923,2620,0.558400,-0.780320,0.612725,-0.033235,0.059533,0.990429
2011-09-26T13:24:54.290923,2630,0.496474,-0.916002,0.605916,-0.032453,0.059042,0.993217
2011-09-26T13:24:54.300923,2640,0.434548,-1.051684,0.599107,-0.031672,0.058551,0.996004
2011-09-26T13:24:54.310923,2650,0.372622,-1.187366,0.592299,-0.030890,0.058060,0.998791
2011-09-26T13:24:54.320923,2660,0.310696,-1.323048,0.585490,-0.030108,0.057570,1.001579
2011-09-26T13:24:54.330923,2670,0.248770,-1.458730,0.578682,-0.029327,0.057079,1.004366
2011-09-26T13:24:54.340923,2680,0.186844,-1.594412,0.571873,-0.028545,0.056588,1.007154
2011-09-26T13:24:54.350923,2690,0.124918,-1.730094,0.565064,-0.027763,0.056097,1.009941
2011-09-26T13:24:54.360923,2700,0.121055,-1.664243,0.559294,-0.026491,0.056510,1.014238
2011-09-26T13:24:54.370923,2710,0.117631,-1.596870,0.553533,-0.025216,0.056930,1.018547
2011-09-26T13:24:54.380923,2720,0.114206,-1.529497,0.547771,-0.023940,0.057349,1.022855
2011-09-26T13:24:54.390923,2730,0.110782,-1.462124,0.542009,-0.022664,0.057769,1.027164
2011-09-26T13:24:54.400923,2740,0.107357,-1.394751,0.536247,-0.021389,0.058188,1.031473
2011-09-26T13:24:54.410923,2750,0.103933,-1.327377,0.530485,-0.020113,0.058608,1.035781
2011-09-26T13:24:54.420923,2760,0.100508,-1.260004,0.524723,-0.018837,0.059028,1.040090
2011-09-26T13:24:54.430923,2770,0.097084,-1.192631,0.518961,-0.017562,0.059447,1.044398
2011-09-26T13:24:54.440923,2780,0.093660,-1.125258,0.513199,-0.016286,0.059867,1.048707
2011-09-26T13:24:54.450923,2790,0.090235,-1.057885,0.507437,-0.015010,0.060287,1.053016
2011-09-26T13:24:54.460923,2800,0.112530,-0.937675,0.498204,-0.014216,0.057507,1.051107
2011-09-26T13:24:54.470923,2810,0.135088,-0.816926,0.488936,-0.013426,0.054695,1.049135
2011-09-26T13:24:54.480923,2820,0.157646,-0.696177,0.479668,-0.012636,0.051883,1.047163
2011-09-26T13:24:54.490923,2830,0.180204,-0.575428,0.470400,-0.011846,0.049071,1.045190
2011-09-26T13:24:54.500923,2840,0.202762,-0.454678,0.461131,-0.011056,0.046259,1.043218
2011-09-26T13:24:54.510923,2850,0.225320,-0.333929,0.451863,-0.010266,0.043446,1.041246
2011-09-26T13:24:54.520923,2860,0.247878,-0.213180,0.442595,-0.009477,0.040634,1.039274
2011-09-26T13:24:54.530923,2870,0.270435,-0.092431,0.433327,-0.008687,0.037822,1.037302
2011-09-26T13:24:54.540923,2880,0.292993,0.028319,0.424059,-0.007897,0.035010,1.035330
2011-09-26T13:24:54.550923,2890,0.315551,0.149068,0.414791,-0.007107,0.032198,1.033357
2011-09-26T13:24:54.560923,2900,0.338109,0.269817,0.405523,-0.006317,0.029386,1.031385
2011-09-26T13:24:54.570923,2910,0.379960,0.301855,0.408025,-0.007349,0.030055,1.026313
2011-09-26T13:24:54.580923,2920,0.422185,0.332176,0.410755,-0.008415,0.030792,1.021181
2011-09-26T13:24:54.590923,2930,0.464410,0.362496,0.413485,-0.009482,0.031530,1.016048
2011-09-26T13:24:54.600923,2940,0.506635,0.392817,0.416215,-0.010549,0.032267,1.010916
2011-09-26T13:24:54.610923,2950,0.548860,0.423138,0.418945,-0.011615,0.033004,1.005784
2011-09-26T13:24:54.620923,2960,0.591085,0.453458,0.421675,-0.012682,0.033741,1.000651
2011-09-26T13:24:54.630923,2970,0.633310,0.483779,0.424406,-0.013749,0.034478,0.995519
2011-09-26T13:24:54.640923,2980,0.675535,0.514099,0.427136,-0.014815,0.035215,0.990387
2011-09-26T13:24:54.650923,2990,0.717760,0.544420,0.429866,-0.015882,0.035952,0.985254
2011-09-26T13:24:54.660923,3000,0.759985,0.574740,0.432596,-0.016949,0.036689,0.980122
2011-09-26T13:24:54.670923,3010,0.740636,0.532273,0.435770,-0.017321,0.036079,0.979856
2011-09-26T13:24:54.680923,3020,0.720691,0.489100,0.438949,-0.017687,0.035456,0.979638
2011-09-26T13:24:54.690923,3030,0.700746,0.445928,0.442127,-0.018053,0.034833,0.979420
2011-09-26T13:24:54.700923,3040,0.680801,0.402755,0.445305,-0.018419,0.034210,0.979201
2011-09-26T13:24:54.710923,3050,0.660856,0.359583,0.448484,-0.018785,0.033587,0.978983
2011-09-26T13:24:54.720923,3060,0.640911,0.316410,0.451662,-0.019151,0.032964,0.978764
2011-09-26T13:24:54.730923,3070,0.620966,0.273238,0.454841,-0.019517,0.032341,0.978546
2011-09-26T13:24:54.740923,3080,0.601021,0.230065,0.458019,-0.019883,0.031718,0.978327
2011-09-26T13:24:54.750923,3090,0.581077,0.186893,0.461198,-0.020249,0.031095,0.978109
2011-09-26T13:24:54.760923,3100,0.561132,0.143720,0.464376,-0.020615,0.030472,0.977891
2011-09-26T13:24:54.770923,3110,0.585453,0.084791,0.455080,-0.020724,0.031865,0.978696
2011-09-26T13:24:54.780923,3120,0.611390,0.025287,0.445329,-0.020824,0.033333,0.979539
2011-09-26T13:24:54.790923,3130,0.637327,-0.034217,0.435578,-0.020924,0.034800,0.980382
2011-09-26T13:24:54.800923,3140,0.663264,-0.093721,0.425827,-0.021024,0.036267,0.981224
2011-09-26T13:24:54.810923,3150,0.689200,-0.153225,0.416076,-0.021124,0.037735,0.982067
2011-09-26T13:24:54.820923,3160,0.715137,-0.212729,0.406324,-0.021223,0.039202,0.982910
2011-09-26T13:24:54.830923,3170,0.741074,-0.272233,0.396573,-0.021323,0.040669,0.983753
2011-09-26T13:24:54.840923,3180,0.767011,-0.331736,0.386822,-0.021423,0.042137,0.984596
2011-09-26T13:24:54.850923,3190,0.792948,-0.391240,0.377071,-0.021523,0.043604,0.985438
2011-09-26T13:24:54.860923,3200,0.818884,-0.450744,0.367320,-0.021623,0.045071,0.986281
2011-09-26T13:24:54.870923,3210,0.844821,-0.510248,0.357568,-0.021723,0.046539,0.987124
2011-09-26T13:24:54.880923,3220,0.836992,-0.541884,0.350408,-0.021244,0.045968,0.988236
2011-09-26T13:24:54.890923,3230,0.828757,-0.573184,0.343279,-0.020759,0.045372,0.989351
2011-09-26T13:24:54.900923,3240,0.820521,-0.604485,0.336150,-0.020274,0.044776,0.990467
2011-09-26T13:24:54.910923,3250,0.812286,-0.635785,0.329021,-0.019788,0.044181,0.991582
2011-09-26T13:24:54.920923,3260,0.804051,-0.667085,0.321891,-0.019303,0.043585,0.992697
2011-09-26T13:24:54.930923,3270,0.795815,-0.698386,0.314762,-0.018817,0.042989,0.993813
2011-09-26T13:24:54.940923,3280,0.787580,-0.729686,0.307633,-0.018332,0.042394,0.994928
2011-09-26T13:24:54.950923,3290,0.779345,-0.760986,0.300504,-0.017847,0.041798,0.996043
2011-09-26T13:24:54.960923,3300,0.771109,-0.792287,0.293375,-0.017361,0.041202,0.997159
2011-09-26T13:24:54.970923,3310,0.762874,-0.823587,0.286245,-0.016876,0.040607,0.998274
2011-09-26T13:24:54.980923,3320,0.786738,-0.752679,0.291966,-0.015083,0.041045,1.001446
2011-09-26T13:24:54.990923,3330,0.811088,-0.680226,0.297881,-0.013269,0.041498,1.004649
2011-09-26T13:24:55.000923,3340,0.835437,-0.607773,0.303797,-0.011456,0.041951,1.007852
2011-09-26T13:24:55.010923,3350,0.859787,-0.535320,0.309712,-0.009643,0.042405,1.011055
2011-09-26T13:24:55.020923,3360,0.884136,-0.462867,0.315627,-0.007830,0.042858,1.014258
2011-09-26T13:24:55.030923,3370,0.908486,-0.390414,0.321542,-0.006017,0.043312,1.017462
2011-09-26T13:24:55.040923,3380,0.932835,-0.317961,0.327457,-0.004204,0.043765,1.020665
2011-09-26T13:24:55.050923,3390,0.957185,-0.245508,0.333372,-0.002390,0.044219,1.023868
2011-09-26T13:24:55.060923,3400,0.981534,-0.173055,0.339287,-0.000577,0.044672,1.027071
2011-09-26T13:24:55.070923,3410,1.005884,-0.100602,0.345203,0.001236,0.045126,1.030274
2011-09-26T13:24:55.080923,3420,0.990079,0.171609,0.343031,0.000839,0.047997,1.024987
2011-09-26T13:24:55.090923,3430,0.973801,0.446179,0.340764,0.000416,0.050897,1.019600
2011-09-26T13:24:55.100923,3440,0.957523,0.720749,0.338497,-0.000007,0.053797,1.014213
2011-09-26T13:24:55.110923,3450,0.941244,0.995319,0.336229,-0.000431,0.056697,1.008826
2011-09-26T13:24:55.120923,3460,0.924966,1.269889,0.333962,-0.000854,0.059597,1.003439
2011-09-26T13:24:55.130923,3470,0.908687,1.544459,0.331695,-0.001277,0.062497,0.998052
2011-09-26T13:24:55.140923,3480,0.892409,1.819028,0.329428,-0.001700,0.065397,0.992665
2011-09-26T13:24:55.150923,3490,0.876130,2.093598,0.327161,-0.002123,0.068297,0.987278
2011-09-26T13:24:55.160923,3500,0.859852,2.368168,0.324894,-0.002546,0.071197,0.981891
2011-09-26T13:24:55.170923,3510,0.843573,2.642738,0.322626,-0.002969,0.074097,0.976504
2011-09-26T13:24:55.180923,3520,0.827295,2.917308,0.320359,-0.003392,0.076997,0.971117
2011-09-26T13:24:55.190923,3530,0.880937,2.850092,0.302625,-0.005493,0.074404,0.965040
2011-09-26T13:24:55.200923,3540,0.935558,2.778096,0.284675,-0.007617,0.071735,0.958953
2011-09-26T13:24:55.210923,3550,0.990179,2.706100,0.266725,-0.009741,0.069065,0.952866
2011-09-26T13:24:55.220923,3560,1.044799,2.634104,0.248775,-0.011865,0.066395,0.946779
2011-09-26T13:24:55.230923,3570,1.099420,2.562108,0.230825,-0.013989,0.063725,0.940692
2011-09-26T13:24:55.240923,3580,1.154040,2.490112,0.212874,-0.016113,0.061055,0.934606
2011-09-26T13:24:55.250923,3590,1.208661,2.418116,0.194924,-0.018237,0.058386,0.928519
2011-09-26T13:24:55.260923,3600,1.263282,2.346119,0.176974,-0.020361,0.055716,0.922432
2011-09-26T13:24:55.270923,3610,1.317902,2.274123,0.159024,-0.022485,0.053046,0.916345
2011-09-26T13:24:55.280923,3620,1.372523,2.202127,0.141074,-0.024609,0.050376,0.910258
2011-09-26T13:24:55.290923,3630,1.214079,1.938891,0.150268,-0.025096,0.050195,0.912364
2011-09-26T13:24:55.300923,3640,1.046550,1.667502,0.160619,-0.025513,0.050119,0.914818
2011-09-26T13:24:55.310923,3650,0.879021,1.396112,0.170971,-0.025930,0.050044,0.917273
2011-09-26T13:24:55.320923,3660,0.711493,1.124722,0.181322,-0.026347,0.049969,0.919728
2011-09-26T13:24:55.330923,3670,0.543964,0.853333,0.191674,-0.026764,0.049893,0.922183
2011-09-26T13:24:55.340923,3680,0.376435,0.581943,0.202025,-0.027181,0.049818,0.924638
2011-09-26T13:24:55.350923,3690,0.208907,0.310553,0.212377,-0.027598,0.049742,0.927092
2011-09-26T13:24:55.360923,3700,0.041378,0.039163,0.222729,-0.028015,0.049667,0.929547
2011-09-26T13:24:55.370923,3710,-0.126151,-0.232226,0.233080,-0.028432,0.049591,0.932002
2011-09-26T13:24:55.380923,3720,-0.293679,-0.503616,0.243432,-0.028849,0.049516,0.934457
2011-09-26T13:24:55.390923,3730,-0.210111,-0.573586,0.239842,-0.027189,0.050413,0.943657
2011-09-26T13:24:55.400923,3740,-0.122804,-0.640557,0.236046,-0.025497,0.051325,0.952957
2011-09-26T13:24:55.410923,3750,-0.035496,-0.707528,0.232249,-0.023805,0.052238,0.962257
2011-09-26T13:24:55.420923,3760,0.051811,-0.774499,0.228452,-0.022114,0.053150,0.971557
2011-09-26T13:24:55.430923,3770,0.139118,-0.841470,0.224656,-0.020422,0.054062,0.980857
2011-09-26T13:24:55.440923,3780,0.226426,-0.908441,0.220859,-0.018730,0.054974,0.990158
2011-09-26T13:24:55.450923,3790,0.313733,-0.975412,0.217062,-0.017039,0.055886,0.999458
2011-09-26T13:24:55.460923,3800,0.401040,-1.042383,0.213266,-0.015347,0.056798,1.008758
2011-09-26T13:24:55.470923,3810,0.488348,-1.109354,0.209469,-0.013656,0.057710,1.018058
2011-09-26T13:24:55.480923,3820,0.575655,-1.176325,0.205673,-0.011964,0.058622,1.027358
2011-09-26T13:24:55.490923,3830,0.662962,-1.243296,0.201876,-0.010272,0.059534,1.036659
2011-09-26T13:24:55.500923,3840,0.590295,-1.176550,0.199413,-0.009522,0.059104,1.035782
2011-09-26T13:24:55.510923,3850,0.515224,-1.107796,0.196971,-0.008786,0.058654,1.034752
2011-09-26T13:24:55.520923,3860,0.440154,-1.039042,0.194529,-0.008049,0.058203,1.033722
2011-09-26T13:24:55.530923,3870,0.365084,-0.970287,0.192087,-0.007313,0.057753,1.032692
2011-09-26T13:24:55.540923,3880,0.290013,-0.901533,0.189644,-0.006577,0.057303,1.031663
2011-09-26T13:24:55.550923,3890,0.214943,-0.832779,0.187202,-0.005841,0.056853,1.030633
2011-09-26T13:24:55.560923,3900,0.139873,-0.764025,0.184760,-0.005104,0.056403,1.029603
2011-09-26T13:24:55.570923,3910,0.064803,-0.695271,0.182317,-0.004368,0.055952,1.028573
2011-09-26T13:24:55.580923,3920,-0.010268,-0.626517,0.179875,-0.003632,0.055502,1.027544
2011-09-26T13:24:55.590923,3930,-0.085338,-0.557763,0.177433,-0.002896,0.055052,1.026514
2011-09-26T13:24:55.600923,3940,-0.103458,-0.448272,0.176075,-0.003629,0.053906,1.023508
2011-09-26T13:24:55.610923,3950,-0.120616,-0.338094,0.174736,-0.004387,0.052747,1.020469
2011-09-26T13:24:55.620923,3960,-0.137775,-0.227915,0.173396,-0.005145,0.051589,1.017430
2011-09-26T13:24:55.630923,3970,-0.154933,-0.117737,0.172057,-0.005903,0.050430,1.014391
2011-09-26T13:24:55.640923,3980,-0.172091,-0.007558,0.170717,-0.006662,0.049272,1.011352
2011-09-26T13:24:55.650923,3990,-0.189250,0.102620,0.169378,-0.007420,0.048114,1.008312
2011-09-26T13:24:55.660923,4000,-0.206408,0.212799,0.168038,-0.008178,0.046955,1.005273
2011-09-26T13:24:55.670923,4010,-0.223566,0.322977,0.166699,-0.008936,0.045797,1.002234
2011-09-26T13:24:55.680923,4020,-0.240725,0.433156,0.165360,-0.009694,0.044639,0.999195
2011-09-26T13:24:55.690923,4030,-0.257883,0.543334,0.164020,-0.010452,0.043480,0.996156
2011-09-26T13:24:55.700923,4040,-0.275041,0.653513,0.162681,-0.011211,0.042322,0.993117
2011-09-26T13:24:55.710923,4050,-0.224178,0.796578,0.160305,-0.010712,0.046485,0.990902
2011-09-26T13:24:55.720923,4060,-0.172159,0.940201,0.157912,-0.010192,0.050738,0.988700
2011-09-26T13:24:55.730923,4070,-0.120140,1.083824,0.155519,-0.009672,0.054991,0.986499
2011-09-26T13:24:55.740923,4080,-0.068121,1.227447,0.153126,-0.009152,0.059244,0.984298
2011-09-26T13:24:55.750923,4090,-0.016102,1.371070,0.150733,-0.008632,0.063497,0.982097
2011-09-26T13:24:55.760923,4100,0.035917,1.514693,0.148340,-0.008112,0.067750,0.979895
2011-09-26T13:24:55.770923,4110,0.087936,1.658317,0.145946,-0.007592,0.072003,0.977694
2011-09-26T13:24:55.780923,4120,0.139955,1.801940,0.143553,-0.007072,0.076256,0.975493
2011-09-26T13:24:55.790923,4130,0.191973,1.945563,0.141160,-0.006552,0.080509,0.973292
2011-09-26T13:24:55.800923,4140,0.243992,2.089186,0.138767,-0.006032,0.084762,0.971090
2011-09-26T13:24:55.810923,4150,0.234998,2.090280,0.139675,-0.010043,0.080991,0.968808
2011-09-26T13:24:55.820923,4160,0.224709,2.088346,0.140653,-0.014150,0.077049,0.966524
2011-09-26T13:24:55.830923,4170,0.214419,2.086411,0.141630,-0.018258,0.073107,0.964239
2011-09-26T13:24:55.840923,4180,0.204129,2.084477,0.142608,-0.022365,0.069165,0.961955
2011-09-26T13:24:55.850923,4190,0.193839,2.082543,0.143586,-0.026473,0.065223,0.959671
2011-09-26T13:24:55.860923,4200,0.183549,2.080609,0.144564,-0.030580,0.061281,0.957386
2011-09-26T13:24:55.870923,4210,0.173259,2.078674,0.145542,-0.034688,0.057339,0.955102
2011-09-26T13:24:55.880923,4220,0.162969,2.076740,0.146519,-0.038795,0.053397,0.952818
2011-09-26T13:24:55.890923,4230,0.152679,2.074806,0.147497,-0.042903,0.049455,0.950534
2011-09-26T13:24:55.900923,4240,0.142389,2.072872,0.148475,-0.047010,0.045513,0.948249
2011-09-26T13:24:55.910923,4250,0.149306,1.881100,0.157321,-0.047425,0.045606,0.946993
2011-09-26T13:24:55.920923,4260,0.156523,1.686008,0.166304,-0.047775,0.045770,0.945755
2011-09-26T13:24:55.930923,4270,0.163741,1.490916,0.175287,-0.048124,0.045934,0.944516
2011-09-26T13:24:55.940923,4280,0.170958,1.295825,0.184271,-0.048474,0.046098,0.943278
2011-09-26T13:24:55.950923,4290,0.178175,1.100733,0.193254,-0.048824,0.046262,0.942040
2011-09-26T13:24:55.960923,4300,0.185393,0.905641,0.202237,-0.049174,0.046426,0.940801
2011-09-26T13:24:55.970923,4310,0.192610,0.710549,0.211221,-0.049524,0.046590,0.939563
2011-09-26T13:24:55.980923,4320,0.199827,0.515457,0.220204,-0.049873,0.046754,0.938324
2011-09-26T13:24:55.990923,4330,0.207045,0.320366,0.229187,-0.050223,0.046918,0.937086
2011-09-26T13:24:56.000923,4340,0.214262,0.125274,0.238171,-0.050573,0.047082,0.935848
2011-09-26T13:24:56.010923,4350,0.221480,-0.069818,0.247154,-0.050923,0.047246,0.934609
2011-09-26T13:24:56.020923,4360,0.069022,-0.151510,0.246362,-0.054827,0.049703,0.933456
2011-09-26T13:24:56.030923,4370,-0.085946,-0.231419,0.245416,-0.058787,0.052197,0.932304
2011-09-26T13:24:56.040923,4380,-0.240914,-0.311328,0.244470,-0.062747,0.054690,0.931152
2011-09-26T13:24:56.050923,4390,-0.395882,-0.391237,0.243524,-0.066707,0.057184,0.930000
2011-09-26T13:24:56.060923,4400,-0.550850,-0.471146,0.242578,-0.070668,0.059677,0.928848
2011-09-26T13:24:56.070923,4410,-0.705818,-0.551055,0.241632,-0.074628,0.062171,0.927696
2011-09-26T13:24:56.080923,4420,-0.860786,-0.630964,0.240686,-0.078588,0.064664,0.926544
2011-09-26T13:24:56.090923,4430,-1.015754,-0.710873,0.239740,-0.082548,0.067158,0.925392
2011-09-26T13:24:56.100923,4440,-1.170722,-0.790782,0.238794,-0.086508,0.069651,0.924240
2011-09-26T13:24:56.110923,4450,-1.325690,-0.870691,0.237848,-0.090468,0.072145,0.923088
2011-09-26T13:24:56.120923,4460,-1.275947,-1.094250,0.240535,-0.085139,0.072376,0.939169
2011-09-26T13:24:56.130923,4470,-1.221898,-1.320832,0.243298,-0.079614,0.072560,0.955614
2011-09-26T13:24:56.140923,4480,-1.167848,-1.547414,0.246062,-0.074089,0.072744,0.972058
2011-09-26T13:24:56.150923,4490,-1.113798,-1.773996,0.248825,-0.068564,0.072928,0.988503
2011-09-26T13:24:56.160923,4500,-1.059749,-2.000578,0.251589,-0.063038,0.073112,1.004947
2011-09-26T13:24:56.170923,4510,-1.005699,-2.227160,0.254352,-0.057513,0.073296,1.021392
2011-09-26T13:24:56.180923,4520,-0.951649,-2.453741,0.257116,-0.051988,0.073480,1.037836
2011-09-26T13:24:56.190923,4530,-0.897600,-2.680323,0.259879,-0.046463,0.073664,1.054281
2011-09-26T13:24:56.200923,4540,-0.843550,-2.906905,0.262642,-0.040938,0.073847,1.070725
2011-09-26T13:24:56.210923,4550,-0.789500,-3.133487,0.265406,-0.035413,0.074031,1.087170
2011-09-26T13:24:56.220923,4560,-0.788912,-2.991254,0.275312,-0.033483,0.073398,1.089410
2011-09-26T13:24:56.230923,4570,-0.790481,-2.834136,0.285506,-0.031698,0.072732,1.091078
2011-09-26T13:24:56.240923,4580,-0.792050,-2.677019,0.295701,-0.029913,0.072065,1.092745
2011-09-26T13:24:56.250923,4590,-0.793619,-2.519901,0.305895,-0.028128,0.071399,1.094412
2011-09-26T13:24:56.260923,4600,-0.795189,-2.362783,0.316089,-0.026343,0.070733,1.096080
2011-09-26T13:24:56.270923,4610,-0.796758,-2.205665,0.326284,-0.024558,0.070066,1.097747
2011-09-26T13:24:56.280923,4620,-0.798327,-2.048547,0.336478,-0.022773,0.069400,1.099414
2011-09-26T13:24:56.290923,4630,-0.799896,-1.891429,0.346672,-0.020988,0.068734,1.101082
2011-09-26T13:24:56.300923,4640,-0.801466,-1.734311,0.356867,-0.019203,0.068067,1.102749
2011-09-26T13:24:56.310923,4650,-0.803035,-1.577194,0.367061,-0.017418,0.067401,1.104416
2011-09-26T13:24:56.320923,4660,-0.804604,-1.420076,0.377255,-0.015633,0.066734,1.106084
2011-09-26T13:24:56.330923,4670,-0.771312,-1.220361,0.395975,-0.016483,0.063609,1.094399
2011-09-26T13:24:56.340923,4680,-0.737062,-1.019477,0.414928,-0.017406,0.060415,1.082348
2011-09-26T13:24:56.350923,4690,-0.702813,-0.818593,0.433882,-0.018329,0.057222,1.070297
2011-09-26T13:24:56.360923,4700,-0.668564,-0.617709,0.452835,-0.019252,0.054029,1.058247
2011-09-26T13:24:56.370923,4710,-0.634314,-0.416825,0.471789,-0.020175,0.050835,1.046196
2011-09-26T13:24:56.380923,4720,-0.600065,-0.215941,0.490742,-0.021098,0.047642,1.034145
2011-09-26T13:24:56.390923,4730,-0.565816,-0.015057,0.509696,-0.022021,0.044449,1.022094
2011-09-26T13:24:56.400923,4740,-0.531567,0.185827,0.528649,-0.022944,0.041256,1.010043
2011-09-26T13:24:56.410923,4750,-0.497317,0.386711,0.547603,-0.023867,0.038062,0.997992
2011-09-26T13:24:56.420923,4760,-0.463068,0.587595,0.566556,-0.024789,0.034869,0.985941
2011-09-26T13:24:56.430923,4770,-0.365772,0.650589,0.571808,-0.025262,0.036397,0.986606
2011-09-26T13:24:56.440923,4780,-0.267123,0.710627,0.576767,-0.025725,0.038026,0.987544
2011-09-26T13:24:56.450923,4790,-0.168475,0.770664,0.581726,-0.026188,0.039655,0.988481
2011-09-26T13:24:56.460923,4800,-0.069826,0.830701,0.586684,-0.026651,0.041284,0.989418
2011-09-26T13:24:56.470923,4810,0.028823,0.890739,0.591643,-0.027114,0.042913,0.990356
2011-09-26T13:24:56.480923,4820,0.127471,0.950776,0.596602,-0.027577,0.044543,0.991293
2011-09-26T13:24:56.490923,4830,0.226120,1.010813,0.601560,-0.028040,0.046172,0.992231
2011-09-26T13:24:56.500923,4840,0.324768,1.070851,0.606519,-0.028503,0.047801,0.993168
2011-09-26T13:24:56.510923,4850,0.423417,1.130888,0.611477,-0.028966,0.049430,0.994105
2011-09-26T13:24:56.520923,4860,0.522066,1.190925,0.616436,-0.029429,0.051059,0.995043
2011-09-26T13:24:56.530923,4870,0.497722,1.244885,0.632282,-0.031031,0.051921,0.990572
2011-09-26T13:24:56.540923,4880,0.470537,1.298704,0.648380,-0.032660,0.052764,0.985977
2011-09-26T13:24:56.550923,4890,0.443352,1.352523,0.664478,-0.034288,0.053608,0.981382
2011-09-26T13:24:56.560923,4900,0.416167,1.406342,0.680576,-0.035917,0.054452,0.976787
2011-09-26T13:24:56.570923,4910,0.388982,1.460161,0.696674,-0.037545,0.055295,0.972191
2011-09-26T13:24:56.580923,4920,0.361797,1.513980,0.712772,-0.039174,0.056139,0.967596
2011-09-26T13:24:56.590923,4930,0.334612,1.567799,0.728870,-0.040802,0.056983,0.963001
2011-09-26T13:24:56.600923,4940,0.307427,1.621618,0.744968,-0.042431,0.057826,0.958405
2011-09-26T13:24:56.610923,4950,0.280242,1.675437,0.761065,-0.044059,0.058670,0.953810
2011-09-26T13:24:56.620923,4960,0.253057,1.729256,0.777163,-0.045688,0.059514,0.949215
2011-09-26T13:24:56.630923,4970,0.225872,1.783075,0.793261,-0.047317,0.060357,0.944619
2011-09-26T13:24:56.640923,4980,0.275760,1.658007,0.801123,-0.047997,0.060676,0.946020
2011-09-26T13:24:56.650923,4990,0.327068,1.529643,0.808833,-0.048661,0.060984,0.947531
2011-09-26T13:24:56.660923,5000,0.378376,1.401280,0.816542,-0.049324,0.061292,0.949041
2011-09-26T13:24:56.670923,5010,0.429684,1.272916,0.824252,-0.049987,0.061601,0.950552
2011-09-26T13:24:56.680923,5020,0.480992,1.144553,0.831962,-0.050651,0.061909,0.952063
2011-09-26T13:24:56.690923,5030,0.532300,1.016189,0.839672,-0.051314,0.062217,0.953574
2011-09-26T13:24:56.700923,5040,0.583608,0.887826,0.847382,-0.051977,0.062526,0.955085
2011-09-26T13:24:56.710923,5050,0.634916,0.759462,0.855092,-0.052641,0.062834,0.956596
2011-09-26T13:24:56.720923,5060,0.686224,0.631099,0.862801,-0.053304,0.063143,0.958106
2011-09-26T13:24:56.730923,5070,0.737532,0.502735,0.870511,-0.053967,0.063451,0.959617
2011-09-26T13:24:56.740923,5080,0.671516,0.436539,0.864951,-0.053029,0.064316,0.964662
2011-09-26T13:24:56.750923,5090,0.602075,0.372158,0.859004,-0.052044,0.065196,0.969810
2011-09-26T13:24:56.760923,5100,0.532633,0.307777,0.853056,-0.051058,0.066077,0.974958
2011-09-26T13:24:56.770923,5110,0.463192,0.243395,0.847109,-0.050073,0.066958,0.980105
2011-09-26T13:24:56.780923,5120,0.393751,0.179014,0.841161,-0.049088,0.067839,0.985253
2011-09-26T13:24:56.790923,5130,0.324309,0.114633,0.835214,-0.048103,0.068720,0.990401
2011-09-26T13:24:56.800923,5140,0.254868,0.050252,0.829266,-0.047117,0.069601,0.995549
2011-09-26T13:24:56.810923,5150,0.185426,-0.014130,0.823319,-0.046132,0.070482,1.000697
2011-09-26T13:24:56.820923,5160,0.115985,-0.078511,0.817372,-0.045147,0.071363,1.005845
2011-09-26T13:24:56.830923,5170,0.046543,-0.142892,0.811424,-0.044162,0.072244,1.010992
2011-09-26T13:24:56.840923,5180,0.013245,-0.077031,0.826779,-0.044275,0.071532,1.010947
2011-09-26T13:24:56.850923,5190,-0.018904,-0.007029,0.842811,-0.044422,0.070770,1.010737
2011-09-26T13:24:56.860923,5200,-0.051053,0.062972,0.858844,-0.044570,0.070009,1.010526
2011-09-26T13:24:56.870923,5210,-0.083203,0.132974,0.874876,-0.044718,0.069247,1.010316
2011-09-26T13:24:56.880923,5220,-0.115352,0.202975,0.890908,-0.044866,0.068485,1.010106
2011-09-26T13:24:56.890923,5230,-0.147501,0.272977,0.906940,-0.045014,0.067723,1.009895
2011-09-26T13:24:56.900923,5240,-0.179650,0.342978,0.922972,-0.045161,0.066961,1.009685
2011-09-26T13:24:56.910923,5250,-0.211799,0.412980,0.939005,-0.045309,0.066199,1.009474
2011-09-26T13:24:56.920923,5260,-0.243948,0.482981,0.955037,-0.045457,0.065437,1.009264
2011-09-26T13:24:56.930923,5270,-0.276098,0.552983,0.971069,-0.045605,0.064676,1.009054
2011-09-26T13:24:56.940923,5280,-0.308247,0.622984,0.987101,-0.045752,0.063914,1.008843
2011-09-26T13:24:56.950923,5290,-0.275833,0.639338,0.997252,-0.046167,0.064327,1.005622
2011-09-26T13:24:56.960923,5300,-0.241873,0.654406,1.007262,-0.046588,0.064769,1.002328
2011-09-26T13:24:56.970923,5310,-0.207912,0.669475,1.017273,-0.047009,0.065211,0.999034
2011-09-26T13:24:56.980923,5320,-0.173952,0.684543,1.027283,-0.047430,0.065653,0.995740
2011-09-26T13:24:56.990923,5330,-0.139992,0.699612,1.037293,-0.047851,0.066094,0.992447
2011-09-26T13:24:57.000923,5340,-0.106032,0.714680,1.047303,-0.048273,0.066536,0.989153
2011-09-26T13:24:57.010923,5350,-0.072072,0.729749,1.057313,-0.048694,0.066978,0.985859
2011-09-26T13:24:57.020923,5360,-0.038111,0.744817,1.067323,-0.049115,0.067420,0.982566
2011-09-26T13:24:57.030923,5370,-0.004151,0.759886,1.077333,-0.049536,0.067862,0.979272
2011-09-26T13:24:57.040923,5380,0.029809,0.774955,1.087344,-0.049957,0.068303,0.975978
2011-09-26T13:24:57.050923,5390,0.076165,0.778878,1.095958,-0.049528,0.068323,0.976308
2011-09-26T13:24:57.060923,5400,0.122807,0.782545,1.104539,-0.049078,0.068332,0.976722
2011-09-26T13:24:57.070923,5410,0.169449,0.786211,1.113121,-0.048629,0.068341,0.977136
2011-09-26T13:24:57.080923,5420,0.216091,0.789877,1.121703,-0.048180,0.068351,0.977549
2011-09-26T13:24:57.090923,5430,0.262734,0.793544,1.130285,-0.047731,0.068360,0.977963
2011-09-26T13:24:57.100923,5440,0.309376,0.797210,1.138867,-0.047282,0.068370,0.978377
2011-09-26T13:24:57.110923,5450,0.356018,0.800876,1.147448,-0.046833,0.068379,0.978791
2011-09-26T13:24:57.120923,5460,0.402660,0.804543,1.156030,-0.046384,0.068389,0.979204
2011-09-26T13:24:57.130923,5470,0.449302,0.808209,1.164612,-0.045935,0.068398,0.979618
2011-09-26T13:24:57.140923,5480,0.495945,0.811875,1.173194,-0.045486,0.068407,0.980032
2011-09-26T13:24:57.150923,5490,0.542587,0.815541,1.181776,-0.045037,0.068417,0.980446
2011-09-26T13:24:57.160923,5500,0.556526,0.840525,1.195984,-0.045641,0.069046,0.978164
2011-09-26T13:24:57.170923,5510,0.569702,0.866006,1.210323,-0.046269,0.069689,0.975819
2011-09-26T13:24:57.180923,5520,0.582879,0.891486,1.224662,-0.046897,0.070333,0.973474
2011-09-26T13:24:57.190923,5530,0.596056,0.916966,1.239001,-0.047525,0.070976,0.971130
2011-09-26T13:24:57.200923,5540,0.609232,0.942447,1.253340,-0.048152,0.071620,0.968785
2011-09-26T13:24:57.210923,5550,0.622409,0.967927,1.267679,-0.048780,0.072263,0.966440
2011-09-26T13:24:57.220923,5560,0.635585,0.993408,1.282018,-0.049408,0.072906,0.964096
2011-09-26T13:24:57.230923,5570,0.648762,1.018888,1.296357,-0.050036,0.073550,0.961751
2011-09-26T13:24:57.240923,5580,0.661939,1.044369,1.310696,-0.050664,0.074193,0.959406
2011-09-26T13:24:57.250923,5590,0.675115,1.069849,1.325035,-0.051292,0.074837,0.957062
2011-09-26T13:24:57.260923,5600,0.602745,0.975263,1.342584,-0.051358,0.077340,0.957923
2011-09-26T13:24:57.270923,5610,0.526316,0.874981,1.360286,-0.051398,0.079932,0.958935
2011-09-26T13:24:57.280923,5620,0.449887,0.774699,1.377988,-0.051438,0.082524,0.959948
2011-09-26T13:24:57.290923,5630,0.373459,0.674416,1.395690,-0.051477,0.085116,0.960961
2011-09-26T13:24:57.300923,5640,0.297030,0.574134,1.413392,-0.051517,0.087708,0.961974
2011-09-26T13:24:57.310923,5650,0.220601,0.473852,1.431094,-0.051557,0.090300,0.962987
2011-09-26T13:24:57.320923,5660,0.144173,0.373570,1.448796,-0.051596,0.092891,0.964000
2011-09-26T13:24:57.330923,5670,0.067744,0.273288,1.466498,-0.051636,0.095483,0.965013
2011-09-26T13:24:57.340923,5680,-0.008685,0.173006,1.484200,-0.051675,0.098075,0.966026
2011-09-26T13:24:57.350923,5690,-0.085113,0.072724,1.501902,-0.051715,0.100667,0.967039
2011-09-26T13:24:57.360923,5700,-0.064050,0.045998,1.504587,-0.050988,0.100837,0.970065
2011-09-26T13:24:57.370923,5710,-0.040672,0.021019,1.506916,-0.050242,0.100949,0.973138
2011-09-26T13:24:57.380923,5720,-0.017295,-0.003960,1.509245,-0.049497,0.101061,0.976211
2011-09-26T13:24:57.390923,5730,0.006083,-0.028939,1.511574,-0.048751,0.101173,0.979284
2011-09-26T13:24:57.400923,5740,0.029461,-0.053918,1.513902,-0.048006,0.101286,0.982357
2011-09-26T13:24:57.410923,5750,0.052839,-0.078897,1.516231,-0.047260,0.101398,0.985430
2011-09-26T13:24:57.420923,5760,0.076216,-0.103876,1.518560,-0.046515,0.101510,0.988503
2011-09-26T13:24:57.430923,5770,0.099594,-0.128855,1.520889,-0.045770,0.101622,0.991576
2011-09-26T13:24:57.440923,5780,0.122972,-0.153834,1.523218,-0.045024,0.101734,0.994649
2011-09-26T13:24:57.450923,5790,0.146350,-0.178813,1.525547,-0.044279,0.101847,0.997722
2011-09-26T13:24:57.460923,5800,0.169728,-0.203792,1.527876,-0.043533,0.101959,1.000795
2011-09-26T13:24:57.470923,5810,0.158976,-0.214200,1.542217,-0.042863,0.099930,1.003328
2011-09-26T13:24:57.480923,5820,0.147307,-0.224216,1.556882,-0.042195,0.097843,1.005846
2011-09-26T13:24:57.490923,5830,0.135637,-0.234231,1.571547,-0.041527,0.095756,1.008365
2011-09-26T13:24:57.500923,5840,0.123967,-0.244247,1.586212,-0.040860,0.093669,1.010883
2011-09-26T13:24:57.510923,5850,0.112298,-0.254263,1.600876,-0.040192,0.091582,1.013402
2011-09-26T13:24:57.520923,5860,0.100628,-0.264278,1.615541,-0.039524,0.089495,1.015920
2011-09-26T13:24:57.530923,5870,0.088959,-0.274294,1.630206,-0.038856,0.087408,1.018439
2011-09-26T13:24:57.540923,5880,0.077289,-0.284310,1.644871,-0.038188,0.085321,1.020957
2011-09-26T13:24:57.550923,5890,0.065620,-0.294326,1.659536,-0.037520,0.083234,1.023476
2011-09-26T13:24:57.560923,5900,0.053950,-0.304341,1.674201,-0.036852,0.081147,1.025994
2011-09-26T13:24:57.570923,5910,0.105897,-0.270015,1.696892,-0.037890,0.081476,1.023521
2011-09-26T13:24:57.580923,5920,0.159608,-0.234458,1.719805,-0.038975,0.081872,1.020908
2011-09-26T13:24:57.590923,5930,0.213320,-0.198902,1.742719,-0.040059,0.082268,1.018296
2011-09-26T13:24:57.600923,5940,0.267031,-0.163346,1.765632,-0.041144,0.082665,1.015684
2011-09-26T13:24:57.610923,5950,0.320742,-0.127790,1.788546,-0.042229,0.083061,1.013072
2011-09-26T13:24:57.620923,5960,0.374453,-0.092233,1.811459,-0.043314,0.083457,1.010460
2011-09-26T13:24:57.630923,5970,0.428164,-0.056677,1.834373,-0.044398,0.083853,1.007848
2011-09-26T13:24:57.640923,5980,0.481875,-0.021121,1.857286,-0.045483,0.084249,1.005236
2011-09-26T13:24:57.650923,5990,0.535586,0.014435,1.880200,-0.046568,0.084645,1.002624
2011-09-26T13:24:57.660923,6000,0.589298,0.049992,1.903113,-0.047653,0.085041,1.000012
2011-09-26T13:24:57.670923,6010,0.614292,0.090031,1.917708,-0.049143,0.086979,0.997939
2011-09-26T13:24:57.680923,6020,0.638502,0.130192,1.932076,-0.050644,0.088959,0.995882
2011-09-26T13:24:57.690923,6030,0.662712,0.170353,1.946443,-0.052145,0.090939,0.993824
2011-09-26T13:24:57.700923,6040,0.686922,0.210515,1.960810,-0.053646,0.092919,0.991766
2011-09-26T13:24:57.710923,6050,0.711132,0.250676,1.975178,-0.055146,0.094899,0.989708
2011-09-26T13:24:57.720923,6060,0.735342,0.290837,1.989545,-0.056647,0.096879,0.987651
2011-09-26T13:24:57.730923,6070,0.759552,0.330999,2.003913,-0.058148,0.098859,0.985593
2011-09-26T13:24:57.740923,6080,0.783762,0.371160,2.018280,-0.059649,0.100839,0.983535
2011-09-26T13:24:57.750923,6090,0.807972,0.411321,2.032648,-0.061150,0.102819,0.981477
2011-09-26T13:24:57.760923,6100,0.832182,0.451483,2.047015,-0.062651,0.104799,0.979420
2011-09-26T13:24:57.770923,6110,0.856392,0.491644,2.061383,-0.064152,0.106779,0.977362
2011-09-26T13:24:57.780923,6120,0.834539,0.492010,2.071599,-0.065353,0.107564,0.978631
2011-09-26T13:24:57.790923,6130,0.809833,0.489912,2.081559,-0.066535,0.108275,0.980106
2011-09-26T13:24:57.800923,6140,0.785128,0.487815,2.091518,-0.067717,0.108986,0.981581
2011-09-26T13:24:57.810923,6150,0.760422,0.485717,2.101478,-0.068898,0.109698,0.983056
2011-09-26T13:24:57.820923,6160,0.735717,0.483619,2.111437,-0.070080,0.110409,0.984531
2011-09-26T13:24:57.830923,6170,0.711012,0.481522,2.121397,-0.071262,0.111120,0.986006
2011-09-26T13:24:57.840923,6180,0.686306,0.479424,2.131356,-0.072444,0.111831,0.987481
2011-09-26T13:24:57.850923,6190,0.661601,0.477326,2.141316,-0.073626,0.112543,0.988956
2011-09-26T13:24:57.860923,6200,0.636895,0.475229,2.151276,-0.074808,0.113254,0.990431
2011-09-26T13:24:57.870923,6210,0.612190,0.473131,2.161235,-0.075990,0.113965,0.991906
2011-09-26T13:24:57.880923,6220,0.512995,0.497531,2.182124,-0.077677,0.115345,0.991291
2011-09-26T13:24:57.890923,6230,0.411780,0.522649,2.203309,-0.079378,0.116744,0.990619
2011-09-26T13:24:57.900923,6240,0.310566,0.547767,2.224494,-0.081079,0.118142,0.989948
2011-09-26T13:24:57.910923,6250,0.209351,0.572886,2.245679,-0.082780,0.119540,0.989276
2011-09-26T13:24:57.920923,6260,0.108136,0.598004,2.266864,-0.084481,0.120939,0.988604
2011-09-26T13:24:57.930923,6270,0.006922,0.623122,2.288050,-0.086182,0.122337,0.987932
2011-09-26T13:24:57.940923,6280,-0.094293,0.648241,2.309235,-0.087883,0.123735,0.987260
2011-09-26T13:24:57.950923,6290,-0.195507,0.673359,2.330420,-0.089584,0.125134,0.986588
2011-09-26T13:24:57.960923,6300,-0.296722,0.698477,2.351605,-0.091285,0.126532,0.985917
2011-09-26T13:24:57.970923,6310,-0.397936,0.723595,2.372790,-0.092986,0.127930,0.985245
2011-09-26T13:24:57.980923,6320,-0.401236,0.673296,2.390309,-0.095514,0.128289,0.983417
2011-09-26T13:24:57.990923,6330,-0.401881,0.620951,2.407729,-0.098065,0.128619,0.981558
2011-09-26T13:24:58.000923,6340,-0.402527,0.568607,2.425149,-0.100615,0.128949,0.979698
2011-09-26T13:24:58.010923,6350,-0.403172,0.516263,2.442569,-0.103165,0.129280,0.977839
2011-09-26T13:24:58.020923,6360,-0.403818,0.463919,2.459989,-0.105716,0.129610,0.975980
2011-09-26T13:24:58.030923,6370,-0.404463,0.411575,2.477409,-0.108266,0.129940,0.974120
2011-09-26T13:24:58.040923,6380,-0.405109,0.359231,2.494829,-0.110817,0.130271,0.972261
2011-09-26T13:24:58.050923,6390,-0.405754,0.306887,2.512249,-0.113367,0.130601,0.970402
2011-09-26T13:24:58.060923,6400,-0.406400,0.254543,2.529669,-0.115917,0.130931,0.968542
2011-09-26T13:24:58.070923,6410,-0.407045,0.202198,2.547089,-0.118468,0.131261,0.966683
2011-09-26T13:24:58.080923,6420,-0.407691,0.149854,2.564509,-0.121018,0.131592,0.964824
2011-09-26T13:24:58.090923,6430,-0.430034,0.039733,2.573897,-0.120703,0.131078,0.968837
2011-09-26T13:24:58.100923,6440,-0.452962,-0.071949,2.583069,-0.120311,0.130541,0.973009
2011-09-26T13:24:58.110923,6450,-0.475891,-0.183630,2.592240,-0.119919,0.130004,0.977181
2011-09-26T13:24:58.120923,6460,-0.498820,-0.295312,2.601411,-0.119526,0.129467,0.981353
2011-09-26T13:24:58.130923,6470,-0.521748,-0.406993,2.610582,-0.119134,0.128930,0.985525
2011-09-26T13:24:58.140923,6480,-0.544677,-0.518675,2.619754,-0.118742,0.128393,0.989697
2011-09-26T13:24:58.150923,6490,-0.567606,-0.630356,2.628925,-0.118349,0.127856,0.993869
2011-09-26T13:24:58.160923,6500,-0.590534,-0.742038,2.638096,-0.117957,0.127319,0.998041
2011-09-26T13:24:58.170923,6510,-0.613463,-0.853720,2.647267,-0.117565,0.126782,1.002212
2011-09-26T13:24:58.180923,6520,-0.636392,-0.965401,2.656438,-0.117172,0.126245,1.006384
2011-09-26T13:24:58.190923,6530,-0.622295,-0.748157,2.663807,-0.116348,0.126292,1.009629
2011-09-26T13:24:58.200923,6540,-0.607104,-0.521198,2.671123,-0.115511,0.126357,1.012847
2011-09-26T13:24:58.210923,6550,-0.591914,-0.294239,2.678439,-0.114674,0.126422,1.016064
2011-09-26T13:24:58.220923,6560,-0.576723,-0.067280,2.685754,-0.113837,0.126487,1.019282
2011-09-26T13:24:58.230923,6570,-0.561533,0.159678,2.693070,-0.113000,0.126552,1.022499
2011-09-26T13:24:58.240923,6580,-0.546342,0.386637,2.700386,-0.112163,0.126617,1.025717
2011-09-26T13:24:58.250923,6590,-0.531152,0.613596,2.707701,-0.111326,0.126682,1.028934
2011-09-26T13:24:58.260923,6600,-0.515961,0.840555,2.715017,-0.110489,0.126747,1.032152
2011-09-26T13:24:58.270923,6610,-0.500771,1.067514,2.722333,-0.109652,0.126812,1.035369
2011-09-26T13:24:58.280923,6620,-0.485580,1.294472,2.729648,-0.108815,0.126877,1.038587
2011-09-26T13:24:58.290923,6630,-0.470390,1.521431,2.736964,-0.107978,0.126942,1.041804
2011-09-26T13:24:58.300923,6640,-0.518659,1.678402,2.740105,-0.111477,0.127508,1.029698
2011-09-26T13:24:58.310923,6650,-0.570079,1.831898,2.743038,-0.115192,0.128098,1.016832
2011-09-26T13:24:58.320923,6660,-0.621498,1.985394,2.745971,-0.118906,0.128689,1.003966
2011-09-26T13:24:58.330923,6670,-0.672918,2.138891,2.748905,-0.122621,0.129280,0.991099
2011-09-26T13:24:58.340923,6680,-0.724337,2.292387,2.751838,-0.126336,0.129870,0.978233
2011-09-26T13:24:58.350923,6690,-0.775757,2.445884,2.754771,-0.130050,0.130461,0.965367
2011-09-26T13:24:58.360923,6700,-0.827176,2.599380,2.757705,-0.133765,0.131052,0.952500
2011-09-26T13:24:58.370923,6710,-0.878596,2.752876,2.760638,-0.137480,0.131642,0.939634
2011-09-26T13:24:58.380923,6720,-0.930016,2.906373,2.763572,-0.141194,0.132233,0.926768
2011-09-26T13:24:58.390923,6730,-0.981435,3.059869,2.766505,-0.144909,0.132824,0.913901
2011-09-26T13:24:58.400923,6740,-0.908817,2.825495,2.782076,-0.147592,0.130464,0.913447
2011-09-26T13:24:58.410923,6750,-0.832076,2.578225,2.798066,-0.150241,0.128006,0.913405
2011-09-26T13:24:58.420923,6760,-0.755334,2.330955,2.814057,-0.152890,0.125549,0.913363
2011-09-26T13:24:58.430923,6770,-0.678592,2.083685,2.830048,-0.155538,0.123091,0.913322
2011-09-26T13:24:58.440923,6780,-0.601851,1.836415,2.846039,-0.158187,0.120633,0.913280
2011-09-26T13:24:58.450923,6790,-0.525109,1.589145,2.862030,-0.160836,0.118176,0.913238
2011-09-26T13:24:58.460923,6800,-0.448367,1.341875,2.878021,-0.163485,0.115718,0.913196
2011-09-26T13:24:58.470923,6810,-0.371626,1.094605,2.894012,-0.166133,0.113260,0.913155
2011-09-26T13:24:58.480923,6820,-0.294884,0.847335,2.910003,-0.168782,0.110803,0.913113
2011-09-26T13:24:58.490923,6830,-0.218142,0.600065,2.925993,-0.171431,0.108345,0.913071
2011-09-26T13:24:58.500923,6840,-0.265252,0.446830,2.933021,-0.171407,0.110610,0.921160
2011-09-26T13:24:58.510923,6850,-0.316139,0.296462,2.939776,-0.171301,0.113020,0.929498
2011-09-26T13:24:58.520923,6860,-0.367025,0.146094,2.946530,-0.171195,0.115430,0.937835
2011-09-26T13:24:58.530923,6870,-0.417912,-0.004274,2.953284,-0.171090,0.117839,0.946172
2011-09-26T13:24:58.540923,6880,-0.468798,-0.154642,2.960039,-0.170984,0.120249,0.954510
2011-09-26T13:24:58.550923,6890,-0.519684,-0.305010,2.966793,-0.170879,0.122658,0.962847
2011-09-26T13:24:58.560923,6900,-0.570571,-0.455378,2.973548,-0.170773,0.125068,0.971184
2011-09-26T13:24:58.570923,6910,-0.621457,-0.605746,2.980302,-0.170667,0.127477,0.979522
2011-09-26T13:24:58.580923,6920,-0.672344,-0.756114,2.987056,-0.170562,0.129887,0.987859
2011-09-26T13:24:58.590923,6930,-0.723230,-0.906482,2.993811,-0.170456,0.132297,0.996196
2011-09-26T13:24:58.600923,6940,-0.774117,-1.056850,3.000565,-0.170350,0.134706,1.004533
2011-09-26T13:24:58.610923,6950,-0.736724,-1.009245,2.993317,-0.170156,0.134836,1.008513
2011-09-26T13:24:58.620923,6960,-0.696648,-0.955625,2.985643,-0.169959,0.134897,1.012360
2011-09-26T13:24:58.630923,6970,-0.656573,-0.902004,2.977969,-0.169762,0.134958,1.016207
2011-09-26T13:24:58.640923,6980,-0.616498,-0.848383,2.970295,-0.169565,0.135018,1.020054
2011-09-26T13:24:58.650923,6990,-0.576422,-0.794763,2.962621,-0.169368,0.135079,1.023901
2011-09-26T13:24:58.660923,7000,-0.536347,-0.741142,2.954947,-0.169172,0.135140,1.027748
2011-09-26T13:24:58.670923,7010,-0.496272,-0.687521,2.947273,-0.168975,0.135200,1.031595
2011-09-26T13:24:58.680923,7020,-0.456196,-0.633901,2.939599,-0.168778,0.135261,1.035442
2011-09-26T13:24:58.690923,7030,-0.416121,-0.580280,2.931925,-0.168581,0.135322,1.039289
2011-09-26T13:24:58.700923,7040,-0.376045,-0.526659,2.924251,-0.168384,0.135382,1.043136
2011-09-26T13:24:58.710923,7050,-0.443477,-0.500999,2.908353,-0.168658,0.134602,1.042673
2011-09-26T13:24:58.720923,7060,-0.514461,-0.476263,2.892184,-0.168949,0.133794,1.042069
2011-09-26T13:24:58.730923,7070,-0.585445,-0.451527,2.876014,-0.169239,0.132986,1.041464
2011-09-26T13:24:58.740923,7080,-0.656429,-0.426791,2.859845,-0.169529,0.132178,1.040859
2011-09-26T13:24:58.750923,7090,-0.727413,-0.402054,2.843675,-0.169819,0.131371,1.040254
2011-09-26T13:24:58.760923,7100,-0.798397,-0.377318,2.827506,-0.170109,0.130563,1.039650
2011-09-26T13:24:58.770923,7110,-0.869380,-0.352582,2.811337,-0.170400,0.129755,1.039045
2011-09-26T13:24:58.780923,7120,-0.940364,-0.327846,2.795167,-0.170690,0.128947,1.038440
2011-09-26T13:24:58.790923,7130,-1.011348,-0.303110,2.778998,-0.170980,0.128139,1.037836
2011-09-26T13:24:58.800923,7140,-1.082332,-0.278373,2.762828,-0.171270,0.127331,1.037231
2011-09-26T13:24:58.810923,7150,-1.083901,-0.356481,2.749643,-0.170728,0.125403,1.033425
2011-09-26T13:24:58.820923,7160,-1.083036,-0.438195,2.736563,-0.170157,0.123437,1.029507
2011-09-26T13:24:58.830923,7170,-1.082170,-0.519909,2.723483,-0.169585,0.121470,1.025589
2011-09-26T13:24:58.840923,7180,-1.081305,-0.601624,2.710402,-0.169014,0.119503,1.021671
2011-09-26T13:24:58.850923,7190,-1.080439,-0.683338,2.697322,-0.168443,0.117536,1.017753
2011-09-26T13:24:58.860923,7200,-1.079574,-0.765052,2.684242,-0.167871,0.115569,1.013836
2011-09-26T13:24:58.870923,7210,-1.078709,-0.846767,2.671162,-0.167300,0.113602,1.009918
2011-09-26T13:24:58.880923,7220,-1.077843,-0.928481,2.658081,-0.166728,0.111636,1.006000
2011-09-26T13:24:58.890923,7230,-1.076978,-1.010195,2.645001,-0.166157,0.109669,1.002082
2011-09-26T13:24:58.900923,7240,-1.076112,-1.091910,2.631921,-0.165586,0.107702,0.998164
2011-09-26T13:24:58.910923,7250,-1.075247,-1.173624,2.618840,-0.165014,0.105735,0.994246
2011-09-26T13:24:58.920923,7260,-1.030505,-1.169653,2.580248,-0.163773,0.105065,0.998812
2011-09-26T13:24:58.930923,7270,-0.984384,-1.162987,2.540854,-0.162510,0.104437,1.003646
2011-09-26T13:24:58.940923,7280,-0.938263,-1.156322,2.501459,-0.161248,0.103808,1.008479
2011-09-26T13:24:58.950923,7290,-0.892141,-1.149656,2.462064,-0.159985,0.103179,1.013313
2011-09-26T13:24:58.960923,7300,-0.846020,-1.142990,2.422670,-0.158723,0.102550,1.018147
2011-09-26T13:24:58.970923,7310,-0.799898,-1.136324,2.383275,-0.157460,0.101921,1.022980
2011-09-26T13:24:58.980923,7320,-0.753777,-1.129658,2.343881,-0.156198,0.101292,1.027814
2011-09-26T13:24:58.990923,7330,-0.707656,-1.122992,2.304486,-0.154935,0.100663,1.032647
2011-09-26T13:24:59.000923,7340,-0.661534,-1.116327,2.265091,-0.153673,0.100034,1.037481
2011-09-26T13:24:59.010923,7350,-0.615413,-1.109661,2.225697,-0.152410,0.099406,1.042314
2011-09-26T13:24:59.020923,7360,-0.633997,-0.924206,2.174722,-0.150354,0.099169,1.041060
2011-09-26T13:24:59.030923,7370,-0.654797,-0.732630,2.123352,-0.148270,0.098946,1.039597
2011-09-26T13:24:59.040923,7380,-0.675597,-0.541054,2.071981,-0.146187,0.098723,1.038135
2011-09-26T13:24:59.050923,7390,-0.696397,-0.349478,2.020610,-0.144103,0.098500,1.036672
2011-09-26T13:24:59.060923,7400,-0.717196,-0.157902,1.969240,-0.142020,0.098277,1.035210
2011-09-26T13:24:59.070923,7410,-0.737996,0.033674,1.917869,-0.139936,0.098053,1.033747
2011-09-26T13:24:59.080923,7420,-0.758796,0.225251,1.866498,-0.137853,0.097830,1.032284
2011-09-26T13:24:59.090923,7430,-0.779596,0.416827,1.815127,-0.135769,0.097607,1.030822
2011-09-26T13:24:59.100923,7440,-0.800396,0.608403,1.763757,-0.133686,0.097384,1.029359
2011-09-26T13:24:59.110923,7450,-0.821195,0.799979,1.712386,-0.131602,0.097161,1.027896
2011-09-26T13:24:59.120923,7460,-0.782740,0.944270,1.674139,-0.132291,0.095653,1.023352
2011-09-26T13:24:59.130923,7470,-0.742453,1.087099,1.636297,-0.133065,0.094106,1.018713
2011-09-26T13:24:59.140923,7480,-0.702166,1.229928,1.598455,-0.133840,0.092559,1.014074
2011-09-26T13:24:59.150923,7490,-0.661880,1.372758,1.560614,-0.134614,0.091012,1.009434
2011-09-26T13:24:59.160923,7500,-0.621593,1.515587,1.522772,-0.135389,0.089465,1.004795
2011-09-26T13:24:59.170923,7510,-0.581306,1.658417,1.484931,-0.136163,0.087917,1.000155
2011-09-26T13:24:59.180923,7520,-0.541019,1.801246,1.447089,-0.136938,0.086370,0.995516
2011-09-26T13:24:59.190923,7530,-0.500732,1.944075,1.409247,-0.137712,0.084823,0.990877
2011-09-26T13:24:59.200923,7540,-0.460446,2.086905,1.371406,-0.138486,0.083276,0.986237
2011-09-26T13:24:59.210923,7550,-0.420159,2.229734,1.333564,-0.139261,0.081729,0.981598
2011-09-26T13:24:59.220923,7560,-0.379872,2.372563,1.295722,-0.140035,0.080181,0.976959
2011-09-26T13:24:59.230923,7570,-0.437878,2.271322,1.281427,-0.141175,0.079877,0.971670
2011-09-26T13:24:59.240923,7580,-0.500106,2.159596,1.268144,-0.142331,0.079626,0.966353
2011-09-26T13:24:59.250923,7590,-0.562334,2.047869,1.254860,-0.143486,0.079375,0.961037
2011-09-26T13:24:59.260923,7600,-0.624562,1.936143,1.241576,-0.144642,0.079124,0.955720
2011-09-26T13:24:59.270923,7610,-0.686791,1.824417,1.228293,-0.145798,0.078872,0.950404
2011-09-26T13:24:59.280923,7620,-0.749019,1.712691,1.215009,-0.146953,0.078621,0.945087
2011-09-26T13:24:59.290923,7630,-0.811247,1.600965,1.201726,-0.148109,0.078370,0.939771
2011-09-26T13:24:59.300923,7640,-0.873475,1.489239,1.188442,-0.149264,0.078119,0.934454
2011-09-26T13:24:59.310923,7650,-0.935703,1.377513,1.175159,-0.150420,0.077868,0.929138
2011-09-26T13:24:59.320923,7660,-0.997931,1.265787,1.161875,-0.151575,0.077617,0.923821
2011-09-26T13:24:59.330923,7670,-1.039294,1.154069,1.133015,-0.150119,0.075742,0.926558
2011-09-26T13:24:59.340923,7680,-1.079780,1.042352,1.103501,-0.148554,0.073799,0.929632
2011-09-26T13:24:59.350923,7690,-1.120267,0.930634,1.073987,-0.146988,0.071856,0.932706
2011-09-26T13:24:59.360923,7700,-1.160754,0.818917,1.044473,-0.145423,0.069913,0.935780
2011-09-26T13:24:59.370923,7710,-1.201240,0.707199,1.014959,-0.143857,0.067971,0.938855
2011-09-26T13:24:59.380923,7720,-1.241727,0.595482,0.985445,-0.142291,0.066028,0.941929
2011-09-26T13:24:59.390923,7730,-1.282213,0.483764,0.955931,-0.140726,0.064085,0.945003
2011-09-26T13:24:59.400923,7740,-1.322700,0.372047,0.926417,-0.139160,0.062142,0.948077
2011-09-26T13:24:59.410923,7750,-1.363186,0.260329,0.896903,-0.137595,0.060199,0.951151
2011-09-26T13:24:59.420923,7760,-1.403673,0.148612,0.867389,-0.136029,0.058256,0.954226
2011-09-26T13:24:59.430923,7770,-1.444159,0.036894,0.837875,-0.134463,0.056313,0.957300
2011-09-26T13:24:59.440923,7780,-1.517329,0.023239,0.796705,-0.132396,0.056352,0.961444
2011-09-26T13:24:59.450923,7790,-1.591582,0.012834,0.755149,-0.130312,0.056456,0.965624
2011-09-26T13:24:59.460923,7800,-1.665835,0.002429,0.713593,-0.128229,0.056559,0.969804
2011-09-26T13:24:59.470923,7810,-1.740087,-0.007976,0.672037,-0.126145,0.056663,0.973983
2011-09-26T13:24:59.480923,7820,-1.814340,-0.018382,0.630481,-0.124061,0.056767,0.978163
2011-09-26T13:24:59.490923,7830,-1.888593,-0.028787,0.588925,-0.121977,0.056871,0.982343
2011-09-26T13:24:59.500923,7840,-1.962846,-0.039192,0.547369,-0.119894,0.056975,0.986522
2011-09-26T13:24:59.510923,7850,-2.037099,-0.049597,0.505812,-0.117810,0.057079,0.990702
2011-09-26T13:24:59.520923,7860,-2.111351,-0.060002,0.464256,-0.115726,0.057183,0.994882
2011-09-26T13:24:59.530923,7870,-2.185604,-0.070407,0.422700,-0.113642,0.057287,0.999061
2011-09-26T13:24:59.540923,7880,-2.193140,-0.072810,0.374130,-0.113049,0.055660,0.999220
2011-09-26T13:24:59.550923,7890,-2.198357,-0.074934,0.325317,-0.112509,0.053972,0.999240
2011-09-26T13:24:59.560923,7900,-2.203574,-0.077059,0.276503,-0.111968,0.052285,0.999259
2011-09-26T13:24:59.570923,7910,-2.208791,-0.079184,0.227690,-0.111427,0.050597,0.999278
2011-09-26T13:24:59.580923,7920,-2.214008,-0.081308,0.178876,-0.110886,0.048910,0.999297
2011-09-26T13:24:59.590923,7930,-2.219225,-0.083433,0.130063,-0.110345,0.047223,0.999317
2011-09-26T13:24:59.600923,7940,-2.224442,-0.085558,0.081249,-0.109804,0.045535,0.999336
2011-09-26T13:24:59.610923,7950,-2.229659,-0.087682,0.032436,-0.109264,0.043848,0.999355
2011-09-26T13:24:59.620923,7960,-2.234876,-0.089807,-0.016378,-0.108723,0.042161,0.999374
2011-09-26T13:24:59.630923,7970,-2.240093,-0.091932,-0.065191,-0.108182,0.040473,0.999394
2011-09-26T13:24:59.640923,7980,-2.247449,-0.058100,-0.118199,-0.107743,0.039368,0.998398
2011-09-26T13:24:59.650923,7990,-2.254873,-0.023134,-0.171339,-0.107307,0.038280,0.997371
2011-09-26T13:24:59.660923,8000,-2.262296,0.011833,-0.224479,-0.106870,0.037193,0.996344
2011-09-26T13:24:59.670923,8010,-2.269720,0.046799,-0.277618,-0.106434,0.036106,0.995317
2011-09-26T13:24:59.680923,8020,-2.277143,0.081765,-0.330758,-0.105998,0.035019,0.994289
2011-09-26T13:24:59.690923,8030,-2.284567,0.116731,-0.383898,-0.105562,0.033931,0.993262
2011-09-26T13:24:59.700923,8040,-2.291990,0.151698,-0.437038,-0.105126,0.032844,0.992235
2011-09-26T13:24:59.710923,8050,-2.299413,0.186664,-0.490178,-0.104690,0.031757,0.991207
2011-09-26T13:24:59.720923,8060,-2.306837,0.221630,-0.543318,-0.104254,0.030669,0.990180
2011-09-26T13:24:59.730923,8070,-2.314260,0.256597,-0.596458,-0.103818,0.029582,0.989153
2011-09-26T13:24:59.740923,8080,-2.321684,0.291563,-0.649598,-0.103382,0.028495,0.988125
2011-09-26T13:24:59.750923,8090,-2.198742,0.359103,-0.708469,-0.102187,0.025776,0.988127
2011-09-26T13:24:59.760923,8100,-2.068985,0.428347,-0.767640,-0.100951,0.022972,0.988183
2011-09-26T13:24:59.770923,8110,-1.939228,0.497590,-0.826811,-0.099716,0.020168,0.988239
2011-09-26T13:24:59.780923,8120,-1.809471,0.566833,-0.885981,-0.098481,0.017364,0.988295
2011-09-26T13:24:59.790923,8130,-1.679715,0.636077,-0.945152,-0.097245,0.014560,0.988351
2011-09-26T13:24:59.800923,8140,-1.549958,0.705320,-1.004323,-0.096010,0.011756,0.988407
2011-09-26T13:24:59.810923,8150,-1.420201,0.774564,-1.063494,-0.094775,0.008952,0.988463
2011-09-26T13:24:59.820923,8160,-1.290444,0.843807,-1.122665,-0.093539,0.006148,0.988519
2011-09-26T13:24:59.830923,8170,-1.160687,0.913050,-1.181836,-0.092304,0.003344,0.988575
2011-09-26T13:24:59.840923,8180,-1.030930,0.982294,-1.241007,-0.091069,0.000539,0.988631
2011-09-26T13:24:59.850923,8190,-1.017635,0.834792,-1.280240,-0.092967,-0.000425,0.986840
2011-09-26T13:24:59.860923,8200,-1.009192,0.678262,-1.318643,-0.094995,-0.001312,0.984973
2011-09-26T13:24:59.870923,8210,-1.000749,0.521732,-1.357046,-0.097024,-0.002200,0.983105
2011-09-26T13:24:59.880923,8220,-0.992306,0.365201,-1.395449,-0.099053,-0.003088,0.981238
2011-09-26T13:24:59.890923,8230,-0.983863,0.208671,-1.433852,-0.101082,-0.003975,0.979370
2011-09-26T13:24:59.900923,8240,-0.975420,0.052141,-1.472255,-0.103110,-0.004863,0.977503
2011-09-26T13:24:59.910923,8250,-0.966977,-0.104389,-1.510657,-0.105139,-0.005750,0.975635
2011-09-26T13:24:59.920923,8260,-0.958534,-0.260919,-1.549060,-0.107168,-0.006638,0.973768
2011-09-26T13:24:59.930923,8270,-0.950091,-0.417450,-1.587463,-0.109197,-0.007526,0.971900
2011-09-26T13:24:59.940923,8280,-0.941648,-0.573980,-1.625866,-0.111225,-0.008413,0.970033
2011-09-26T13:24:59.950923,8290,-0.817277,-0.739992,-1.670001,-0.110890,-0.008049,0.971446
2011-09-26T13:24:59.960923,8300,-0.688502,-0.906365,-1.714354,-0.110466,-0.007638,0.972985
2011-09-26T13:24:59.970923,8310,-0.559728,-1.072737,-1.758707,-0.110041,-0.007226,0.974523
2011-09-26T13:24:59.980923,8320,-0.430953,-1.239109,-1.803060,-0.109617,-0.006815,0.976061
2011-09-26T13:24:59.990923,8330,-0.302178,-1.405482,-1.847413,-0.109192,-0.006403,0.977600
2011-09-26T13:25:00.000923,8340,-0.173404,-1.571854,-1.891766,-0.108768,-0.005992,0.979138
2011-09-26T13:25:00.010923,8350,-0.044629,-1.738227,-1.936119,-0.108343,-0.005580,0.980676
2011-09-26T13:25:00.020923,8360,0.084146,-1.904599,-1.980472,-0.107918,-0.005168,0.982214
2011-09-26T13:25:00.030923,8370,0.212920,-2.070972,-2.024825,-0.107494,-0.004757,0.983753
2011-09-26T13:25:00.040923,8380,0.341695,-2.237344,-2.069178,-0.107069,-0.004345,0.985291
2011-09-26T13:25:00.050923,8390,0.470470,-2.403717,-2.113531,-0.106645,-0.003934,0.986829
2011-09-26T13:25:00.060923,8400,0.424802,-2.266352,-2.131367,-0.104604,-0.010855,0.995410
2011-09-26T13:25:00.070923,8410,0.372398,-2.117258,-2.148179,-0.102501,-0.018060,1.004262
2011-09-26T13:25:00.080923,8420,0.319994,-1.968164,-2.164991,-0.100399,-0.025265,1.013115
2011-09-26T13:25:00.090923,8430,0.267589,-1.819069,-2.181803,-0.098296,-0.032470,1.021968
2011-09-26T13:25:00.100923,8440,0.215185,-1.669975,-2.198615,-0.096193,-0.039675,1.030820
2011-09-26T13:25:00.110923,8450,0.162781,-1.520881,-2.215428,-0.094090,-0.046880,1.039673
2011-09-26T13:25:00.120923,8460,0.110377,-1.371786,-2.232240,-0.091987,-0.054085,1.048525
2011-09-26T13:25:00.130923,8470,0.057972,-1.222692,-2.249052,-0.089884,-0.061290,1.057378
2011-09-26T13:25:00.140923,8480,0.005568,-1.073598,-2.265864,-0.087781,-0.068495,1.066230
2011-09-26T13:25:00.150923,8490,-0.046836,-0.924504,-2.282676,-0.085679,-0.075699,1.075083
2011-09-26T13:25:00.160923,8500,-0.076753,-0.695397,-2.314541,-0.086238,-0.072456,1.072962
2011-09-26T13:25:00.170923,8510,-0.105864,-0.463423,-2.346946,-0.086892,-0.068839,1.070448
2011-09-26T13:25:00.180923,8520,-0.134975,-0.231449,-2.379351,-0.087546,-0.065221,1.067934
2011-09-26T13:25:00.190923,8530,-0.164085,0.000525,-2.411755,-0.088201,-0.061604,1.065421
2011-09-26T13:25:00.200923,8540,-0.193196,0.232499,-2.444160,-0.088855,-0.057986,1.062907
2011-09-26T13:25:00.210923,8550,-0.222307,0.464473,-2.476565,-0.089509,-0.054369,1.060393
2011-09-26T13:25:00.220923,8560,-0.251418,0.696448,-2.508969,-0.090164,-0.050751,1.057879
2011-09-26T13:25:00.230923,8570,-0.280529,0.928422,-2.541374,-0.090818,-0.047134,1.055365
2011-09-26T13:25:00.240923,8580,-0.309639,1.160396,-2.573779,-0.091473,-0.043516,1.052851
2011-09-26T13:25:00.250923,8590,-0.338750,1.392370,-2.606183,-0.092127,-0.039899,1.050337
2011-09-26T13:25:00.260923,8600,-0.308298,1.344129,-2.619047,-0.092975,-0.041805,1.039373
2011-09-26T13:25:00.270923,8610,-0.274441,1.279869,-2.630793,-0.093835,-0.044026,1.027925
2011-09-26T13:25:00.280923,8620,-0.240583,1.215610,-2.642539,-0.094695,-0.046248,1.016477
2011-09-26T13:25:00.290923,8630,-0.206726,1.151350,-2.654286,-0.095554,-0.048470,1.005029
2011-09-26T13:25:00.300923,8640,-0.172869,1.087090,-2.666032,-0.096414,-0.050691,0.993581
2011-09-26T13:25:00.310923,8650,-0.139011,1.022830,-2.677778,-0.097273,-0.052913,0.982133
2011-09-26T13:25:00.320923,8660,-0.105154,0.958570,-2.689525,-0.098133,-0.055135,0.970686
2011-09-26T13:25:00.330923,8670,-0.071297,0.894310,-2.701271,-0.098993,-0.057356,0.959238
2011-09-26T13:25:00.340923,8680,-0.037439,0.830051,-2.713017,-0.099852,-0.059578,0.947790
2011-09-26T13:25:00.350923,8690,-0.003582,0.765791,-2.724763,-0.100712,-0.061800,0.936342
2011-09-26T13:25:00.360923,8700,0.030275,0.701531,-2.736510,-0.101571,-0.064021,0.924894
2011-09-26T13:25:00.370923,8710,0.053371,0.627662,-2.739088,-0.100534,-0.063294,0.932188
2011-09-26T13:25:00.380923,8720,0.076054,0.553426,-2.741316,-0.099425,-0.062453,0.940199
2011-09-26T13:25:00.390923,8730,0.098738,0.479189,-2.743544,-0.098316,-0.061613,0.948210
2011-09-26T13:25:00.400923,8740,0.121421,0.404952,-2.745772,-0.097206,-0.060772,0.956221
2011-09-26T13:25:00.410923,8750,0.144105,0.330716,-2.747999,-0.096097,-0.059932,0.964232
2011-09-26T13:25:00.420923,8760,0.166788,0.256479,-2.750227,-0.094987,-0.059091,0.972243
2011-09-26T13:25:00.430923,8770,0.189472,0.182242,-2.752455,-0.093878,-0.058251,0.980255
2011-09-26T13:25:00.440923,8780,0.212155,0.108005,-2.754683,-0.092768,-0.057410,0.988266
2011-09-26T13:25:00.450923,8790,0.234839,0.033769,-2.756910,-0.091659,-0.056570,0.996277
2011-09-26T13:25:00.460923,8800,0.257522,-0.040468,-2.759138,-0.090549,-0.055729,1.004288
2011-09-26T13:25:00.470923,8810,0.287922,0.013882,-2.770128,-0.091036,-0.056332,1.004670
2011-09-26T13:25:00.480923,8820,0.318641,0.073544,-2.781480,-0.091589,-0.056995,1.004738
2011-09-26T13:25:00.490923,8830,0.349360,0.133207,-2.792831,-0.092143,-0.057657,1.004805
2011-09-26T13:25:00.500923,8840,0.380079,0.192869,-2.804183,-0.092696,-0.058319,1.004872
2011-09-26T13:25:00.510923,8850,0.410797,0.252531,-2.815535,-0.093249,-0.058982,1.004939
2011-09-26T13:25:00.520923,8860,0.441516,0.312193,-2.826887,-0.093802,-0.059644,1.005006
2011-09-26T13:25:00.530923,8870,0.472235,0.371856,-2.838238,-0.094355,-0.060306,1.005073
2011-09-26T13:25:00.540923,8880,0.502954,0.431518,-2.849590,-0.094908,-0.060969,1.005141
2011-09-26T13:25:00.550923,8890,0.533672,0.491180,-2.860942,-0.095461,-0.061631,1.005208
2011-09-26T13:25:00.560923,8900,0.564391,0.550842,-2.872294,-0.096014,-0.062294,1.005275
2011-09-26T13:25:00.570923,8910,0.595110,0.610504,-2.883645,-0.096567,-0.062956,1.005342
2011-09-26T13:25:00.580923,8920,0.596234,0.644505,-2.884404,-0.096864,-0.062687,1.003325
2011-09-26T13:25:00.590923,8930,0.596128,0.677440,-2.884723,-0.097149,-0.062379,1.001221
2011-09-26T13:25:00.600923,8940,0.596022,0.710375,-2.885042,-0.097435,-0.062071,0.999117
2011-09-26T13:25:00.610923,8950,0.595916,0.743309,-2.885361,-0.097721,-0.061763,0.997013
2011-09-26T13:25:00.620923,8960,0.595810,0.776244,-2.885679,-0.098006,-0.061456,0.994909
2011-09-26T13:25:00.630923,8970,0.595704,0.809178,-2.885998,-0.098292,-0.061148,0.992805
2011-09-26T13:25:00.640923,8980,0.595598,0.842113,-2.886317,-0.098578,-0.060840,0.990701
2011-09-26T13:25:00.650923,8990,0.595493,0.875048,-2.886636,-0.098863,-0.060532,0.988597
2011-09-26T13:25:00.660923,9000,0.595387,0.907982,-2.886955,-0.099149,-0.060224,0.986493
2011-09-26T13:25:00.670923,9010,0.595281,0.940917,-2.887273,-0.099435,-0.059917,0.984389
2011-09-26T13:25:00.680923,9020,0.603673,0.900792,-2.866306,-0.099383,-0.060053,0.983591
2011-09-26T13:25:00.690923,9030,0.612401,0.857775,-2.844495,-0.099318,-0.060207,0.982846
2011-09-26T13:25:00.700923,9040,0.621130,0.814757,-2.822684,-0.099253,-0.060360,0.982100
2011-09-26T13:25:00.710923,9050,0.629858,0.771740,-2.800874,-0.099188,-0.060514,0.981354
2011-09-26T13:25:00.720923,9060,0.638586,0.728722,-2.779063,-0.099123,-0.060668,0.980608
2011-09-26T13:25:00.730923,9070,0.647315,0.685705,-2.757253,-0.099057,-0.060822,0.979862
2011-09-26T13:25:00.740923,9080,0.656043,0.642687,-2.735442,-0.098992,-0.060976,0.979116
2011-09-26T13:25:00.750923,9090,0.664772,0.599670,-2.713631,-0.098927,-0.061129,0.978370
2011-09-26T13:25:00.760923,9100,0.673500,0.556652,-2.691821,-0.098862,-0.061283,0.977624
2011-09-26T13:25:00.770923,9110,0.682229,0.513635,-2.670010,-0.098797,-0.061437,0.976878
2011-09-26T13:25:00.780923,9120,0.687452,0.544904,-2.644774,-0.099504,-0.058936,0.977126
2011-09-26T13:25:00.790923,9130,0.692525,0.579364,-2.619390,-0.100244,-0.056321,0.977416
2011-09-26T13:25:00.800923,9140,0.697598,0.613824,-2.594007,-0.100984,-0.053706,0.977706
2011-09-26T13:25:00.810923,9150,0.702670,0.648284,-2.568624,-0.101723,-0.051091,0.977996
2011-09-26T13:25:00.820923,9160,0.707743,0.682744,-2.543240,-0.102463,-0.048476,0.978286
2011-09-26T13:25:00.830923,9170,0.712816,0.717204,-2.517857,-0.103203,-0.045860,0.978576
2011-09-26T13:25:00.840923,9180,0.717889,0.751664,-2.492474,-0.103943,-0.043245,0.978866
2011-09-26T13:25:00.850923,9190,0.722962,0.786124,-2.467090,-0.104683,-0.040630,0.979156
2011-09-26T13:25:00.860923,9200,0.728034,0.820584,-2.441707,-0.105423,-0.038015,0.979446
2011-09-26T13:25:00.870923,9210,0.733107,0.855044,-2.416324,-0.106163,-0.035400,0.979737
2011-09-26T13:25:00.880923,9220,0.738180,0.889504,-2.390940,-0.106903,-0.032785,0.980027
2011-09-26T13:25:00.890923,9230,0.721756,0.844200,-2.391662,-0.107976,-0.033340,0.979093
2011-09-26T13:25:00.900923,9240,0.704388,0.795391,-2.393532,-0.109065,-0.034034,0.978105
2011-09-26T13:25:00.910923,9250,0.687020,0.746582,-2.395401,-0.110154,-0.034728,0.977118
2011-09-26T13:25:00.920923,9260,0.669652,0.697773,-2.397270,-0.111242,-0.035422,0.976130
2011-09-26T13:25:00.930923,9270,0.652284,0.648964,-2.399139,-0.112331,-0.036116,0.975143
2011-09-26T13:25:00.940923,9280,0.634916,0.600156,-2.401008,-0.113419,-0.036810,0.974155
2011-09-26T13:25:00.950923,9290,0.617548,0.551347,-2.402878,-0.114508,-0.037504,0.973167
2011-09-26T13:25:00.960923,9300,0.600180,0.502538,-2.404747,-0.115597,-0.038198,0.972180
2011-09-26T13:25:00.970923,9310,0.582812,0.453729,-2.406616,-0.116685,-0.038893,0.971192
2011-09-26T13:25:00.980923,9320,0.565444,0.404920,-2.408485,-0.117774,-0.039587,0.970205
2011-09-26T13:25:00.990923,9330,0.499047,0.302665,-2.406376,-0.118412,-0.039334,0.972604
2011-09-26T13:25:01.000923,9340,0.430867,0.198466,-2.404122,-0.119034,-0.039048,0.975126
2011-09-26T13:25:01.010923,9350,0.362687,0.094267,-2.401868,-0.119655,-0.038761,0.977649
2011-09-26T13:25:01.020923,9360,0.294507,-0.009932,-2.399614,-0.120277,-0.038475,0.980171
2011-09-26T13:25:01.030923,9370,0.226327,-0.114131,-2.397360,-0.120898,-0.038188,0.982694
2011-09-26T13:25:01.040923,9380,0.158147,-0.218330,-2.395106,-0.121520,-0.037902,0.985216
2011-09-26T13:25:01.050923,9390,0.089967,-0.322529,-2.392852,-0.122142,-0.037615,0.987738
2011-09-26T13:25:01.060923,9400,0.021787,-0.426728,-2.390598,-0.122763,-0.037328,0.990261
2011-09-26T13:25:01.070923,9410,-0.046393,-0.530927,-2.388344,-0.123385,-0.037042,0.992783
2011-09-26T13:25:01.080923,9420,-0.114572,-0.635126,-2.386090,-0.124007,-0.036755,0.995306
2011-09-26T13:25:01.090923,9430,-0.124986,-0.632045,-2.373460,-0.124184,-0.036822,0.997319
2011-09-26T13:25:01.100923,9440,-0.133031,-0.624566,-2.360404,-0.124343,-0.036904,0.999311
2011-09-26T13:25:01.110923,9450,-0.141076,-0.617087,-2.347348,-0.124502,-0.036985,1.001303
2011-09-26T13:25:01.120923,9460,-0.149121,-0.609609,-2.334292,-0.124661,-0.037067,1.003295
2011-09-26T13:25:01.130923,9470,-0.157166,-0.602130,-2.321236,-0.124820,-0.037148,1.005287
2011-09-26T13:25:01.140923,9480,-0.165211,-0.594651,-2.308180,-0.124979,-0.037229,1.007279
2011-09-26T13:25:01.150923,9490,-0.173257,-0.587172,-2.295124,-0.125138,-0.037311,1.009271
2011-09-26T13:25:01.160923,9500,-0.181302,-0.579694,-2.282068,-0.125297,-0.037392,1.011263
2011-09-26T13:25:01.170923,9510,-0.189347,-0.572215,-2.269012,-0.125456,-0.037474,1.013255
2011-09-26T13:25:01.180923,9520,-0.197392,-0.564736,-2.255956,-0.125615,-0.037555,1.015247
2011-09-26T13:25:01.190923,9530,-0.205437,-0.557257,-2.242900,-0.125774,-0.037637,1.017239
2011-09-26T13:25:01.200923,9540,-0.216530,-0.499239,-2.228618,-0.126170,-0.036441,1.016895
2011-09-26T13:25:01.210923,9550,-0.227756,-0.439005,-2.214283,-0.126577,-0.035189,1.016448
2011-09-26T13:25:01.220923,9560,-0.238982,-0.378771,-2.199947,-0.126984,-0.033937,1.016001
2011-09-26T13:25:01.230923,9570,-0.250208,-0.318536,-2.185611,-0.127390,-0.032686,1.015554
2011-09-26T13:25:01.240923,9580,-0.261434,-0.258302,-2.171276,-0.127797,-0.031434,1.015107
2011-09-26T13:25:01.250923,9590,-0.272660,-0.198068,-2.156940,-0.128204,-0.030182,1.014661
2011-09-26T13:25:01.260923,9600,-0.283886,-0.137834,-2.142605,-0.128611,-0.028930,1.014214
2011-09-26T13:25:01.270923,9610,-0.295112,-0.077600,-2.128269,-0.129018,-0.027678,1.013767
2011-09-26T13:25:01.280923,9620,-0.306338,-0.017366,-2.113934,-0.129424,-0.026426,1.013320
2011-09-26T13:25:01.290923,9630,-0.317564,0.042868,-2.099598,-0.129831,-0.025175,1.012873
2011-09-26T13:25:01.300923,9640,-0.326590,0.067496,-2.097881,-0.131698,-0.025755,1.012611
2011-09-26T13:25:01.310923,9650,-0.335501,0.090270,-2.096821,-0.133641,-0.026431,1.012358
2011-09-26T13:25:01.320923,9660,-0.344412,0.113044,-2.095761,-0.135584,-0.027107,1.012106
2011-09-26T13:25:01.330923,9670,-0.353323,0.135819,-2.094700,-0.137527,-0.027782,1.011853
2011-09-26T13:25:01.340923,9680,-0.362235,0.158593,-2.093640,-0.139470,-0.028458,1.011600
2011-09-26T13:25:01.350923,9690,-0.371146,0.181367,-2.092580,-0.141413,-0.029134,1.011347
2011-09-26T13:25:01.360923,9700,-0.380057,0.204141,-2.091520,-0.143356,-0.029810,1.011095
2011-09-26T13:25:01.370923,9710,-0.388968,0.226915,-2.090460,-0.145299,-0.030486,1.010842
2011-09-26T13:25:01.380923,9720,-0.397880,0.249689,-2.089400,-0.147242,-0.031161,1.010589
2011-09-26T13:25:01.390923,9730,-0.406791,0.272464,-2.088340,-0.149185,-0.031837,1.010337
2011-09-26T13:25:01.400923,9740,-0.434901,0.257974,-2.077353,-0.149110,-0.032786,1.008344
2011-09-26T13:25:01.410923,9750,-0.463803,0.241948,-2.065956,-0.148953,-0.033745,1.006279
2011-09-26T13:25:01.420923,9760,-0.492705,0.225921,-2.054560,-0.148795,-0.034705,1.004215
2011-09-26T13:25:01.430923,9770,-0.521607,0.209895,-2.043164,-0.148638,-0.035665,1.002150
2011-09-26T13:25:01.440923,9780,-0.550509,0.193869,-2.031767,-0.148480,-0.036624,1.000086
2011-09-26T13:25:01.450923,9790,-0.579411,0.177843,-2.020371,-0.148322,-0.037584,0.998021
2011-09-26T13:25:01.460923,9800,-0.608313,0.161817,-2.008974,-0.148165,-0.038543,0.995957
2011-09-26T13:25:01.470923,9810,-0.637215,0.145790,-1.997578,-0.148007,-0.039503,0.993892
2011-09-26T13:25:01.480923,9820,-0.666117,0.129764,-1.986182,-0.147849,-0.040463,0.991828
2011-09-26T13:25:01.490923,9830,-0.695019,0.113738,-1.974785,-0.147692,-0.041422,0.989763
2011-09-26T13:25:01.500923,9840,-0.723921,0.097712,-1.963389,-0.147534,-0.042382,0.987699
2011-09-26T13:25:01.510923,9850,-0.707733,0.154443,-1.963601,-0.148526,-0.041771,0.989076
2011-09-26T13:25:01.520923,9860,-0.689597,0.214317,-1.964315,-0.149568,-0.041093,0.990601
2011-09-26T13:25:01.530923,9870,-0.671461,0.274191,-1.965029,-0.150610,-0.040414,0.992127
2011-09-26T13:25:01.540923,9880,-0.653326,0.334064,-1.965743,-0.151651,-0.039736,0.993652
2011-09-26T13:25:01.550923,9890,-0.635190,0.393938,-1.966457,-0.152693,-0.039057,0.995178
2011-09-26T13:25:01.560923,9900,-0.617054,0.453812,-1.967171,-0.153735,-0.038379,0.996703
2011-09-26T13:25:01.570923,9910,-0.598918,0.513686,-1.967885,-0.154777,-0.037700,0.998229
2011-09-26T13:25:01.580923,9920,-0.580782,0.573560,-1.968598,-0.155819,-0.037022,0.999755
2011-09-26T13:25:01.590923,9930,-0.562647,0.633434,-1.969312,-0.156861,-0.036343,1.001280
2011-09-26T13:25:01.600923,9940,-0.544511,0.693307,-1.970026,-0.157902,-0.035665,1.002806
2011-09-26T13:25:01.610923,9950,-0.542283,0.669778,-1.950560,-0.158892,-0.035584,1.000488
2011-09-26T13:25:01.620923,9960,-0.540768,0.642510,-1.930189,-0.159879,-0.035531,0.997997
2011-09-26T13:25:01.630923,9970,-0.539254,0.615242,-1.909818,-0.160867,-0.035477,0.995507
2011-09-26T13:25:01.640923,9980,-0.537739,0.587975,-1.889448,-0.161854,-0.035424,0.993016
2011-09-26T13:25:01.650923,9990,-0.536224,0.560707,-1.869077,-0.162841,-0.035370,0.990526
2011-09-26T13:25:01.660923,10000,-0.534709,0.533440,-1.848706,-0.163828,-0.035317,0.988035
2011-09-26T13:25:01.670923,10010,-0.533195,0.506172,-1.828335,-0.164816,-0.035263,0.985545
2011-09-26T13:25:01.680923,10020,-0.531680,0.478904,-1.807965,-0.165803,-0.035210,0.983054
2011-09-26T13:25:01.690923,10030,-0.530165,0.451637,-1.787594,-0.166790,-0.035156,0.980564
2011-09-26T13:25:01.700923,10040,-0.528650,0.424369,-1.767223,-0.167777,-0.035103,0.978073
2011-09-26T13:25:01.710923,10050,-0.527136,0.397101,-1.746852,-0.168765,-0.035049,0.975583
2011-09-26T13:25:01.720923,10060,-0.526953,0.377391,-1.738893,-0.169417,-0.034725,0.977016
2011-09-26T13:25:01.730923,10070,-0.526853,0.358151,-1.731705,-0.170048,-0.034384,0.978694
2011-09-26T13:25:01.740923,10080,-0.526753,0.338911,-1.724518,-0.170679,-0.034043,0.980371
2011-09-26T13:25:01.750923,10090,-0.526653,0.319671,-1.717331,-0.171310,-0.033702,0.982049
2011-09-26T13:25:01.760923,10100,-0.526553,0.300431,-1.710144,-0.171941,-0.033361,0.983726
2011-09-26T13:25:01.770923,10110,-0.526453,0.281192,-1.702957,-0.172572,-0.033020,0.985404
2011-09-26T13:25:01.780923,10120,-0.526354,0.261952,-1.695769,-0.173203,-0.032679,0.987082
2011-09-26T13:25:01.790923,10130,-0.526254,0.242712,-1.688582,-0.173834,-0.032338,0.988759
2011-09-26T13:25:01.800923,10140,-0.526154,0.223472,-1.681395,-0.174465,-0.031996,0.990437
2011-09-26T13:25:01.810923,10150,-0.526054,0.204232,-1.674208,-0.175096,-0.031655,0.992115
2011-09-26T13:25:01.820923,10160,-0.505152,0.198447,-1.661944,-0.175949,-0.030895,0.992615
2011-09-26T13:25:01.830923,10170,-0.483262,0.193303,-1.649438,-0.176812,-0.030115,0.993060
2011-09-26T13:25:01.840923,10180,-0.461371,0.188158,-1.636932,-0.177675,-0.029334,0.993504
2011-09-26T13:25:01.850923,10190,-0.439480,0.183013,-1.624427,-0.178539,-0.028554,0.993949
2011-09-26T13:25:01.860923,10200,-0.417590,0.177868,-1.611921,-0.179402,-0.027774,0.994393
2011-09-26T13:25:01.870923,10210,-0.395699,0.172723,-1.599416,-0.180265,-0.026993,0.994838
2011-09-26T13:25:01.880923,10220,-0.373809,0.167579,-1.586910,-0.181128,-0.026213,0.995282
2011-09-26T13:25:01.890923,10230,-0.351918,0.162434,-1.574405,-0.181991,-0.025433,0.995727
2011-09-26T13:25:01.900923,10240,-0.330027,0.157289,-1.561899,-0.182855,-0.024652,0.996171
2011-09-26T13:25:01.910923,10250,-0.308137,0.152144,-1.549393,-0.183718,-0.023872,0.996616
2011-09-26T13:25:01.920923,10260,-0.290686,0.136855,-1.547453,-0.184150,-0.024769,0.997103
2011-09-26T13:25:01.930923,10270,-0.273438,0.121103,-1.545994,-0.184563,-0.025743,0.997592
2011-09-26T13:25:01.940923,10280,-0.256190,0.105350,-1.544536,-0.184976,-0.026717,0.998081
2011-09-26T13:25:01.950923,10290,-0.238942,0.089597,-1.543078,-0.185389,-0.027691,0.998569
2011-09-26T13:25:01.960923,10300,-0.221694,0.073845,-1.541620,-0.185802,-0.028664,0.999058
2011-09-26T13:25:01.970923,10310,-0.204446,0.058092,-1.540162,-0.186215,-0.029638,0.999547
2011-09-26T13:25:01.980923,10320,-0.187197,0.042340,-1.538704,-0.186628,-0.030612,1.000036
2011-09-26T13:25:01.990923,10330,-0.169949,0.026587,-1.537246,-0.187041,-0.031586,1.000525
2011-09-26T13:25:02.000923,10340,-0.152701,0.010834,-1.535788,-0.187454,-0.032560,1.001014
2011-09-26T13:25:02.010923,10350,-0.135453,-0.004918,-1.534330,-0.187867,-0.033534,1.001502
2011-09-26T13:25:02.020923,10360,-0.118205,-0.020671,-1.532872,-0.188280,-0.034507,1.001991
2011-09-26T13:25:02.030923,10370,-0.121916,-0.005784,-1.538480,-0.188502,-0.033351,1.001476
2011-09-26T13:25:02.040923,10380,-0.126772,0.010776,-1.544475,-0.188714,-0.032078,1.000905
2011-09-26T13:25:02.050923,10390,-0.131627,0.027337,-1.550470,-0.188926,-0.030805,1.000335
2011-09-26T13:25:02.060923,10400,-0.136483,0.043897,-1.556464,-0.189138,-0.029532,0.999764
2011-09-26T13:25:02.070923,10410,-0.141338,0.060457,-1.562459,-0.189350,-0.028260,0.999194
2011-09-26T13:25:02.080923,10420,-0.146194,0.077018,-1.568454,-0.189562,-0.026987,0.998623
2011-09-26T13:25:02.090923,10430,-0.151050,0.093578,-1.574448,-0.189774,-0.025714,0.998053
2011-09-26T13:25:02.100923,10440,-0.155905,0.110138,-1.580443,-0.189986,-0.024441,0.997483
2011-09-26T13:25:02.110923,10450,-0.160761,0.126698,-1.586438,-0.190198,-0.023168,0.996912
2011-09-26T13:25:02.120923,10460,-0.165616,0.143259,-1.592432,-0.190410,-0.021895,0.996342
2011-09-26T13:25:02.130923,10470,-0.142123,0.145113,-1.583072,-0.189825,-0.022389,0.996516
2011-09-26T13:25:02.140923,10480,-0.117184,0.146217,-1.572930,-0.189201,-0.022973,0.996729
2011-09-26T13:25:02.150923,10490,-0.092246,0.147322,-1.562787,-0.188576,-0.023556,0.996942
2011-09-26T13:25:02.160923,10500,-0.067308,0.148427,-1.552645,-0.187951,-0.024140,0.997155
2011-09-26T13:25:02.170923,10510,-0.042369,0.149531,-1.542502,-0.187326,-0.024724,0.997367
2011-09-26T13:25:02.180923,10520,-0.017431,0.150636,-1.532360,-0.186701,-0.025307,0.997580
2011-09-26T13:25:02.190923,10530,0.007508,0.151741,-1.522217,-0.186076,-0.025891,0.997793
2011-09-26T13:25:02.200923,10540,0.032446,0.152845,-1.512075,-0.185451,-0.026475,0.998006
2011-09-26T13:25:02.210923,10550,0.057384,0.153950,-1.501932,-0.184826,-0.027058,0.998218
2011-09-26T13:25:02.220923,10560,0.082323,0.155055,-1.491789,-0.184201,-0.027642,0.998431
2011-09-26T13:25:02.230923,10570,0.085947,0.139897,-1.483071,-0.181740,-0.027897,0.997963
2011-09-26T13:25:02.240923,10580,0.088031,0.123564,-1.474456,-0.179147,-0.028128,0.997446
2011-09-26T13:25:02.250923,10590,0.090115,0.107231,-1.465841,-0.176554,-0.028359,0.996929
2011-09-26T13:25:02.260923,10600,0.092200,0.090898,-1.457226,-0.173961,-0.028590,0.996412
2011-09-26T13:25:02.270923,10610,0.094284,0.074564,-1.448611,-0.171368,-0.028820,0.995895
2011-09-26T13:25:02.280923,10620,0.096368,0.058231,-1.439996,-0.168775,-0.029051,0.995378
2011-09-26T13:25:02.290923,10630,0.098452,0.041898,-1.431380,-0.166182,-0.029282,0.994861
2011-09-26T13:25:02.300923,10640,0.100537,0.025565,-1.422765,-0.163589,-0.029513,0.994345
2011-09-26T13:25:02.310923,10650,0.102621,0.009232,-1.414150,-0.160996,-0.029744,0.993828
2011-09-26T13:25:02.320923,10660,0.104705,-0.007101,-1.405535,-0.158403,-0.029975,0.993311
2011-09-26T13:25:02.330923,10670,0.106789,-0.023434,-1.396920,-0.155810,-0.030206,0.992794
2011-09-26T13:25:02.340923,10680,0.139015,-0.037970,-1.384528,-0.152946,-0.029585,0.993045
2011-09-26T13:25:02.350923,10690,0.172750,-0.052417,-1.371948,-0.150069,-0.028922,0.993335
2011-09-26T13:25:02.360923,10700,0.206485,-0.066863,-1.359367,-0.147191,-0.028259,0.993624
2011-09-26T13:25:02.370923,10710,0.240219,-0.081309,-1.346787,-0.144314,-0.027596,0.993914
2011-09-26T13:25:02.380923,10720,0.273954,-0.095756,-1.334206,-0.141437,-0.026933,0.994204
2011-09-26T13:25:02.390923,10730,0.307689,-0.110202,-1.321626,-0.138559,-0.026269,0.994493
2011-09-26T13:25:02.400923,10740,0.341424,-0.124649,-1.309046,-0.135682,-0.025606,0.994783
2011-09-26T13:25:02.410923,10750,0.375159,-0.139095,-1.296465,-0.132805,-0.024943,0.995073
2011-09-26T13:25:02.420923,10760,0.408893,-0.153541,-1.283885,-0.129928,-0.024280,0.995362
2011-09-26T13:25:02.430923,10770,0.442628,-0.167988,-1.271304,-0.127050,-0.023616,0.995652
2011-09-26T13:25:02.440923,10780,0.427538,-0.146559,-1.240968,-0.125846,-0.022705,0.995892
2011-09-26T13:25:02.450923,10790,0.410168,-0.123455,-1.209802,-0.124720,-0.021783,0.996129
2011-09-26T13:25:02.460923,10800,0.392799,-0.100351,-1.178636,-0.123594,-0.020860,0.996366
2011-09-26T13:25:02.470923,10810,0.375429,-0.077247,-1.147471,-0.122467,-0.019938,0.996604
2011-09-26T13:25:02.480923,10820,0.358060,-0.054143,-1.116305,-0.121341,-0.019015,0.996841
2011-09-26T13:25:02.490923,10830,0.340690,-0.031039,-1.085140,-0.120215,-0.018093,0.997079
2011-09-26T13:25:02.500923,10840,0.323321,-0.007935,-1.053974,-0.119089,-0.017170,0.997316
2011-09-26T13:25:02.510923,10850,0.305951,0.015169,-1.022808,-0.117962,-0.016247,0.997554
2011-09-26T13:25:02.520923,10860,0.288582,0.038273,-0.991643,-0.116836,-0.015325,0.997791
2011-09-26T13:25:02.530923,10870,0.271212,0.061377,-0.960477,-0.115710,-0.014402,0.998028
2011-09-26T13:25:02.540923,10880,0.262471,0.049254,-0.952351,-0.115981,-0.014166,0.997263
2011-09-26T13:25:02.550923,10890,0.254137,0.035463,-0.945315,-0.116317,-0.013962,0.996449
2011-09-26T13:25:02.560923,10900,0.245804,0.021672,-0.938280,-0.116654,-0.013757,0.995636
2011-09-26T13:25:02.570923,10910,0.237471,0.007881,-0.931244,-0.116991,-0.013553,0.994823
2011-09-26T13:25:02.580923,10920,0.229138,-0.005910,-0.924208,-0.117328,-0.013349,0.994010
2011-09-26T13:25:02.590923,10930,0.220805,-0.019701,-0.917173,-0.117664,-0.013145,0.993196
2011-09-26T13:25:02.600923,10940,0.212472,-0.033492,-0.910137,-0.118001,-0.012941,0.992383
2011-09-26T13:25:02.610923,10950,0.204139,-0.047283,-0.903101,-0.118338,-0.012737,0.991570
2011-09-26T13:25:02.620923,10960,0.195806,-0.061074,-0.896066,-0.118675,-0.012533,0.990757
2011-09-26T13:25:02.630923,10970,0.187473,-0.074865,-0.889030,-0.119012,-0.012329,0.989943
2011-09-26T13:25:02.640923,10980,0.179140,-0.088656,-0.881994,-0.119348,-0.012125,0.989130
2011-09-26T13:25:02.650923,10990,0.159779,-0.081256,-0.857635,-0.119374,-0.011257,0.990015
2011-09-26T13:25:02.660923,11000,0.139889,-0.072842,-0.832446,-0.119384,-0.010359,0.990981
2011-09-26T13:25:02.670923,11010,0.120000,-0.064428,-0.807256,-0.119395,-0.009460,0.991948
2011-09-26T13:25:02.680923,11020,0.100110,-0.056013,-0.782067,-0.119406,-0.008561,0.992914
2011-09-26T13:25:02.690923,11030,0.080221,-0.047599,-0.756878,-0.119416,-0.007662,0.993880
2011-09-26T13:25:02.700923,11040,0.060331,-0.039185,-0.731689,-0.119427,-0.006763,0.994846
2011-09-26T13:25:02.710923,11050,0.040442,-0.030770,-0.706500,-0.119438,-0.005864,0.995813
2011-09-26T13:25:02.720923,11060,0.020553,-0.022356,-0.681310,-0.119448,-0.004966,0.996779
2011-09-26T13:25:02.730923,11070,0.000663,-0.013942,-0.656121,-0.119459,-0.004067,0.997745
2011-09-26T13:25:02.740923,11080,-0.019226,-0.005527,-0.630932,-0.119470,-0.003168,0.998711
2011-09-26T13:25:02.750923,11090,-0.000941,-0.003258,-0.620735,-0.120437,-0.003463,0.998935
2011-09-26T13:25:02.760923,11100,0.019827,-0.001388,-0.611513,-0.121467,-0.003836,0.999110
2011-09-26T13:25:02.770923,11110,0.040596,0.000481,-0.602292,-0.122496,-0.004208,0.999285
2011-09-26T13:25:02.780923,11120,0.061364,0.002351,-0.593070,-0.123526,-0.004581,0.999460
2011-09-26T13:25:02.790923,11130,0.082132,0.004221,-0.583849,-0.124555,-0.004953,0.999635
2011-09-26T13:25:02.800923,11140,0.102901,0.006090,-0.574627,-0.125585,-0.005326,0.999810
2011-09-26T13:25:02.810923,11150,0.123669,0.007960,-0.565405,-0.126615,-0.005699,0.999985
2011-09-26T13:25:02.820923,11160,0.144438,0.009830,-0.556184,-0.127644,-0.006071,1.000160
2011-09-26T13:25:02.830923,11170,0.165206,0.011699,-0.546962,-0.128674,-0.006444,1.000336
2011-09-26T13:25:02.840923,11180,0.185974,0.013569,-0.537740,-0.129703,-0.006817,1.000511
2011-09-26T13:25:02.850923,11190,0.206743,0.015439,-0.528519,-0.130733,-0.007189,1.000686
2011-09-26T13:25:02.860923,11200,0.181493,0.006471,-0.506664,-0.131389,-0.006351,1.000763
2011-09-26T13:25:02.870923,11210,0.154015,-0.003020,-0.484198,-0.132027,-0.005454,1.000836
2011-09-26T13:25:02.880923,11220,0.126537,-0.012512,-0.461732,-0.132664,-0.004557,1.000908
2011-09-26T13:25:02.890923,11230,0.099059,-0.022004,-0.439266,-0.133302,-0.003660,1.000981
2011-09-26T13:25:02.900923,11240,0.071581,-0.031496,-0.416799,-0.133940,-0.002764,1.001053
2011-09-26T13:25:02.910923,11250,0.044103,-0.040988,-0.394333,-0.134578,-0.001867,1.001126
2011-09-26T13:25:02.920923,11260,0.016625,-0.050480,-0.371867,-0.135216,-0.000970,1.001199
2011-09-26T13:25:02.930923,11270,-0.010853,-0.059972,-0.349401,-0.135854,-0.000073,1.001271
2011-09-26T13:25:02.940923,11280,-0.038331,-0.069464,-0.326935,-0.136491,0.000824,1.001344
2011-09-26T13:25:02.950923,11290,-0.065809,-0.078956,-0.304468,-0.137129,0.001721,1.001416
2011-09-26T13:25:02.960923,11300,-0.017668,-0.061979,-0.290177,-0.137051,0.002433,1.001476
2011-09-26T13:25:02.970923,11310,0.034284,-0.043668,-0.276298,-0.136938,0.003135,1.001535
2011-09-26T13:25:02.980923,11320,0.086235,-0.025358,-0.262419,-0.136824,0.003838,1.001594
2011-09-26T13:25:02.990923,11330,0.138187,-0.007047,-0.248540,-0.136710,0.004541,1.001654
2011-09-26T13:25:03.000923,11340,0.190138,0.011264,-0.234661,-0.136596,0.005244,1.001713
2011-09-26T13:25:03.010923,11350,0.242090,0.029575,-0.220782,-0.136482,0.005946,1.001772
2011-09-26T13:25:03.020923,11360,0.294042,0.047885,-0.206903,-0.136368,0.006649,1.001831
2011-09-26T13:25:03.030923,11370,0.345993,0.066196,-0.193024,-0.136255,0.007352,1.001890
2011-09-26T13:25:03.040923,11380,0.397945,0.084507,-0.179145,-0.136141,0.008055,1.001950
2011-09-26T13:25:03.050923,11390,0.449896,0.102817,-0.165266,-0.136027,0.008757,1.002009
2011-09-26T13:25:03.060923,11400,0.400486,0.114823,-0.147206,-0.136340,0.008810,1.001145
2011-09-26T13:25:03.070923,11410,0.346289,0.126531,-0.128948,-0.136672,0.008831,1.000237
2011-09-26T13:25:03.080923,11420,0.292092,0.138238,-0.110690,-0.137005,0.008852,0.999329
2011-09-26T13:25:03.090923,11430,0.237895,0.149946,-0.092433,-0.137338,0.008874,0.998421
2011-09-26T13:25:03.100923,11440,0.183698,0.161654,-0.074175,-0.137670,0.008895,0.997514
2011-09-26T13:25:03.110923,11450,0.129501,0.173361,-0.055917,-0.138003,0.008917,0.996606
2011-09-26T13:25:03.120923,11460,0.075304,0.185069,-0.037659,-0.138336,0.008938,0.995698
2011-09-26T13:25:03.130923,11470,0.021107,0.196777,-0.019401,-0.138669,0.008959,0.994791
2011-09-26T13:25:03.140923,11480,-0.033090,0.208484,-0.001144,-0.139001,0.008981,0.993883
2011-09-26T13:25:03.150923,11490,-0.087287,0.220192,0.017114,-0.139334,0.009002,0.992975
2011-09-26T13:25:03.160923,11500,-0.141484,0.231900,0.035372,-0.139667,0.009024,0.992068
2011-09-26T13:25:03.170923,11510,-0.148353,0.226777,0.036836,-0.139409,0.009747,0.992386
2011-09-26T13:25:03.180923,11520,-0.152967,0.220853,0.037500,-0.139124,0.010504,0.992763
2011-09-26T13:25:03.190923,11530,-0.157581,0.214928,0.038163,-0.138839,0.011261,0.993140
2011-09-26T13:25:03.200923,11540,-0.162195,0.209003,0.038827,-0.138553,0.012018,0.993517
2011-09-26T13:25:03.210923,11550,-0.166809,0.203079,0.039491,-0.138268,0.012774,0.993894
2011-09-26T13:25:03.220923,11560,-0.171423,0.197154,0.040154,-0.137983,0.013531,0.994270
2011-09-26T13:25:03.230923,11570,-0.176037,0.191229,0.040818,-0.137697,0.014288,0.994647
2011-09-26T13:25:03.240923,11580,-0.180651,0.185305,0.041482,-0.137412,0.015045,0.995024
2011-09-26T13:25:03.250923,11590,-0.185265,0.179380,0.042146,-0.137127,0.015802,0.995401
2011-09-26T13:25:03.260923,11600,-0.189879,0.173456,0.042809,-0.136841,0.016559,0.995778
2011-09-26T13:25:03.270923,11610,-0.204620,0.144474,0.051965,-0.135349,0.016273,0.995234
2011-09-26T13:25:03.280923,11620,-0.220058,0.113904,0.061706,-0.133774,0.015916,0.994626
2011-09-26T13:25:03.290923,11630,-0.235496,0.083335,0.071446,-0.132198,0.015558,0.994019
2011-09-26T13:25:03.300923,11640,-0.250935,0.052766,0.081187,-0.130623,0.015201,0.993411
2011-09-26T13:25:03.310923,11650,-0.266373,0.022197,0.090928,-0.129047,0.014844,0.992803
2011-09-26T13:25:03.320923,11660,-0.281811,-0.008373,0.100668,-0.127472,0.014486,0.992196
2011-09-26T13:25:03.330923,11670,-0.297249,-0.038942,0.110409,-0.125896,0.014129,0.991588
2011-09-26T13:25:03.340923,11680,-0.312687,-0.069511,0.120149,-0.124321,0.013772,0.990980
2011-09-26T13:25:03.350923,11690,-0.328125,-0.100080,0.129890,-0.122745,0.013414,0.990373
2011-09-26T13:25:03.360923,11700,-0.343563,-0.130650,0.139631,-0.121170,0.013057,0.989765
2011-09-26T13:25:03.370923,11710,-0.333872,-0.135153,0.139777,-0.120528,0.013000,0.990347
2011-09-26T13:25:03.380923,11720,-0.322897,-0.138326,0.139434,-0.119933,0.012958,0.990990
2011-09-26T13:25:03.390923,11730,-0.311922,-0.141498,0.139090,-0.119338,0.012916,0.991632
2011-09-26T13:25:03.400923,11740,-0.300947,-0.144671,0.138747,-0.118743,0.012874,0.992275
2011-09-26T13:25:03.410923,11750,-0.289973,-0.147843,0.138403,-0.118148,0.012832,0.992917
2011-09-26T13:25:03.420923,11760,-0.278998,-0.151016,0.138060,-0.117554,0.012790,0.993560
2011-09-26T13:25:03.430923,11770,-0.268023,-0.154188,0.137717,-0.116959,0.012749,0.994203
2011-09-26T13:25:03.440923,11780,-0.257048,-0.157361,0.137373,-0.116364,0.012707,0.994845
2011-09-26T13:25:03.450923,11790,-0.246074,-0.160533,0.137030,-0.115769,0.012665,0.995488
2011-09-26T13:25:03.460923,11800,-0.235099,-0.163706,0.136686,-0.115174,0.012623,0.996131
2011-09-26T13:25:03.470923,11810,-0.224124,-0.166878,0.136343,-0.114580,0.012581,0.996773
2011-09-26T13:25:03.480923,11820,-0.214563,-0.149301,0.154805,-0.114456,0.012409,0.997414
2011-09-26T13:25:03.490923,11830,-0.205071,-0.130711,0.174184,-0.114356,0.012230,0.998055
2011-09-26T13:25:03.500923,11840,-0.195579,-0.112121,0.193563,-0.114255,0.012051,0.998696
2011-09-26T13:25:03.510923,11850,-0.186087,-0.093532,0.212942,-0.114155,0.011872,0.999337
2011-09-26T13:25:03.520923,11860,-0.176595,-0.074942,0.232321,-0.114055,0.011693,0.999978
2011-09-26T13:25:03.530923,11870,-0.167102,-0.056352,0.251700,-0.113954,0.011514,1.000619
2011-09-26T13:25:03.540923,11880,-0.157610,-0.037763,0.271079,-0.113854,0.011335,1.001260
2011-09-26T13:25:03.550923,11890,-0.148118,-0.019173,0.290458,-0.113753,0.011156,1.001901
2011-09-26T13:25:03.560923,11900,-0.138626,-0.000583,0.309837,-0.113653,0.010977,1.002542
2011-09-26T13:25:03.570923,11910,-0.129134,0.018007,0.329216,-0.113552,0.010798,1.003184
2011-09-26T13:25:03.580923,11920,-0.124372,0.044811,0.345000,-0.114882,0.011134,1.002972
2011-09-26T13:25:03.590923,11930,-0.119852,0.072036,0.360599,-0.116284,0.011495,1.002718
2011-09-26T13:25:03.600923,11940,-0.115333,0.099261,0.376199,-0.117687,0.011857,1.002463
2011-09-26T13:25:03.610923,11950,-0.110813,0.126486,0.391798,-0.119090,0.012218,1.002208
2011-09-26T13:25:03.620923,11960,-0.106293,0.153711,0.407398,-0.120492,0.012580,1.001954
2011-09-26T13:25:03.630923,11970,-0.101773,0.180936,0.422997,-0.121895,0.012942,1.001699
2011-09-26T13:25:03.640923,11980,-0.097254,0.208161,0.438597,-0.123297,0.013303,1.001444
2011-09-26T13:25:03.650923,11990,-0.092734,0.235386,0.454196,-0.124700,0.013665,1.001190
2011-09-26T13:25:03.660923,12000,-0.088214,0.262610,0.469796,-0.126102,0.014027,1.000935
2011-09-26T13:25:03.670923,12010,-0.083694,0.289835,0.485395,-0.127505,0.014388,1.000680
2011-09-26T13:25:03.680923,12020,-0.094144,0.278372,0.495489,-0.128510,0.014921,1.000650
2011-09-26T13:25:03.690923,12030,-0.105380,0.264874,0.505293,-0.129495,0.015463,1.000632
2011-09-26T13:25:03.700923,12040,-0.116617,0.251375,0.515098,-0.130480,0.016005,1.000613
2011-09-26T13:25:03.710923,12050,-0.127854,0.237877,0.524902,-0.131464,0.016547,1.000595
2011-09-26T13:25:03.720923,12060,-0.139091,0.224379,0.534706,-0.132449,0.017089,1.000577
2011-09-26T13:25:03.730923,12070,-0.150327,0.210880,0.544510,-0.133434,0.017630,1.000558
2011-09-26T13:25:03.740923,12080,-0.161564,0.197382,0.554315,-0.134418,0.018172,1.000540
2011-09-26T13:25:03.750923,12090,-0.172801,0.183884,0.564119,-0.135403,0.018714,1.000522
2011-09-26T13:25:03.760923,12100,-0.184037,0.170385,0.573923,-0.136388,0.019256,1.000503
2011-09-26T13:25:03.770923,12110,-0.195274,0.156887,0.583727,-0.137372,0.019798,1.000485
2011-09-26T13:25:03.780923,12120,-0.206511,0.143389,0.593531,-0.138357,0.020340,1.000467
2011-09-26T13:25:03.790923,12130,-0.178699,0.118145,0.594398,-0.140044,0.019794,1.000061
2011-09-26T13:25:03.800923,12140,-0.148531,0.092192,0.594726,-0.141773,0.019183,0.999633
2011-09-26T13:25:03.810923,12150,-0.118364,0.066240,0.595054,-0.143503,0.018571,0.999204
2011-09-26T13:25:03.820923,12160,-0.088196,0.040287,0.595382,-0.145232,0.017960,0.998775
2011-09-26T13:25:03.830923,12170,-0.058029,0.014335,0.595710,-0.146962,0.017349,0.998346
2011-09-26T13:25:03.840923,12180,-0.027861,-0.011618,0.596038,-0.148691,0.016737,0.997918
2011-09-26T13:25:03.850923,12190,0.002306,-0.037570,0.596366,-0.150420,0.016126,0.997489
2011-09-26T13:25:03.860923,12200,0.032474,-0.063523,0.596694,-0.152150,0.015514,0.997060
2011-09-26T13:25:03.870923,12210,0.062641,-0.089475,0.597021,-0.153879,0.014903,0.996632
2011-09-26T13:25:03.880923,12220,0.092809,-0.115427,0.597349,-0.155608,0.014292,0.996203
2011-09-26T13:25:03.890923,12230,0.084259,-0.075305,0.590585,-0.157220,0.015749,0.996474
2011-09-26T13:25:03.900923,12240,0.073531,-0.031465,0.583421,-0.158825,0.017323,0.996785
2011-09-26T13:25:03.910923,12250,0.062803,0.012375,0.576257,-0.160430,0.018897,0.997096
2011-09-26T13:25:03.920923,12260,0.052074,0.056216,0.569093,-0.162034,0.020471,0.997407
2011-09-26T13:25:03.930923,12270,0.041346,0.100056,0.561929,-0.163639,0.022045,0.997718
2011-09-26T13:25:03.940923,12280,0.030618,0.143896,0.554765,-0.165244,0.023619,0.998029
2011-09-26T13:25:03.950923,12290,0.019890,0.187736,0.547601,-0.166849,0.025193,0.998340
2011-09-26T13:25:03.960923,12300,0.009161,0.231577,0.540437,-0.168454,0.026766,0.998651
2011-09-26T13:25:03.970923,12310,-0.001567,0.275417,0.533273,-0.170058,0.028340,0.998962
2011-09-26T13:25:03.980923,12320,-0.012295,0.319257,0.526109,-0.171663,0.029914,0.999273
2011-09-26T13:25:03.990923,12330,-0.023024,0.363097,0.518945,-0.173268,0.031488,0.999583
2011-09-26T13:25:04.000923,12340,0.008971,0.367121,0.521060,-0.173364,0.029875,0.999821
2011-09-26T13:25:04.010923,12350,0.043190,0.369072,0.523659,-0.173382,0.028095,1.000055
2011-09-26T13:25:04.020923,12360,0.077409,0.371023,0.526258,-0.173399,0.026316,1.000288
2011-09-26T13:25:04.030923,12370,0.111629,0.372973,0.528857,-0.173417,0.024536,1.000522
2011-09-26T13:25:04.040923,12380,0.145848,0.374924,0.531455,-0.173434,0.022757,1.000755
2011-09-26T13:25:04.050923,12390,0.180067,0.376875,0.534054,-0.173452,0.020977,1.000989
2011-09-26T13:25:04.060923,12400,0.214286,0.378826,0.536653,-0.173469,0.019198,1.001223
2011-09-26T13:25:04.070923,12410,0.248505,0.380777,0.539252,-0.173487,0.017418,1.001456
2011-09-26T13:25:04.080923,12420,0.282724,0.382727,0.541850,-0.173504,0.015639,1.001690
2011-09-26T13:25:04.090923,12430,0.316943,0.384678,0.544449,-0.173522,0.013859,1.001923
2011-09-26T13:25:04.100923,12440,0.318111,0.416336,0.542337,-0.174654,0.014611,1.000899
2011-09-26T13:25:04.110923,12450,0.317396,0.449686,0.539957,-0.175849,0.015507,0.999803
2011-09-26T13:25:04.120923,12460,0.316681,0.483036,0.537576,-0.177045,0.016402,0.998707
2011-09-26T13:25:04.130923,12470,0.315966,0.516386,0.535196,-0.178240,0.017298,0.997611
2011-09-26T13:25:04.140923,12480,0.315251,0.549736,0.532816,-0.179436,0.018194,0.996515
2011-09-26T13:25:04.150923,12490,0.314536,0.583086,0.530435,-0.180631,0.019090,0.995419
2011-09-26T13:25:04.160923,12500,0.313821,0.616436,0.528055,-0.181827,0.019985,0.994323
2011-09-26T13:25:04.170923,12510,0.313107,0.649786,0.525675,-0.183022,0.020881,0.993227
2011-09-26T13:25:04.180923,12520,0.312392,0.683136,0.523294,-0.184218,0.021777,0.992131
2011-09-26T13:25:04.190923,12530,0.311677,0.716485,0.520914,-0.185413,0.022673,0.991035
2011-09-26T13:25:04.200923,12540,0.323612,0.740094,0.519388,-0.186291,0.022459,0.991260
2011-09-26T13:25:04.210923,12550,0.336229,0.763179,0.517909,-0.187153,0.022186,0.991556
2011-09-26T13:25:04.220923,12560,0.348845,0.786263,0.516430,-0.188014,0.021912,0.991851
2011-09-26T13:25:04.230923,12570,0.361462,0.809348,0.514950,-0.188875,0.021639,0.992147
2011-09-26T13:25:04.240923,12580,0.374078,0.832433,0.513471,-0.189736,0.021366,0.992442
2011-09-26T13:25:04.250923,12590,0.386694,0.855517,0.511991,-0.190597,0.021092,0.992738
2011-09-26T13:25:04.260923,12600,0.399311,0.878602,0.510512,-0.191458,0.020819,0.993033
2011-09-26T13:25:04.270923,12610,0.411927,0.901686,0.509032,-0.192320,0.020546,0.993329
2011-09-26T13:25:04.280923,12620,0.424543,0.924771,0.507553,-0.193181,0.020272,0.993625
2011-09-26T13:25:04.290923,12630,0.437160,0.947855,0.506073,-0.194042,0.019999,0.993920
2011-09-26T13:25:04.300923,12640,0.449776,0.970940,0.504594,-0.194903,0.019726,0.994216
2011-09-26T13:25:04.310923,12650,0.457803,0.922774,0.506131,-0.196533,0.019385,0.992835
2011-09-26T13:25:04.320923,12660,0.465542,0.870142,0.507857,-0.198211,0.019041,0.991349
2011-09-26T13:25:04.330923,12670,0.473282,0.817510,0.509582,-0.199888,0.018696,0.989863
2011-09-26T13:25:04.340923,12680,0.481021,0.764878,0.511308,-0.201566,0.018351,0.988377
2011-09-26T13:25:04.350923,12690,0.488760,0.712246,0.513034,-0.203244,0.018007,0.986891
2011-09-26T13:25:04.360923,12700,0.496500,0.659613,0.514760,-0.204922,0.017662,0.985405
2011-09-26T13:25:04.370923,12710,0.504239,0.606981,0.516486,-0.206600,0.017318,0.983919
2011-09-26T13:25:04.380923,12720,0.511978,0.554349,0.518212,-0.208278,0.016973,0.982433
2011-09-26T13:25:04.390923,12730,0.519717,0.501717,0.519937,-0.209956,0.016628,0.980947
2011-09-26T13:25:04.400923,12740,0.527457,0.449085,0.521663,-0.211633,0.016284,0.979461
2011-09-26T13:25:04.410923,12750,0.499113,0.444291,0.520450,-0.212335,0.016988,0.979978
2011-09-26T13:25:04.420923,12760,0.468677,0.442269,0.519067,-0.212981,0.017752,0.980611
2011-09-26T13:25:04.430923,12770,0.438241,0.440248,0.517684,-0.213626,0.018517,0.981243
2011-09-26T13:25:04.440923,12780,0.407805,0.438227,0.516301,-0.214272,0.019281,0.981876
2011-09-26T13:25:04.450923,12790,0.377370,0.436205,0.514918,-0.214917,0.020046,0.982509
2011-09-26T13:25:04.460923,12800,0.346934,0.434184,0.513535,-0.215563,0.020810,0.983142
2011-09-26T13:25:04.470923,12810,0.316498,0.432162,0.512151,-0.216208,0.021575,0.983775
2011-09-26T13:25:04.480923,12820,0.286063,0.430141,0.510768,-0.216854,0.022340,0.984408
2011-09-26T13:25:04.490923,12830,0.255627,0.428119,0.509385,-0.217499,0.023104,0.985041
2011-09-26T13:25:04.500923,12840,0.225191,0.426098,0.508002,-0.218145,0.023869,0.985673
2011-09-26T13:25:04.510923,12850,0.220705,0.417809,0.503118,-0.219316,0.023554,0.986246
2011-09-26T13:25:04.520923,12860,0.217685,0.409166,0.498036,-0.220517,0.023178,0.986816
2011-09-26T13:25:04.530923,12870,0.214665,0.400523,0.492954,-0.221718,0.022802,0.987385
2011-09-26T13:25:04.540923,12880,0.211645,0.391881,0.487871,-0.222920,0.022427,0.987955
2011-09-26T13:25:04.550923,12890,0.208625,0.383238,0.482789,-0.224121,0.022051,0.988525
2011-09-26T13:25:04.560923,12900,0.205605,0.374595,0.477707,-0.225322,0.021675,0.989094
2011-09-26T13:25:04.570923,12910,0.202585,0.365952,0.472625,-0.226523,0.021299,0.989664
2011-09-26T13:25:04.580923,12920,0.199565,0.357309,0.467543,-0.227724,0.020923,0.990233
2011-09-26T13:25:04.590923,12930,0.196545,0.348666,0.462461,-0.228925,0.020548,0.990803
2011-09-26T13:25:04.600923,12940,0.193525,0.340023,0.457379,-0.230126,0.020172,0.991372
2011-09-26T13:25:04.610923,12950,0.190505,0.331380,0.452297,-0.231328,0.019796,0.991942
2011-09-26T13:25:04.620923,12960,0.189146,0.329372,0.455419,-0.231488,0.019777,0.992229
2011-09-26T13:25:04.630923,12970,0.187879,0.327733,0.458997,-0.231591,0.019778,0.992501
2011-09-26T13:25:04.640923,12980,0.186613,0.326093,0.462575,-0.231694,0.019778,0.992772
2011-09-26T13:25:04.650923,12990,0.185347,0.324453,0.466152,-0.231797,0.019779,0.993044
2011-09-26T13:25:04.660923,13000,0.184080,0.322813,0.469730,-0.231900,0.019780,0.993316
2011-09-26T13:25:04.670923,13010,0.182814,0.321174,0.473308,-0.232003,0.019781,0.993587
2011-09-26T13:25:04.680923,13020,0.181547,0.319534,0.476885,-0.232105,0.019781,0.993859
2011-09-26T13:25:04.690923,13030,0.180281,0.317894,0.480463,-0.232208,0.019782,0.994130
2011-09-26T13:25:04.700923,13040,0.179014,0.316254,0.484041,-0.232311,0.019783,0.994402
2011-09-26T13:25:04.710923,13050,0.177748,0.314615,0.487619,-0.232414,0.019784,0.994674
2011-09-26T13:25:04.720923,13060,0.203381,0.296074,0.490833,-0.232655,0.019298,0.994292
2011-09-26T13:25:04.730923,13070,0.231196,0.276164,0.494017,-0.232908,0.018773,0.993858
2011-09-26T13:25:04.740923,13080,0.259010,0.256254,0.497202,-0.233160,0.018248,0.993424
2011-09-26T13:25:04.750923,13090,0.286825,0.236343,0.500387,-0.233412,0.017723,0.992990
2011-09-26T13:25:04.760923,13100,0.314639,0.216433,0.503572,-0.233665,0.017199,0.992555
2011-09-26T13:25:04.770923,13110,0.342453,0.196523,0.506756,-0.233917,0.016674,0.992121
2011-09-26T13:25:04.780923,13120,0.370268,0.176612,0.509941,-0.234169,0.016149,0.991687
2011-09-26T13:25:04.790923,13130,0.398082,0.156702,0.513126,-0.234421,0.015624,0.991253
2011-09-26T13:25:04.800923,13140,0.425897,0.136792,0.516310,-0.234674,0.015099,0.990818
2011-09-26T13:25:04.810923,13150,0.453711,0.116881,0.519495,-0.234926,0.014574,0.990384
2011-09-26T13:25:04.820923,13160,0.481526,0.096971,0.522680,-0.235178,0.014049,0.989950
2011-09-26T13:25:04.830923,13170,0.464256,0.074681,0.515370,-0.235062,0.014677,0.990640
2011-09-26T13:25:04.840923,13180,0.443499,0.052207,0.507250,-0.234917,0.015394,0.991418
2011-09-26T13:25:04.850923,13190,0.422743,0.029734,0.499129,-0.234771,0.016111,0.992196
2011-09-26T13:25:04.860923,13200,0.401986,0.007260,0.491008,-0.234626,0.016828,0.992973
2011-09-26T13:25:04.870923,13210,0.381230,-0.015214,0.482888,-0.234481,0.017544,0.993751
2011-09-26T13:25:04.880923,13220,0.360473,-0.037687,0.474767,-0.234336,0.018261,0.994529
2011-09-26T13:25:04.890923,13230,0.339717,-0.060161,0.466646,-0.234190,0.018978,0.995306
2011-09-26T13:25:04.900923,13240,0.318961,-0.082635,0.458525,-0.234045,0.019695,0.996084
2011-09-26T13:25:04.910923,13250,0.298204,-0.105108,0.450405,-0.233900,0.020412,0.996861
2011-09-26T13:25:04.920923,13260,0.277448,-0.127582,0.442284,-0.233755,0.021129,0.997639
2011-09-26T13:25:04.930923,13270,0.282321,-0.134521,0.442495,-0.233553,0.020863,0.997158
2011-09-26T13:25:04.940923,13280,0.288755,-0.140514,0.443213,-0.233348,0.020536,0.996600
2011-09-26T13:25:04.950923,13290,0.295189,-0.146507,0.443932,-0.233143,0.020210,0.996042
2011-09-26T13:25:04.960923,13300,0.301624,-0.152500,0.444650,-0.232938,0.019883,0.995484
2011-09-26T13:25:04.970923,13310,0.308058,-0.158494,0.445368,-0.232733,0.019557,0.994926
2011-09-26T13:25:04.980923,13320,0.314492,-0.164487,0.446087,-0.232528,0.019230,0.994368
2011-09-26T13:25:04.990923,13330,0.320926,-0.170480,0.446805,-0.232323,0.018904,0.993810
2011-09-26T13:25:05.000923,13340,0.327360,-0.176473,0.447523,-0.232118,0.018577,0.993252
2011-09-26T13:25:05.010923,13350,0.333794,-0.182466,0.448242,-0.231913,0.018251,0.992694
2011-09-26T13:25:05.020923,13360,0.340228,-0.188459,0.448960,-0.231708,0.017924,0.992136
2011-09-26T13:25:05.030923,13370,0.349161,-0.168937,0.455553,-0.230900,0.018658,0.992422
2011-09-26T13:25:05.040923,13380,0.358241,-0.147915,0.462490,-0.230057,0.019454,0.992758
2011-09-26T13:25:05.050923,13390,0.367321,-0.126893,0.469428,-0.229214,0.020250,0.993094
2011-09-26T13:25:05.060923,13400,0.376401,-0.105871,0.476365,-0.228371,0.021046,0.993430
2011-09-26T13:25:05.070923,13410,0.385480,-0.084850,0.483303,-0.227527,0.021842,0.993766
2011-09-26T13:25:05.080923,13420,0.394560,-0.063828,0.490241,-0.226684,0.022638,0.994102
2011-09-26T13:25:05.090923,13430,0.403640,-0.042806,0.497178,-0.225841,0.023434,0.994438
2011-09-26T13:25:05.100923,13440,0.412720,-0.021784,0.504116,-0.224998,0.024231,0.994774
2011-09-26T13:25:05.110923,13450,0.421799,-0.000762,0.511053,-0.224155,0.025027,0.995110
2011-09-26T13:25:05.120923,13460,0.430879,0.020259,0.517991,-0.223312,0.025823,0.995446
2011-09-26T13:25:05.130923,13470,0.439959,0.041281,0.524928,-0.222469,0.026619,0.995782
2011-09-26T13:25:05.140923,13480,0.403720,0.027094,0.515380,-0.220647,0.026101,0.996015
2011-09-26T13:25:05.150923,13490,0.364599,0.010668,0.504783,-0.218764,0.025500,0.996242
2011-09-26T13:25:05.160923,13500,0.325478,-0.005758,0.494186,-0.216880,0.024899,0.996469
2011-09-26T13:25:05.170923,13510,0.286357,-0.022184,0.483589,-0.214996,0.024298,0.996695
2011-09-26T13:25:05.180923,13520,0.247236,-0.038611,0.472991,-0.213113,0.023697,0.996922
2011-09-26T13:25:05.190923,13530,0.208115,-0.055037,0.462394,-0.211229,0.023097,0.997149
2011-09-26T13:25:05.200923,13540,0.168994,-0.071463,0.451797,-0.209345,0.022496,0.997376
2011-09-26T13:25:05.210923,13550,0.129873,-0.087889,0.441200,-0.207462,0.021895,0.997602
