pc_time,ts_ms,gyroX,gyroY,gyroZ,accelX,accelY,accelZ
2011-09-26T14:43:57.483373,0,0.041510,-0.012892,-3.947196,0.021224,0.005342,1.003280
2011-09-26T14:43:57.493373,10,0.045390,-0.010592,-4.000592,0.020684,0.005822,1.003321
2011-09-26T14:43:57.503373,20,0.049270,-0.008292,-4.053988,0.020144,0.006302,1.003361
2011-09-26T14:43:57.513373,30,0.053151,-0.005992,-4.107384,0.019605,0.006781,1.003401
2011-09-26T14:43:57.523373,40,0.057031,-0.003692,-4.160781,0.019065,0.007261,1.003442
2011-09-26T14:43:57.533373,50,0.060911,-0.001392,-4.214177,0.018525,0.007741,1.003482
2011-09-26T14:43:57.543373,60,0.064792,0.000908,-4.267573,0.017986,0.008221,1.003522
2011-09-26T14:43:57.553373,70,0.068672,0.003208,-4.320969,0.017446,0.008701,1.003563
2011-09-26T14:43:57.563373,80,0.072552,0.005508,-4.374366,0.016906,0.009181,1.003603
2011-09-26T14:43:57.573373,90,0.076433,0.007808,-4.427762,0.016367,0.009661,1.003643
2011-09-26T14:43:57.583373,100,0.080313,0.010108,-4.481158,0.015827,0.010140,1.003684
2011-09-26T14:43:57.593373,110,0.084478,0.011555,-4.520610,0.015221,0.010623,1.003542
2011-09-26T14:43:57.603373,120,0.088927,0.012155,-4.546195,0.014548,0.011109,1.003219
2011-09-26T14:43:57.613373,130,0.093376,0.012754,-4.571780,0.013876,0.011595,1.002895
2011-09-26T14:43:57.623373,140,0.097825,0.013353,-4.597365,0.013203,0.012080,1.002572
2011-09-26T14:43:57.633373,150,0.102273,0.013952,-4.622951,0.012531,0.012566,1.002249
2011-09-26T14:43:57.643373,160,0.106722,0.014551,-4.648536,0.011858,0.013052,1.001926
2011-09-26T14:43:57.653373,170,0.111171,0.015150,-4.674121,0.011186,0.013538,1.001602
2011-09-26T14:43:57.663373,180,0.115620,0.015749,-4.699706,0.010514,0.014023,1.001279
2011-09-26T14:43:57.673373,190,0.120069,0.016348,-4.725291,0.009841,0.014509,1.000956
2011-09-26T14:43:57.683373,200,0.124517,0.016947,-4.750876,0.009169,0.014995,1.000633
2011-09-26T14:43:57.693373,210,0.128421,0.019178,-4.803152,0.008624,0.015475,1.000658
2011-09-26T14:43:57.703373,220,0.131784,0.023025,-4.881831,0.008205,0.015949,1.001029
2011-09-26T14:43:57.713373,230,0.135148,0.026871,-4.960509,0.007786,0.016424,1.001400
2011-09-26T14:43:57.723373,240,0.138511,0.030718,-5.039188,0.007367,0.016898,1.001771
2011-09-26T14:43:57.733373,250,0.141875,0.034564,-5.117866,0.006948,0.017373,1.002142
2011-09-26T14:43:57.743373,260,0.145238,0.038410,-5.196545,0.006529,0.017847,1.002513
2011-09-26T14:43:57.753373,270,0.148602,0.042257,-5.275223,0.006110,0.018322,1.002884
2011-09-26T14:43:57.763373,280,0.151965,0.046103,-5.353902,0.005691,0.018797,1.003254
2011-09-26T14:43:57.773373,290,0.155329,0.049950,-5.432580,0.005272,0.019271,1.003625
2011-09-26T14:43:57.783373,300,0.158693,0.053796,-5.511259,0.004853,0.019746,1.003996
2011-09-26T14:43:57.793373,310,0.162056,0.057642,-5.589937,0.004434,0.020220,1.004367
2011-09-26T14:43:57.803373,320,0.186311,0.056058,-5.681066,0.003717,0.019588,1.004124
2011-09-26T14:43:57.813373,330,0.231117,0.049132,-5.784441,0.002708,0.017868,1.003276
2011-09-26T14:43:57.823373,340,0.275923,0.042206,-5.887817,0.001699,0.016148,1.002429
2011-09-26T14:43:57.833373,350,0.320729,0.035279,-5.991192,0.000690,0.014427,1.001581
2011-09-26T14:43:57.843373,360,0.365536,0.028353,-6.094568,-0.000319,0.012707,1.000733
2011-09-26T14:43:57.853373,370,0.410342,0.021427,-6.197944,-0.001328,0.010986,0.999886
2011-09-26T14:43:57.863373,380,0.455148,0.014500,-6.301319,-0.002337,0.009266,0.999038
2011-09-26T14:43:57.873373,390,0.499954,0.007574,-6.404695,-0.003346,0.007546,0.998191
2011-09-26T14:43:57.883373,400,0.544760,0.000648,-6.508070,-0.004355,0.005825,0.997343
2011-09-26T14:43:57.893373,410,0.589566,-0.006279,-6.611446,-0.005363,0.004105,0.996496
2011-09-26T14:43:57.903373,420,0.608624,-0.031436,-6.698641,-0.005055,0.003858,0.995743
2011-09-26T14:43:57.913373,430,0.602065,-0.074729,-6.769739,-0.003436,0.005077,0.995086
2011-09-26T14:43:57.923373,440,0.595507,-0.118023,-6.840838,-0.001817,0.006296,0.994428
2011-09-26T14:43:57.933373,450,0.588948,-0.161317,-6.911936,-0.000198,0.007515,0.993771
2011-09-26T14:43:57.943373,460,0.582390,-0.204610,-6.983034,0.001421,0.008734,0.993113
2011-09-26T14:43:57.953373,470,0.575831,-0.247904,-7.054132,0.003040,0.009953,0.992456
2011-09-26T14:43:57.963373,480,0.569273,-0.291198,-7.125231,0.004659,0.011172,0.991798
2011-09-26T14:43:57.973373,490,0.562714,-0.334492,-7.196329,0.006278,0.012391,0.991141
2011-09-26T14:43:57.983373,500,0.556155,-0.377785,-7.267427,0.007897,0.013610,0.990484
2011-09-26T14:43:57.993373,510,0.549597,-0.421079,-7.338526,0.009516,0.014829,0.989826
2011-09-26T14:43:58.003373,520,0.543038,-0.464373,-7.409624,0.011134,0.016048,0.989169
2011-09-26T14:43:58.013373,530,0.536480,-0.507666,-7.480722,0.012753,0.017267,0.988511
2011-09-26T14:43:58.023373,540,0.529921,-0.550960,-7.551821,0.014372,0.018486,0.987854
2011-09-26T14:43:58.033373,550,0.500083,-0.584398,-7.638308,0.016294,0.019447,0.987441
2011-09-26T14:43:58.043373,560,0.444101,-0.606767,-7.742080,0.018555,0.020119,0.987304
2011-09-26T14:43:58.053373,570,0.388119,-0.629136,-7.845851,0.020816,0.020791,0.987167
2011-09-26T14:43:58.063373,580,0.332137,-0.651505,-7.949622,0.023077,0.021463,0.987031
2011-09-26T14:43:58.073373,590,0.276155,-0.673874,-8.053393,0.025338,0.022135,0.986894
2011-09-26T14:43:58.083373,600,0.220173,-0.696243,-8.157164,0.027599,0.022807,0.986757
2011-09-26T14:43:58.093373,610,0.164190,-0.718612,-8.260935,0.029860,0.023479,0.986620
2011-09-26T14:43:58.103373,620,0.108208,-0.740981,-8.364706,0.032121,0.024151,0.986483
2011-09-26T14:43:58.113373,630,0.038935,-0.761161,-8.481208,0.034403,0.023922,0.986616
2011-09-26T14:43:58.123373,640,-0.044468,-0.779013,-8.611243,0.036706,0.022734,0.987035
2011-09-26T14:43:58.133373,650,-0.127871,-0.796865,-8.741278,0.039009,0.021546,0.987454
2011-09-26T14:43:58.143373,660,-0.211274,-0.814718,-8.871313,0.041313,0.020358,0.987873
2011-09-26T14:43:58.153373,670,-0.294677,-0.832570,-9.001347,0.043616,0.019170,0.988293
2011-09-26T14:43:58.163373,680,-0.378080,-0.850422,-9.131382,0.045919,0.017982,0.988712
2011-09-26T14:43:58.173373,690,-0.461483,-0.868274,-9.261417,0.048223,0.016795,0.989131
2011-09-26T14:43:58.183373,700,-0.544886,-0.886127,-9.391452,0.050526,0.015607,0.989551
2011-09-26T14:43:58.193373,710,-0.628289,-0.903979,-9.521487,0.052829,0.014419,0.989970
2011-09-26T14:43:58.203373,720,-0.711692,-0.921831,-9.651522,0.055133,0.013231,0.990389
2011-09-26T14:43:58.213373,730,-0.764422,-0.940965,-9.791028,0.057015,0.011747,0.991150
2011-09-26T14:43:58.223373,740,-0.786404,-0.961382,-9.940029,0.058475,0.009966,0.992254
2011-09-26T14:43:58.233373,750,-0.808386,-0.981800,-10.089030,0.059935,0.008185,0.993358
2011-09-26T14:43:58.243373,760,-0.830368,-1.002217,-10.238031,0.061395,0.006404,0.994462
2011-09-26T14:43:58.253373,770,-0.852351,-1.022635,-10.387032,0.062855,0.004623,0.995565
2011-09-26T14:43:58.263373,780,-0.874333,-1.043052,-10.536033,0.064315,0.002842,0.996669
2011-09-26T14:43:58.273373,790,-0.896315,-1.063470,-10.685034,0.065775,0.001061,0.997773
2011-09-26T14:43:58.283373,800,-0.918297,-1.083887,-10.834034,0.067235,-0.000721,0.998877
2011-09-26T14:43:58.293373,810,-0.940279,-1.104305,-10.983035,0.068695,-0.002502,0.999980
2011-09-26T14:43:58.303373,820,-0.962261,-1.124723,-11.132036,0.070155,-0.004283,1.001084
2011-09-26T14:43:58.313373,830,-0.984243,-1.145140,-11.281037,0.071615,-0.006064,1.002188
2011-09-26T14:43:58.323373,840,-0.965769,-1.147479,-11.439263,0.072939,-0.007587,1.003031
2011-09-26T14:43:58.333373,850,-0.906839,-1.131738,-11.606715,0.074126,-0.008854,1.003614
2011-09-26T14:43:58.343373,860,-0.847909,-1.115997,-11.774166,0.075313,-0.010120,1.004196
2011-09-26T14:43:58.353373,870,-0.788979,-1.100256,-11.941617,0.076501,-0.011386,1.004779
2011-09-26T14:43:58.363373,880,-0.730049,-1.084516,-12.109069,0.077688,-0.012652,1.005361
2011-09-26T14:43:58.373373,890,-0.671119,-1.068775,-12.276520,0.078875,-0.013918,1.005944
2011-09-26T14:43:58.383373,900,-0.612189,-1.053034,-12.443971,0.080062,-0.015184,1.006526
2011-09-26T14:43:58.393373,910,-0.553259,-1.037293,-12.611422,0.081249,-0.016451,1.007109
2011-09-26T14:43:58.403373,920,-0.494329,-1.021552,-12.778874,0.082437,-0.017717,1.007691
2011-09-26T14:43:58.413373,930,-0.435399,-1.005812,-12.946325,0.083624,-0.018983,1.008274
2011-09-26T14:43:58.423373,940,-0.398400,-0.989230,-13.120996,0.084638,-0.019741,1.008214
2011-09-26T14:43:58.433373,950,-0.383364,-0.971805,-13.302897,0.085480,-0.019990,1.007512
2011-09-26T14:43:58.443373,960,-0.368329,-0.954380,-13.484799,0.086321,-0.020239,1.006809
2011-09-26T14:43:58.453373,970,-0.353294,-0.936956,-13.666701,0.087163,-0.020488,1.006107
2011-09-26T14:43:58.463373,980,-0.338259,-0.919531,-13.848602,0.088004,-0.020736,1.005405
2011-09-26T14:43:58.473373,990,-0.323224,-0.902106,-14.030504,0.088846,-0.020985,1.004702
2011-09-26T14:43:58.483373,1000,-0.308189,-0.884682,-14.212405,0.089687,-0.021234,1.004000
2011-09-26T14:43:58.493373,1010,-0.293154,-0.867257,-14.394307,0.090529,-0.021483,1.003297
2011-09-26T14:43:58.503373,1020,-0.278118,-0.849832,-14.576209,0.091370,-0.021732,1.002595
2011-09-26T14:43:58.513373,1030,-0.263083,-0.832408,-14.758110,0.092212,-0.021981,1.001893
2011-09-26T14:43:58.523373,1040,-0.273881,-0.829462,-14.940512,0.092777,-0.022111,1.000752
2011-09-26T14:43:58.533373,1050,-0.310615,-0.841053,-15.123415,0.093063,-0.022123,0.999172
2011-09-26T14:43:58.543373,1060,-0.347349,-0.852644,-15.306318,0.093350,-0.022135,0.997592
2011-09-26T14:43:58.553373,1070,-0.384083,-0.864235,-15.489222,0.093637,-0.022146,0.996011
2011-09-26T14:43:58.563373,1080,-0.420818,-0.875826,-15.672125,0.093924,-0.022158,0.994431
2011-09-26T14:43:58.573373,1090,-0.457552,-0.887418,-15.855028,0.094210,-0.022170,0.992851
2011-09-26T14:43:58.583373,1100,-0.494286,-0.899009,-16.037932,0.094497,-0.022181,0.991270
2011-09-26T14:43:58.593373,1110,-0.531020,-0.910600,-16.220835,0.094784,-0.022193,0.989690
2011-09-26T14:43:58.603373,1120,-0.567754,-0.922191,-16.403738,0.095071,-0.022205,0.988110
2011-09-26T14:43:58.613373,1130,-0.604488,-0.933782,-16.586642,0.095358,-0.022216,0.986530
2011-09-26T14:43:58.623373,1140,-0.641223,-0.945373,-16.769545,0.095644,-0.022228,0.984949
2011-09-26T14:43:58.633373,1150,-0.674546,-0.960326,-16.962490,0.095492,-0.022713,0.985366
2011-09-26T14:43:58.643373,1160,-0.704391,-0.978706,-17.165675,0.094891,-0.023681,0.987820
2011-09-26T14:43:58.653373,1170,-0.734236,-0.997086,-17.368861,0.094290,-0.024649,0.990273
2011-09-26T14:43:58.663373,1180,-0.764082,-1.015466,-17.572046,0.093689,-0.025617,0.992727
2011-09-26T14:43:58.673373,1190,-0.793927,-1.033846,-17.775231,0.093089,-0.026585,0.995181
2011-09-26T14:43:58.683373,1200,-0.823772,-1.052226,-17.978416,0.092488,-0.027553,0.997634
2011-09-26T14:43:58.693373,1210,-0.853617,-1.070606,-18.181602,0.091887,-0.028521,1.000088
2011-09-26T14:43:58.703373,1220,-0.883462,-1.088986,-18.384787,0.091286,-0.029489,1.002542
2011-09-26T14:43:58.713373,1230,-0.913308,-1.107366,-18.587972,0.090685,-0.030457,1.004995
2011-09-26T14:43:58.723373,1240,-0.943153,-1.125746,-18.791158,0.090084,-0.031426,1.007449
2011-09-26T14:43:58.733373,1250,-0.984790,-1.109525,-18.978754,0.089678,-0.034084,1.009985
2011-09-26T14:43:58.743373,1260,-1.038272,-1.058551,-19.150692,0.089467,-0.038440,1.012603
2011-09-26T14:43:58.753373,1270,-1.091753,-1.007576,-19.322630,0.089256,-0.042796,1.015222
2011-09-26T14:43:58.763373,1280,-1.145234,-0.956602,-19.494569,0.089045,-0.047152,1.017840
2011-09-26T14:43:58.773373,1290,-1.198716,-0.905627,-19.666507,0.088834,-0.051508,1.020459
2011-09-26T14:43:58.783373,1300,-1.252197,-0.854653,-19.838446,0.088623,-0.055864,1.023077
2011-09-26T14:43:58.793373,1310,-1.305679,-0.803678,-20.010384,0.088412,-0.060220,1.025696
2011-09-26T14:43:58.803373,1320,-1.359160,-0.752704,-20.182322,0.088201,-0.064576,1.028314
2011-09-26T14:43:58.813373,1330,-1.412642,-0.701730,-20.354261,0.087990,-0.068932,1.030933
2011-09-26T14:43:58.823373,1340,-1.466123,-0.650755,-20.526199,0.087779,-0.073289,1.033551
2011-09-26T14:43:58.833373,1350,-1.437441,-0.573811,-20.680634,0.087824,-0.076069,1.033939
2011-09-26T14:43:58.843373,1360,-1.326266,-0.470792,-20.817494,0.088126,-0.077267,1.032088
2011-09-26T14:43:58.853373,1370,-1.215091,-0.367774,-20.954355,0.088428,-0.078465,1.030237
2011-09-26T14:43:58.863373,1380,-1.103916,-0.264755,-21.091215,0.088730,-0.079663,1.028385
2011-09-26T14:43:58.873373,1390,-0.992741,-0.161737,-21.228076,0.089032,-0.080861,1.026534
2011-09-26T14:43:58.883373,1400,-0.881566,-0.058718,-21.364936,0.089333,-0.082059,1.024683
2011-09-26T14:43:58.893373,1410,-0.770392,0.044300,-21.501797,0.089635,-0.083257,1.022832
2011-09-26T14:43:58.903373,1420,-0.659217,0.147319,-21.638657,0.089937,-0.084455,1.020980
2011-09-26T14:43:58.913373,1430,-0.548042,0.250338,-21.775518,0.090239,-0.085653,1.019129
2011-09-26T14:43:58.923373,1440,-0.436867,0.353356,-21.912378,0.090541,-0.086851,1.017278
2011-09-26T14:43:58.933373,1450,-0.325692,0.456375,-22.049239,0.090843,-0.088049,1.015426
2011-09-26T14:43:58.943373,1460,-0.243391,0.523885,-22.197155,0.090821,-0.088822,1.013073
2011-09-26T14:43:58.953373,1470,-0.190429,0.555318,-22.356303,0.090470,-0.089163,1.010211
2011-09-26T14:43:58.963373,1480,-0.137467,0.586751,-22.515451,0.090119,-0.089504,1.007348
2011-09-26T14:43:58.973373,1490,-0.084504,0.618183,-22.674599,0.089768,-0.089845,1.004485
2011-09-26T14:43:58.983373,1500,-0.031542,0.649616,-22.833747,0.089417,-0.090186,1.001622
2011-09-26T14:43:58.993373,1510,0.021421,0.681049,-22.992895,0.089066,-0.090527,0.998759
2011-09-26T14:43:59.003373,1520,0.074383,0.712482,-23.152043,0.088715,-0.090868,0.995896
2011-09-26T14:43:59.013373,1530,0.127346,0.743914,-23.311191,0.088364,-0.091209,0.993034
2011-09-26T14:43:59.023373,1540,0.180308,0.775347,-23.470339,0.088013,-0.091550,0.990171
2011-09-26T14:43:59.033373,1550,0.233271,0.806780,-23.629487,0.087662,-0.091891,0.987308
2011-09-26T14:43:59.043373,1560,0.267258,0.797416,-23.776857,0.087496,-0.092413,0.985851
2011-09-26T14:43:59.053373,1570,0.279815,0.741974,-23.910923,0.087537,-0.093141,0.985983
2011-09-26T14:43:59.063373,1580,0.292372,0.686532,-24.044990,0.087579,-0.093868,0.986114
2011-09-26T14:43:59.073373,1590,0.304928,0.631090,-24.179056,0.087621,-0.094596,0.986246
2011-09-26T14:43:59.083373,1600,0.317485,0.575648,-24.313123,0.087662,-0.095323,0.986378
2011-09-26T14:43:59.093373,1610,0.330041,0.520205,-24.447189,0.087704,-0.096051,0.986509
2011-09-26T14:43:59.103373,1620,0.342598,0.464763,-24.581256,0.087746,-0.096778,0.986641
2011-09-26T14:43:59.113373,1630,0.355155,0.409321,-24.715322,0.087787,-0.097506,0.986772
2011-09-26T14:43:59.123373,1640,0.367711,0.353879,-24.849389,0.087829,-0.098233,0.986904
2011-09-26T14:43:59.133373,1650,0.380268,0.298437,-24.983455,0.087871,-0.098961,0.987036
2011-09-26T14:43:59.143373,1660,0.392825,0.242995,-25.117522,0.087912,-0.099688,0.987167
2011-09-26T14:43:59.153373,1670,0.350848,0.205678,-25.259133,0.088242,-0.100131,0.987929
2011-09-26T14:43:59.163373,1680,0.251903,0.187295,-25.408624,0.088872,-0.100277,0.989349
2011-09-26T14:43:59.173373,1690,0.152959,0.168912,-25.558116,0.089503,-0.100422,0.990770
2011-09-26T14:43:59.183373,1700,0.054015,0.150529,-25.707608,0.090133,-0.100568,0.992190
2011-09-26T14:43:59.193373,1710,-0.044929,0.132146,-25.857100,0.090763,-0.100713,0.993611
2011-09-26T14:43:59.203373,1720,-0.143873,0.113763,-26.006592,0.091394,-0.100859,0.995031
2011-09-26T14:43:59.213373,1730,-0.242817,0.095380,-26.156083,0.092024,-0.101005,0.996451
2011-09-26T14:43:59.223373,1740,-0.341761,0.076997,-26.305575,0.092655,-0.101150,0.997872
2011-09-26T14:43:59.233373,1750,-0.440705,0.058614,-26.455067,0.093285,-0.101296,0.999292
2011-09-26T14:43:59.243373,1760,-0.539649,0.040231,-26.604559,0.093915,-0.101441,1.000712
2011-09-26T14:43:59.253373,1770,-0.587468,0.020406,-26.750085,0.093744,-0.102938,1.001288
2011-09-26T14:43:59.263373,1780,-0.583066,-0.000894,-26.891561,0.092752,-0.105814,1.001000
2011-09-26T14:43:59.273373,1790,-0.578664,-0.022193,-27.033036,0.091761,-0.108691,1.000712
2011-09-26T14:43:59.283373,1800,-0.574262,-0.043493,-27.174512,0.090770,-0.111567,1.000425
2011-09-26T14:43:59.293373,1810,-0.569860,-0.064792,-27.315988,0.089779,-0.114444,1.000137
2011-09-26T14:43:59.303373,1820,-0.565458,-0.086091,-27.457463,0.088788,-0.117320,0.999849
2011-09-26T14:43:59.313373,1830,-0.561056,-0.107391,-27.598939,0.087797,-0.120197,0.999561
2011-09-26T14:43:59.323373,1840,-0.556654,-0.128690,-27.740415,0.086806,-0.123073,0.999273
2011-09-26T14:43:59.333373,1850,-0.552252,-0.149990,-27.881890,0.085815,-0.125950,0.998986
2011-09-26T14:43:59.343373,1860,-0.547850,-0.171289,-28.023366,0.084824,-0.128826,0.998698
2011-09-26T14:43:59.353373,1870,-0.515434,-0.225356,-28.135407,0.084445,-0.131803,0.999081
2011-09-26T14:43:59.363373,1880,-0.454394,-0.312906,-28.217371,0.084694,-0.134884,1.000148
2011-09-26T14:43:59.373373,1890,-0.393353,-0.400456,-28.299335,0.084942,-0.137964,1.001216
2011-09-26T14:43:59.383373,1900,-0.332313,-0.488006,-28.381300,0.085190,-0.141045,1.002284
2011-09-26T14:43:59.393373,1910,-0.271272,-0.575556,-28.463264,0.085438,-0.144125,1.003352
2011-09-26T14:43:59.403373,1920,-0.210232,-0.663106,-28.545228,0.085686,-0.147206,1.004419
2011-09-26T14:43:59.413373,1930,-0.149191,-0.750656,-28.627192,0.085934,-0.150286,1.005487
2011-09-26T14:43:59.423373,1940,-0.088151,-0.838206,-28.709157,0.086183,-0.153367,1.006555
2011-09-26T14:43:59.433373,1950,-0.027110,-0.925756,-28.791121,0.086431,-0.156447,1.007622
2011-09-26T14:43:59.443373,1960,0.033930,-1.013306,-28.873085,0.086679,-0.159528,1.008690
2011-09-26T14:43:59.453373,1970,0.094971,-1.100856,-28.955049,0.086927,-0.162609,1.009758
2011-09-26T14:43:59.463373,1980,0.135721,-1.138938,-29.057009,0.087657,-0.163622,1.009848
2011-09-26T14:43:59.473373,1990,0.155698,-1.126376,-29.179439,0.088881,-0.162521,1.008937
2011-09-26T14:43:59.483373,2000,0.175674,-1.113814,-29.301869,0.090105,-0.161419,1.008027
2011-09-26T14:43:59.493373,2010,0.195651,-1.101252,-29.424300,0.091329,-0.160317,1.007116
2011-09-26T14:43:59.503373,2020,0.215628,-1.088690,-29.546730,0.092553,-0.159215,1.006205
2011-09-26T14:43:59.513373,2030,0.235604,-1.076127,-29.669160,0.093777,-0.158113,1.005295
2011-09-26T14:43:59.523373,2040,0.255581,-1.063565,-29.791591,0.095001,-0.157011,1.004384
2011-09-26T14:43:59.533373,2050,0.275558,-1.051003,-29.914021,0.096224,-0.155909,1.003473
2011-09-26T14:43:59.543373,2060,0.295534,-1.038441,-30.036451,0.097448,-0.154807,1.002563
2011-09-26T14:43:59.553373,2070,0.315511,-1.025879,-30.158882,0.098672,-0.153705,1.001652
2011-09-26T14:43:59.563373,2080,0.288044,-1.000838,-30.293000,0.099475,-0.153279,1.001283
2011-09-26T14:43:59.573373,2090,0.208497,-0.962099,-30.439949,0.099815,-0.153595,1.001507
2011-09-26T14:43:59.583373,2100,0.128951,-0.923360,-30.586899,0.100156,-0.153910,1.001732
2011-09-26T14:43:59.593373,2110,0.049404,-0.884621,-30.733848,0.100496,-0.154226,1.001956
2011-09-26T14:43:59.603373,2120,-0.030143,-0.845882,-30.880797,0.100837,-0.154542,1.002181
2011-09-26T14:43:59.613373,2130,-0.109689,-0.807143,-31.027746,0.101177,-0.154857,1.002406
2011-09-26T14:43:59.623373,2140,-0.189236,-0.768404,-31.174695,0.101518,-0.155173,1.002630
2011-09-26T14:43:59.633373,2150,-0.268783,-0.729665,-31.321644,0.101858,-0.155489,1.002855
2011-09-26T14:43:59.643373,2160,-0.348329,-0.690926,-31.468593,0.102199,-0.155804,1.003079
2011-09-26T14:43:59.653373,2170,-0.427876,-0.652187,-31.615542,0.102539,-0.156120,1.003304
2011-09-26T14:43:59.663373,2180,-0.467710,-0.608848,-31.724365,0.102761,-0.158160,1.003087
2011-09-26T14:43:59.673373,2190,-0.465930,-0.560688,-31.793236,0.102859,-0.162006,1.002406
2011-09-26T14:43:59.683373,2200,-0.464150,-0.512529,-31.862107,0.102957,-0.165853,1.001726
2011-09-26T14:43:59.693373,2210,-0.462369,-0.464370,-31.930978,0.103055,-0.169699,1.001046
2011-09-26T14:43:59.703373,2220,-0.460589,-0.416210,-31.999849,0.103153,-0.173546,1.000366
2011-09-26T14:43:59.713373,2230,-0.458809,-0.368051,-32.068720,0.103250,-0.177392,0.999685
2011-09-26T14:43:59.723373,2240,-0.457028,-0.319892,-32.137591,0.103348,-0.181239,0.999005
2011-09-26T14:43:59.733373,2250,-0.455248,-0.271732,-32.206461,0.103446,-0.185086,0.998325
2011-09-26T14:43:59.743373,2260,-0.453468,-0.223573,-32.275332,0.103544,-0.188932,0.997645
2011-09-26T14:43:59.753373,2270,-0.451688,-0.175414,-32.344203,0.103642,-0.192779,0.996965
2011-09-26T14:43:59.763373,2280,-0.449907,-0.127254,-32.413074,0.103739,-0.196625,0.996284
2011-09-26T14:43:59.773373,2290,-0.461424,-0.110415,-32.462870,0.103767,-0.198796,0.995586
2011-09-26T14:43:59.783373,2300,-0.486725,-0.126041,-32.492894,0.103723,-0.199228,0.994870
2011-09-26T14:43:59.793373,2310,-0.512026,-0.141668,-32.522918,0.103678,-0.199661,0.994154
2011-09-26T14:43:59.803373,2320,-0.537327,-0.157294,-32.552942,0.103633,-0.200093,0.993438
2011-09-26T14:43:59.813373,2330,-0.562628,-0.172921,-32.582965,0.103589,-0.200526,0.992722
2011-09-26T14:43:59.823373,2340,-0.587929,-0.188547,-32.612989,0.103544,-0.200958,0.992006
2011-09-26T14:43:59.833373,2350,-0.613230,-0.204174,-32.643013,0.103499,-0.201391,0.991290
2011-09-26T14:43:59.843373,2360,-0.638531,-0.219800,-32.673036,0.103455,-0.201823,0.990573
2011-09-26T14:43:59.853373,2370,-0.663832,-0.235427,-32.703060,0.103410,-0.202256,0.989857
2011-09-26T14:43:59.863373,2380,-0.689133,-0.251053,-32.733084,0.103365,-0.202688,0.989141
2011-09-26T14:43:59.873373,2390,-0.708942,-0.272216,-32.788726,0.103253,-0.203377,0.989065
2011-09-26T14:43:59.883373,2400,-0.723116,-0.299062,-32.870662,0.103071,-0.204329,0.989646
2011-09-26T14:43:59.893373,2410,-0.737290,-0.325907,-32.952598,0.102889,-0.205282,0.990227
2011-09-26T14:43:59.903373,2420,-0.751464,-0.352752,-33.034533,0.102707,-0.206234,0.990808
2011-09-26T14:43:59.913373,2430,-0.765638,-0.379598,-33.116469,0.102524,-0.207186,0.991389
2011-09-26T14:43:59.923373,2440,-0.779813,-0.406443,-33.198404,0.102342,-0.208138,0.991971
2011-09-26T14:43:59.933373,2450,-0.793987,-0.433289,-33.280340,0.102160,-0.209091,0.992552
2011-09-26T14:43:59.943373,2460,-0.808161,-0.460134,-33.362276,0.101978,-0.210043,0.993133
2011-09-26T14:43:59.953373,2470,-0.822335,-0.486979,-33.444211,0.101796,-0.210995,0.993714
2011-09-26T14:43:59.963373,2480,-0.836509,-0.513825,-33.526147,0.101614,-0.211947,0.994295
2011-09-26T14:43:59.973373,2490,-0.850683,-0.540670,-33.608083,0.101432,-0.212900,0.994876
2011-09-26T14:43:59.983373,2500,-0.884643,-0.532678,-33.697920,0.101284,-0.214381,0.994092
2011-09-26T14:43:59.993373,2510,-0.938976,-0.488817,-33.795892,0.101172,-0.216407,0.991903
2011-09-26T14:44:00.003373,2520,-0.993310,-0.444956,-33.893864,0.101060,-0.218433,0.989715
2011-09-26T14:44:00.013373,2530,-1.047643,-0.401095,-33.991836,0.100948,-0.220459,0.987526
2011-09-26T14:44:00.023373,2540,-1.101976,-0.357234,-34.089808,0.100835,-0.222485,0.985337
2011-09-26T14:44:00.033373,2550,-1.156309,-0.313373,-34.187780,0.100723,-0.224511,0.983148
2011-09-26T14:44:00.043373,2560,-1.210643,-0.269512,-34.285752,0.100611,-0.226537,0.980959
2011-09-26T14:44:00.053373,2570,-1.264976,-0.225650,-34.383725,0.100499,-0.228563,0.978770
2011-09-26T14:44:00.063373,2580,-1.319309,-0.181789,-34.481697,0.100386,-0.230589,0.976581
2011-09-26T14:44:00.073373,2590,-1.373642,-0.137928,-34.579669,0.100274,-0.232615,0.974392
2011-09-26T14:44:00.083373,2600,-1.360750,-0.102645,-34.666355,0.099236,-0.236202,0.976211
2011-09-26T14:44:00.093373,2610,-1.272749,-0.076946,-34.740433,0.097164,-0.241531,0.982508
2011-09-26T14:44:00.103373,2620,-1.184749,-0.051247,-34.814510,0.095092,-0.246860,0.988805
2011-09-26T14:44:00.113373,2630,-1.096749,-0.025547,-34.888588,0.093020,-0.252190,0.995101
2011-09-26T14:44:00.123373,2640,-1.008749,0.000152,-34.962665,0.090948,-0.257519,1.001398
2011-09-26T14:44:00.133373,2650,-0.920748,0.025851,-35.036743,0.088876,-0.262848,1.007695
2011-09-26T14:44:00.143373,2660,-0.832748,0.051550,-35.110820,0.086804,-0.268178,1.013992
2011-09-26T14:44:00.153373,2670,-0.744748,0.077250,-35.184898,0.084732,-0.273507,1.020288
2011-09-26T14:44:00.163373,2680,-0.656748,0.102949,-35.258975,0.082660,-0.278837,1.026585
2011-09-26T14:44:00.173373,2690,-0.568748,0.128648,-35.333053,0.080588,-0.284166,1.032882
2011-09-26T14:44:00.183373,2700,-0.443682,0.199362,-35.408306,0.080203,-0.286852,1.035881
2011-09-26T14:44:00.193373,2710,-0.280101,0.316853,-35.484780,0.081570,-0.286793,1.035453
2011-09-26T14:44:00.203373,2720,-0.116519,0.434344,-35.561254,0.082938,-0.286733,1.035025
2011-09-26T14:44:00.213373,2730,0.047062,0.551834,-35.637728,0.084305,-0.286673,1.034598
2011-09-26T14:44:00.223373,2740,0.210643,0.669325,-35.714202,0.085672,-0.286613,1.034170
2011-09-26T14:44:00.233373,2750,0.374225,0.786816,-35.790675,0.087040,-0.286553,1.033742
2011-09-26T14:44:00.243373,2760,0.537806,0.904306,-35.867149,0.088407,-0.286494,1.033314
2011-09-26T14:44:00.253373,2770,0.701387,1.021797,-35.943623,0.089775,-0.286434,1.032886
2011-09-26T14:44:00.263373,2780,0.864969,1.139288,-36.020097,0.091142,-0.286374,1.032459
2011-09-26T14:44:00.273373,2790,1.028550,1.256778,-36.096571,0.092510,-0.286314,1.032031
2011-09-26T14:44:00.283373,2800,1.192131,1.374269,-36.173045,0.093877,-0.286254,1.031603
2011-09-26T14:44:00.293373,2810,1.287755,1.439158,-36.261835,0.094828,-0.285729,1.028797
2011-09-26T14:44:00.303373,2820,1.311853,1.448681,-36.363587,0.095341,-0.284715,1.023489
2011-09-26T14:44:00.313373,2830,1.335950,1.458205,-36.465340,0.095855,-0.283700,1.018180
2011-09-26T14:44:00.323373,2840,1.360048,1.467729,-36.567092,0.096368,-0.282686,1.012871
2011-09-26T14:44:00.333373,2850,1.384145,1.477253,-36.668844,0.096881,-0.281672,1.007563
2011-09-26T14:44:00.343373,2860,1.408242,1.486777,-36.770596,0.097394,-0.280657,1.002254
2011-09-26T14:44:00.353373,2870,1.432340,1.496301,-36.872348,0.097907,-0.279643,0.996945
2011-09-26T14:44:00.363373,2880,1.456437,1.505825,-36.974101,0.098421,-0.278628,0.991637
2011-09-26T14:44:00.373373,2890,1.480535,1.515349,-37.075853,0.098934,-0.277614,0.986328
2011-09-26T14:44:00.383373,2900,1.504632,1.524873,-37.177605,0.099447,-0.276599,0.981019
2011-09-26T14:44:00.393373,2910,1.492461,1.489761,-37.257199,0.100077,-0.276826,0.977185
2011-09-26T14:44:00.403373,2920,1.442465,1.408100,-37.313683,0.100828,-0.278346,0.974890
2011-09-26T14:44:00.413373,2930,1.392470,1.326439,-37.370168,0.101579,-0.279867,0.972595
2011-09-26T14:44:00.423373,2940,1.342474,1.244778,-37.426653,0.102330,-0.281387,0.970299
2011-09-26T14:44:00.433373,2950,1.292479,1.163116,-37.483137,0.103081,-0.282907,0.968004
2011-09-26T14:44:00.443373,2960,1.242483,1.081455,-37.539622,0.103832,-0.284428,0.965708
2011-09-26T14:44:00.453373,2970,1.192488,0.999794,-37.596107,0.104583,-0.285948,0.963413
2011-09-26T14:44:00.463373,2980,1.142492,0.918133,-37.652591,0.105334,-0.287469,0.961117
2011-09-26T14:44:00.473373,2990,1.092497,0.836472,-37.709076,0.106086,-0.288989,0.958822
2011-09-26T14:44:00.483373,3000,1.042501,0.754811,-37.765561,0.106837,-0.290509,0.956526
2011-09-26T14:44:00.493373,3010,1.000187,0.670504,-37.793527,0.108188,-0.292174,0.956624
2011-09-26T14:44:00.503373,3020,0.965895,0.583435,-37.791705,0.110165,-0.293988,0.959221
2011-09-26T14:44:00.513373,3030,0.931604,0.496366,-37.789882,0.112142,-0.295802,0.961818
2011-09-26T14:44:00.523373,3040,0.897313,0.409297,-37.788060,0.114119,-0.297617,0.964414
2011-09-26T14:44:00.533373,3050,0.863022,0.322227,-37.786238,0.116097,-0.299431,0.967011
2011-09-26T14:44:00.543373,3060,0.828730,0.235158,-37.784415,0.118074,-0.301245,0.969608
2011-09-26T14:44:00.553373,3070,0.794439,0.148089,-37.782593,0.120051,-0.303059,0.972205
2011-09-26T14:44:00.563373,3080,0.760148,0.061020,-37.780771,0.122028,-0.304874,0.974802
2011-09-26T14:44:00.573373,3090,0.725857,-0.026049,-37.778949,0.124006,-0.306688,0.977399
2011-09-26T14:44:00.583373,3100,0.691566,-0.113118,-37.777126,0.125983,-0.308502,0.979996
2011-09-26T14:44:00.593373,3110,0.657274,-0.200188,-37.775304,0.127960,-0.310317,0.982593
2011-09-26T14:44:00.603373,3120,0.604145,-0.206873,-37.771451,0.129619,-0.310136,0.987850
2011-09-26T14:44:00.613373,3130,0.531101,-0.128579,-37.765452,0.130941,-0.307847,0.995920
2011-09-26T14:44:00.623373,3140,0.458056,-0.050286,-37.759453,0.132263,-0.305557,1.003990
2011-09-26T14:44:00.633373,3150,0.385012,0.028008,-37.753454,0.133584,-0.303268,1.012060
2011-09-26T14:44:00.643373,3160,0.311968,0.106301,-37.747454,0.134906,-0.300978,1.020129
2011-09-26T14:44:00.653373,3170,0.238924,0.184595,-37.741455,0.136228,-0.298688,1.028199
2011-09-26T14:44:00.663373,3180,0.165880,0.262888,-37.735456,0.137550,-0.296399,1.036269
2011-09-26T14:44:00.673373,3190,0.092835,0.341182,-37.729457,0.138872,-0.294109,1.044338
2011-09-26T14:44:00.683373,3200,0.019791,0.419475,-37.723458,0.140194,-0.291820,1.052408
2011-09-26T14:44:00.693373,3210,-0.053253,0.497769,-37.717458,0.141516,-0.289530,1.060478
2011-09-26T14:44:00.703373,3220,-0.125348,0.572427,-37.660817,0.142298,-0.291163,1.061363
2011-09-26T14:44:00.713373,3230,-0.196443,0.643258,-37.550852,0.142511,-0.296926,1.054684
2011-09-26T14:44:00.723373,3240,-0.267539,0.714088,-37.440888,0.142724,-0.302689,1.048005
2011-09-26T14:44:00.733373,3250,-0.338634,0.784919,-37.330923,0.142938,-0.308452,1.041325
2011-09-26T14:44:00.743373,3260,-0.409730,0.855750,-37.220959,0.143151,-0.314214,1.034646
2011-09-26T14:44:00.753373,3270,-0.480825,0.926580,-37.110994,0.143364,-0.319977,1.027967
2011-09-26T14:44:00.763373,3280,-0.551921,0.997411,-37.001030,0.143578,-0.325740,1.021287
2011-09-26T14:44:00.773373,3290,-0.623016,1.068242,-36.891066,0.143791,-0.331503,1.014608
2011-09-26T14:44:00.783373,3300,-0.694111,1.139072,-36.781101,0.144005,-0.337265,1.007929
2011-09-26T14:44:00.793373,3310,-0.765207,1.209903,-36.671137,0.144218,-0.343028,1.001249
2011-09-26T14:44:00.803373,3320,-0.759647,1.212086,-36.538294,0.144411,-0.346078,0.996183
2011-09-26T14:44:00.813373,3330,-0.672007,1.140763,-36.380955,0.144583,-0.346222,0.992843
2011-09-26T14:44:00.823373,3340,-0.584368,1.069440,-36.223615,0.144755,-0.346366,0.989503
2011-09-26T14:44:00.833373,3350,-0.496728,0.998116,-36.066276,0.144927,-0.346510,0.986164
2011-09-26T14:44:00.843373,3360,-0.409088,0.926793,-35.908936,0.145099,-0.346654,0.982824
2011-09-26T14:44:00.853373,3370,-0.321448,0.855470,-35.751597,0.145271,-0.346798,0.979484
2011-09-26T14:44:00.863373,3380,-0.233808,0.784147,-35.594257,0.145444,-0.346942,0.976145
2011-09-26T14:44:00.873373,3390,-0.146168,0.712823,-35.436918,0.145616,-0.347086,0.972805
2011-09-26T14:44:00.883373,3400,-0.058528,0.641500,-35.279578,0.145788,-0.347230,0.969465
2011-09-26T14:44:00.893373,3410,0.029111,0.570177,-35.122239,0.145960,-0.347374,0.966126
2011-09-26T14:44:00.903373,3420,0.116751,0.498854,-34.964899,0.146132,-0.347519,0.962786
2011-09-26T14:44:00.913373,3430,0.188990,0.431261,-34.832010,0.146766,-0.346979,0.961188
2011-09-26T14:44:00.923373,3440,0.244711,0.367669,-34.725346,0.147895,-0.345706,0.961457
2011-09-26T14:44:00.933373,3450,0.300432,0.304077,-34.618681,0.149024,-0.344433,0.961726
2011-09-26T14:44:00.943373,3460,0.356152,0.240485,-34.512017,0.150154,-0.343160,0.961995
2011-09-26T14:44:00.953373,3470,0.411873,0.176893,-34.405352,0.151283,-0.341888,0.962264
2011-09-26T14:44:00.963373,3480,0.467594,0.113301,-34.298688,0.152413,-0.340615,0.962533
2011-09-26T14:44:00.973373,3490,0.523315,0.049709,-34.192023,0.153542,-0.339342,0.962802
2011-09-26T14:44:00.983373,3500,0.579035,-0.013883,-34.085359,0.154671,-0.338069,0.963071
2011-09-26T14:44:00.993373,3510,0.634756,-0.077475,-33.978694,0.155801,-0.336796,0.963340
2011-09-26T14:44:01.003373,3520,0.690477,-0.141067,-33.872030,0.156930,-0.335523,0.963610
2011-09-26T14:44:01.013373,3530,0.722290,-0.184890,-33.781247,0.157752,-0.334401,0.965169
2011-09-26T14:44:01.023373,3540,0.729020,-0.207974,-33.707126,0.158252,-0.333436,0.968083
2011-09-26T14:44:01.033373,3550,0.735751,-0.231059,-33.633005,0.158752,-0.332471,0.970997
2011-09-26T14:44:01.043373,3560,0.742481,-0.254143,-33.558884,0.159252,-0.331506,0.973911
2011-09-26T14:44:01.053373,3570,0.749212,-0.277227,-33.484764,0.159752,-0.330541,0.976825
2011-09-26T14:44:01.063373,3580,0.755942,-0.300311,-33.410643,0.160252,-0.329576,0.979739
2011-09-26T14:44:01.073373,3590,0.762673,-0.323395,-33.336522,0.160752,-0.328611,0.982653
2011-09-26T14:44:01.083373,3600,0.769403,-0.346479,-33.262401,0.161252,-0.327646,0.985567
2011-09-26T14:44:01.093373,3610,0.776134,-0.369563,-33.188280,0.161752,-0.326681,0.988481
2011-09-26T14:44:01.103373,3620,0.782864,-0.392647,-33.114160,0.162252,-0.325716,0.991395
2011-09-26T14:44:01.113373,3630,0.789902,-0.411910,-33.018358,0.163027,-0.325798,0.993299
2011-09-26T14:44:01.123373,3640,0.797299,-0.426727,-32.897330,0.164121,-0.327098,0.994029
2011-09-26T14:44:01.133373,3650,0.804695,-0.441544,-32.776302,0.165214,-0.328399,0.994759
2011-09-26T14:44:01.143373,3660,0.812092,-0.456361,-32.655274,0.166308,-0.329700,0.995488
2011-09-26T14:44:01.153373,3670,0.819488,-0.471178,-32.534246,0.167402,-0.331000,0.996218
2011-09-26T14:44:01.163373,3680,0.826885,-0.485995,-32.413218,0.168496,-0.332301,0.996948
2011-09-26T14:44:01.173373,3690,0.834281,-0.500812,-32.292190,0.169590,-0.333602,0.997677
2011-09-26T14:44:01.183373,3700,0.841678,-0.515629,-32.171162,0.170683,-0.334902,0.998407
2011-09-26T14:44:01.193373,3710,0.849074,-0.530446,-32.050134,0.171777,-0.336203,0.999137
2011-09-26T14:44:01.203373,3720,0.856471,-0.545263,-31.929106,0.172871,-0.337504,0.999866
2011-09-26T14:44:01.213373,3730,0.863867,-0.560080,-31.808078,0.173965,-0.338804,1.000596
2011-09-26T14:44:01.223373,3740,0.871035,-0.563591,-31.648527,0.174953,-0.339216,1.001571
2011-09-26T14:44:01.233373,3750,0.877954,-0.554724,-31.446804,0.175825,-0.338654,1.002814
2011-09-26T14:44:01.243373,3760,0.884872,-0.545857,-31.245081,0.176697,-0.338092,1.004058
2011-09-26T14:44:01.253373,3770,0.891790,-0.536991,-31.043358,0.177569,-0.337530,1.005301
2011-09-26T14:44:01.263373,3780,0.898709,-0.528124,-30.841635,0.178442,-0.336969,1.006544
2011-09-26T14:44:01.273373,3790,0.905627,-0.519257,-30.639912,0.179314,-0.336407,1.007788
2011-09-26T14:44:01.283373,3800,0.912545,-0.510390,-30.438189,0.180186,-0.335845,1.009031
2011-09-26T14:44:01.293373,3810,0.919464,-0.501524,-30.236466,0.181058,-0.335283,1.010275
2011-09-26T14:44:01.303373,3820,0.926382,-0.492657,-30.034743,0.181931,-0.334721,1.011518
2011-09-26T14:44:01.313373,3830,0.933300,-0.483790,-29.833020,0.182803,-0.334160,1.012761
2011-09-26T14:44:01.323373,3840,0.940218,-0.474923,-29.631297,0.183675,-0.333598,1.014005
2011-09-26T14:44:01.333373,3850,0.944148,-0.450736,-29.419756,0.184701,-0.332414,1.014601
2011-09-26T14:44:01.343373,3860,0.944849,-0.409998,-29.197609,0.185892,-0.330558,1.014497
2011-09-26T14:44:01.353373,3870,0.945549,-0.369259,-28.975461,0.187083,-0.328701,1.014394
2011-09-26T14:44:01.363373,3880,0.946250,-0.328520,-28.753314,0.188274,-0.326845,1.014290
2011-09-26T14:44:01.373373,3890,0.946950,-0.287782,-28.531166,0.189465,-0.324989,1.014187
2011-09-26T14:44:01.383373,3900,0.947651,-0.247043,-28.309019,0.190656,-0.323133,1.014083
2011-09-26T14:44:01.393373,3910,0.948351,-0.206304,-28.086872,0.191847,-0.321276,1.013980
2011-09-26T14:44:01.403373,3920,0.949052,-0.165566,-27.864724,0.193039,-0.319420,1.013876
2011-09-26T14:44:01.413373,3930,0.949752,-0.124827,-27.642577,0.194230,-0.317564,1.013773
2011-09-26T14:44:01.423373,3940,0.973031,-0.100005,-27.410491,0.194990,-0.316231,1.012928
2011-09-26T14:44:01.433373,3950,1.020768,-0.092426,-27.167638,0.195283,-0.315466,1.011280
2011-09-26T14:44:01.443373,3960,1.068505,-0.084847,-26.924786,0.195576,-0.314701,1.009631
2011-09-26T14:44:01.453373,3970,1.116241,-0.077268,-26.681933,0.195869,-0.313936,1.007983
2011-09-26T14:44:01.463373,3980,1.163978,-0.069689,-26.439081,0.196162,-0.313171,1.006335
2011-09-26T14:44:01.473373,3990,1.211715,-0.062110,-26.196228,0.196455,-0.312406,1.004687
2011-09-26T14:44:01.483373,4000,1.259452,-0.054531,-25.953375,0.196748,-0.311640,1.003039
2011-09-26T14:44:01.493373,4010,1.307189,-0.046952,-25.710523,0.197041,-0.310875,1.001390
2011-09-26T14:44:01.503373,4020,1.354926,-0.039373,-25.467670,0.197334,-0.310110,0.999742
2011-09-26T14:44:01.513373,4030,1.402663,-0.031794,-25.224818,0.197627,-0.309345,0.998094
2011-09-26T14:44:01.523373,4040,1.450400,-0.024215,-24.981965,0.197920,-0.308580,0.996446
2011-09-26T14:44:01.533373,4050,1.473915,-0.030035,-24.704811,0.198470,-0.306761,0.995703
2011-09-26T14:44:01.543373,4060,1.468136,-0.052057,-24.386174,0.199330,-0.303666,0.996055
2011-09-26T14:44:01.553373,4070,1.462358,-0.074080,-24.067536,0.200191,-0.300572,0.996408
2011-09-26T14:44:01.563373,4080,1.456579,-0.096103,-23.748898,0.201051,-0.297477,0.996760
2011-09-26T14:44:01.573373,4090,1.450801,-0.118126,-23.430260,0.201912,-0.294383,0.997112
2011-09-26T14:44:01.583373,4100,1.445022,-0.140148,-23.111623,0.202773,-0.291289,0.997464
2011-09-26T14:44:01.593373,4110,1.439244,-0.162171,-22.792985,0.203633,-0.288194,0.997817
2011-09-26T14:44:01.603373,4120,1.433465,-0.184194,-22.474347,0.204494,-0.285100,0.998169
2011-09-26T14:44:01.613373,4130,1.427687,-0.206217,-22.155709,0.205355,-0.282005,0.998521
2011-09-26T14:44:01.623373,4140,1.421908,-0.228240,-21.837071,0.206215,-0.278911,0.998873
2011-09-26T14:44:01.633373,4150,1.425113,-0.238160,-21.517782,0.207313,-0.276213,0.999019
2011-09-26T14:44:01.643373,4160,1.438066,-0.234948,-21.197784,0.208666,-0.273945,0.998939
2011-09-26T14:44:01.653373,4170,1.451018,-0.231736,-20.877787,0.210020,-0.271678,0.998860
2011-09-26T14:44:01.663373,4180,1.463971,-0.228524,-20.557790,0.211374,-0.269410,0.998781
2011-09-26T14:44:01.673373,4190,1.476923,-0.225313,-20.237792,0.212728,-0.267142,0.998701
2011-09-26T14:44:01.683373,4200,1.489876,-0.222101,-19.917795,0.214081,-0.264874,0.998622
2011-09-26T14:44:01.693373,4210,1.502828,-0.218889,-19.597798,0.215435,-0.262606,0.998543
2011-09-26T14:44:01.703373,4220,1.515781,-0.215677,-19.277800,0.216789,-0.260338,0.998463
2011-09-26T14:44:01.713373,4230,1.528733,-0.212466,-18.957803,0.218143,-0.258071,0.998384
2011-09-26T14:44:01.723373,4240,1.541685,-0.209254,-18.637806,0.219496,-0.255803,0.998305
2011-09-26T14:44:01.733373,4250,1.564987,-0.206727,-18.335746,0.220539,-0.253124,0.997954
2011-09-26T14:44:01.743373,4260,1.599405,-0.204937,-18.052955,0.221246,-0.250003,0.997311
2011-09-26T14:44:01.753373,4270,1.633823,-0.203147,-17.770163,0.221954,-0.246882,0.996668
2011-09-26T14:44:01.763373,4280,1.668242,-0.201357,-17.487372,0.222662,-0.243762,0.996025
2011-09-26T14:44:01.773373,4290,1.702660,-0.199567,-17.204581,0.223370,-0.240641,0.995382
2011-09-26T14:44:01.783373,4300,1.737078,-0.197776,-16.921790,0.224078,-0.237520,0.994739
2011-09-26T14:44:01.793373,4310,1.771497,-0.195986,-16.638999,0.224786,-0.234400,0.994096
2011-09-26T14:44:01.803373,4320,1.805915,-0.194196,-16.356208,0.225494,-0.231279,0.993453
2011-09-26T14:44:01.813373,4330,1.840333,-0.192406,-16.073417,0.226202,-0.228158,0.992810
2011-09-26T14:44:01.823373,4340,1.874751,-0.190616,-15.790626,0.226909,-0.225037,0.992167
2011-09-26T14:44:01.833373,4350,1.909170,-0.188825,-15.507834,0.227617,-0.221917,0.991524
2011-09-26T14:44:01.843373,4360,1.927179,-0.181870,-15.219309,0.227619,-0.218881,0.991353
2011-09-26T14:44:01.853373,4370,1.927476,-0.169338,-14.924595,0.226858,-0.215938,0.991691
2011-09-26T14:44:01.863373,4380,1.927773,-0.156807,-14.629880,0.226098,-0.212994,0.992030
2011-09-26T14:44:01.873373,4390,1.928071,-0.144275,-14.335165,0.225337,-0.210050,0.992368
2011-09-26T14:44:01.883373,4400,1.928368,-0.131744,-14.040451,0.224577,-0.207107,0.992707
2011-09-26T14:44:01.893373,4410,1.928665,-0.119213,-13.745736,0.223816,-0.204163,0.993045
2011-09-26T14:44:01.903373,4420,1.928963,-0.106681,-13.451021,0.223056,-0.201219,0.993384
2011-09-26T14:44:01.913373,4430,1.929260,-0.094150,-13.156307,0.222295,-0.198276,0.993722
2011-09-26T14:44:01.923373,4440,1.929557,-0.081618,-12.861592,0.221534,-0.195332,0.994060
2011-09-26T14:44:01.933373,4450,1.929854,-0.069087,-12.566878,0.220774,-0.192389,0.994399
2011-09-26T14:44:01.943373,4460,1.930152,-0.056556,-12.272163,0.220013,-0.189445,0.994737
2011-09-26T14:44:01.953373,4470,1.930449,-0.044024,-11.977448,0.219253,-0.186501,0.995076
2011-09-26T14:44:01.963373,4480,1.930746,-0.031493,-11.682734,0.218492,-0.183558,0.995414
2011-09-26T14:44:01.973373,4490,1.931043,-0.018961,-11.388019,0.217732,-0.180614,0.995753
2011-09-26T14:44:01.983373,4500,1.931341,-0.006430,-11.093304,0.216971,-0.177670,0.996091
2011-09-26T14:44:01.993373,4510,1.931638,0.006101,-10.798590,0.216210,-0.174727,0.996430
2011-09-26T14:44:02.003373,4520,1.931935,0.018633,-10.503875,0.215450,-0.171783,0.996768
2011-09-26T14:44:02.013373,4530,1.932232,0.031164,-10.209160,0.214689,-0.168840,0.997107
2011-09-26T14:44:02.023373,4540,1.932530,0.043695,-9.914446,0.213929,-0.165896,0.997445
2011-09-26T14:44:02.033373,4550,1.932827,0.056227,-9.619732,0.213168,-0.162952,0.997784
2011-09-26T14:44:02.043373,4560,1.933124,0.068758,-9.325020,0.212408,-0.160009,0.998122
2011-09-26T14:44:02.053373,4570,1.933421,0.081289,-9.030308,0.211647,-0.157065,0.998461
2011-09-26T14:44:02.063373,4580,1.933719,0.093821,-8.735597,0.210886,-0.154122,0.998799
2011-09-26T14:44:02.073373,4590,1.934016,0.106352,-8.440885,0.210126,-0.151178,0.999137
2011-09-26T14:44:02.083373,4600,1.934313,0.118883,-8.146173,0.209365,-0.148234,0.999476
2011-09-26T14:44:02.093373,4610,1.934610,0.131414,-7.851462,0.208605,-0.145291,0.999814
2011-09-26T14:44:02.103373,4620,1.934908,0.143946,-7.556750,0.207844,-0.142347,1.000153
2011-09-26T14:44:02.113373,4630,1.935205,0.156477,-7.262038,0.207084,-0.139404,1.000491
2011-09-26T14:44:02.123373,4640,1.935502,0.169008,-6.967327,0.206323,-0.136460,1.000830
2011-09-26T14:44:02.133373,4650,1.933709,0.176476,-6.693290,0.205765,-0.132556,1.001083
2011-09-26T14:44:02.143373,4660,1.929454,0.177978,-6.443612,0.205447,-0.127522,1.001237
2011-09-26T14:44:02.153373,4670,1.925199,0.179480,-6.193933,0.205128,-0.122487,1.001390
2011-09-26T14:44:02.163373,4680,1.920944,0.180982,-5.944255,0.204809,-0.117452,1.001543
2011-09-26T14:44:02.173373,4690,1.916689,0.182484,-5.694577,0.204491,-0.112418,1.001696
2011-09-26T14:44:02.183373,4700,1.912434,0.183986,-5.444899,0.204172,-0.107383,1.001850
2011-09-26T14:44:02.193373,4710,1.908179,0.185489,-5.195220,0.203853,-0.102348,1.002003
2011-09-26T14:44:02.203373,4720,1.903924,0.186991,-4.945542,0.203535,-0.097314,1.002156
2011-09-26T14:44:02.213373,4730,1.899669,0.188493,-4.695864,0.203216,-0.092279,1.002310
2011-09-26T14:44:02.223373,4740,1.895414,0.189995,-4.446185,0.202897,-0.087244,1.002463
2011-09-26T14:44:02.233373,4750,1.891159,0.191497,-4.196507,0.202579,-0.082210,1.002616
2011-09-26T14:44:02.243373,4760,1.886904,0.192999,-3.946829,0.202260,-0.077175,1.002769
2011-09-26T14:44:02.253373,4770,1.882649,0.194501,-3.697152,0.201941,-0.072140,1.002923
2011-09-26T14:44:02.263373,4780,1.878394,0.196003,-3.447475,0.201623,-0.067106,1.003076
2011-09-26T14:44:02.273373,4790,1.874139,0.197505,-3.197798,0.201304,-0.062071,1.003229
2011-09-26T14:44:02.283373,4800,1.869884,0.199007,-2.948120,0.200985,-0.057036,1.003383
2011-09-26T14:44:02.293373,4810,1.865629,0.200510,-2.698443,0.200667,-0.052002,1.003536
2011-09-26T14:44:02.303373,4820,1.861374,0.202012,-2.448766,0.200348,-0.046967,1.003689
2011-09-26T14:44:02.313373,4830,1.857119,0.203514,-2.199089,0.200029,-0.041932,1.003842
2011-09-26T14:44:02.323373,4840,1.852864,0.205016,-1.949412,0.199711,-0.036898,1.003996
2011-09-26T14:44:02.333373,4850,1.848609,0.206518,-1.699734,0.199392,-0.031863,1.004149
2011-09-26T14:44:02.343373,4860,1.844354,0.208020,-1.450057,0.199073,-0.026828,1.004302
2011-09-26T14:44:02.353373,4870,1.800428,0.217311,-1.244637,0.198807,-0.023077,1.004112
2011-09-26T14:44:02.363373,4880,1.713643,0.235016,-1.087030,0.198597,-0.020712,1.003552
2011-09-26T14:44:02.373373,4890,1.626859,0.252721,-0.929423,0.198388,-0.018347,1.002991
2011-09-26T14:44:02.383373,4900,1.540074,0.270426,-0.771816,0.198178,-0.015982,1.002430
2011-09-26T14:44:02.393373,4910,1.453290,0.288131,-0.614209,0.197969,-0.013618,1.001869
2011-09-26T14:44:02.403373,4920,1.366505,0.305837,-0.456602,0.197759,-0.011253,1.001309
2011-09-26T14:44:02.413373,4930,1.279721,0.323542,-0.298994,0.197550,-0.008888,1.000748
2011-09-26T14:44:02.423373,4940,1.192936,0.341247,-0.141387,0.197340,-0.006523,1.000187
2011-09-26T14:44:02.433373,4950,1.106152,0.358952,0.016220,0.197131,-0.004158,0.999627
2011-09-26T14:44:02.443373,4960,1.019367,0.376657,0.173827,0.196921,-0.001793,0.999066
2011-09-26T14:44:02.453373,4970,0.932583,0.394362,0.331434,0.196712,0.000571,0.998505
2011-09-26T14:44:02.463373,4980,0.867218,0.409813,0.449760,0.196415,0.002650,0.998342
2011-09-26T14:44:02.473373,4990,0.825253,0.422801,0.525174,0.196024,0.004417,0.998614
2011-09-26T14:44:02.483373,5000,0.783288,0.435789,0.600588,0.195633,0.006184,0.998885
2011-09-26T14:44:02.493373,5010,0.741324,0.448777,0.676001,0.195241,0.007950,0.999157
2011-09-26T14:44:02.503373,5020,0.699359,0.461765,0.751415,0.194850,0.009717,0.999429
2011-09-26T14:44:02.513373,5030,0.657394,0.474753,0.826828,0.194459,0.011483,0.999700
2011-09-26T14:44:02.523373,5040,0.615429,0.487741,0.902242,0.194068,0.013250,0.999972
2011-09-26T14:44:02.533373,5050,0.573465,0.500729,0.977656,0.193676,0.015017,1.000243
2011-09-26T14:44:02.543373,5060,0.531500,0.513716,1.053069,0.193285,0.016783,1.000515
2011-09-26T14:44:02.553373,5070,0.489535,0.526704,1.128483,0.192894,0.018550,1.000786
2011-09-26T14:44:02.563373,5080,0.449920,0.536480,1.163998,0.192677,0.019653,1.000467
2011-09-26T14:44:02.573373,5090,0.413004,0.542563,1.153662,0.192660,0.019994,0.999469
2011-09-26T14:44:02.583373,5100,0.376089,0.548646,1.143326,0.192643,0.020334,0.998471
2011-09-26T14:44:02.593373,5110,0.339174,0.554730,1.132990,0.192626,0.020675,0.997473
2011-09-26T14:44:02.603373,5120,0.302258,0.560813,1.122653,0.192609,0.021015,0.996475
2011-09-26T14:44:02.613373,5130,0.265343,0.566896,1.112317,0.192593,0.021356,0.995478
2011-09-26T14:44:02.623373,5140,0.228427,0.572980,1.101981,0.192576,0.021697,0.994480
2011-09-26T14:44:02.633373,5150,0.191512,0.579063,1.091645,0.192559,0.022037,0.993482
2011-09-26T14:44:02.643373,5160,0.154597,0.585146,1.081308,0.192542,0.022378,0.992484
2011-09-26T14:44:02.653373,5170,0.117681,0.591230,1.070972,0.192525,0.022718,0.991486
2011-09-26T14:44:02.663373,5180,0.108033,0.584192,1.066905,0.192437,0.021880,0.991312
2011-09-26T14:44:02.673373,5190,0.129193,0.562330,1.069923,0.192270,0.019710,0.992070
2011-09-26T14:44:02.683373,5200,0.150354,0.540467,1.072940,0.192102,0.017540,0.992828
2011-09-26T14:44:02.693373,5210,0.171514,0.518604,1.075957,0.191934,0.015370,0.993586
2011-09-26T14:44:02.703373,5220,0.192675,0.496742,1.078975,0.191766,0.013200,0.994344
2011-09-26T14:44:02.713373,5230,0.213835,0.474879,1.081992,0.191599,0.011030,0.995102
2011-09-26T14:44:02.723373,5240,0.234996,0.453017,1.085009,0.191431,0.008860,0.995860
2011-09-26T14:44:02.733373,5250,0.256156,0.431154,1.088027,0.191263,0.006690,0.996618
2011-09-26T14:44:02.743373,5260,0.277317,0.409292,1.091044,0.191095,0.004520,0.997376
2011-09-26T14:44:02.753373,5270,0.298478,0.387429,1.094061,0.190928,0.002350,0.998134
2011-09-26T14:44:02.763373,5280,0.324215,0.360106,1.092735,0.191164,0.001741,0.998279
2011-09-26T14:44:02.773373,5290,0.355120,0.326617,1.086504,0.191855,0.002895,0.997733
2011-09-26T14:44:02.783373,5300,0.386025,0.293128,1.080274,0.192547,0.004048,0.997187
2011-09-26T14:44:02.793373,5310,0.416930,0.259639,1.074043,0.193239,0.005202,0.996640
2011-09-26T14:44:02.803373,5320,0.447835,0.226151,1.067812,0.193930,0.006355,0.996094
2011-09-26T14:44:02.813373,5330,0.478741,0.192662,1.061582,0.194622,0.007508,0.995547
2011-09-26T14:44:02.823373,5340,0.509646,0.159173,1.055351,0.195314,0.008662,0.995001
2011-09-26T14:44:02.833373,5350,0.540551,0.125684,1.049121,0.196005,0.009815,0.994455
2011-09-26T14:44:02.843373,5360,0.571456,0.092196,1.042890,0.196697,0.010968,0.993908
2011-09-26T14:44:02.853373,5370,0.602361,0.058707,1.036659,0.197389,0.012122,0.993362
2011-09-26T14:44:02.863373,5380,0.633266,0.025218,1.030429,0.198080,0.013275,0.992816
2011-09-26T14:44:02.873373,5390,0.614307,0.004025,1.030424,0.198120,0.014063,0.992755
2011-09-26T14:44:02.883373,5400,0.540653,-0.003680,1.037249,0.197444,0.014450,0.993228
2011-09-26T14:44:02.893373,5410,0.466999,-0.011386,1.044074,0.196767,0.014837,0.993700
2011-09-26T14:44:02.903373,5420,0.393346,-0.019091,1.050898,0.196091,0.015224,0.994173
2011-09-26T14:44:02.913373,5430,0.319692,-0.026797,1.057723,0.195415,0.015612,0.994646
2011-09-26T14:44:02.923373,5440,0.246038,-0.034503,1.064547,0.194739,0.015999,0.995118
2011-09-26T14:44:02.933373,5450,0.172385,-0.042208,1.071372,0.194063,0.016386,0.995591
2011-09-26T14:44:02.943373,5460,0.098731,-0.049914,1.078196,0.193387,0.016773,0.996064
2011-09-26T14:44:02.953373,5470,0.025078,-0.057619,1.085021,0.192710,0.017160,0.996536
2011-09-26T14:44:02.963373,5480,-0.048576,-0.065325,1.091845,0.192034,0.017547,0.997009
2011-09-26T14:44:02.973373,5490,-0.075199,-0.071261,1.089824,0.192243,0.017284,0.996713
2011-09-26T14:44:02.983373,5500,-0.049572,-0.075230,1.077973,0.193434,0.016297,0.995562
2011-09-26T14:44:02.993373,5510,-0.023944,-0.079199,1.066123,0.194625,0.015311,0.994411
2011-09-26T14:44:03.003373,5520,0.001684,-0.083169,1.054273,0.195816,0.014325,0.993260
2011-09-26T14:44:03.013373,5530,0.027311,-0.087138,1.042423,0.197007,0.013339,0.992109
2011-09-26T14:44:03.023373,5540,0.052939,-0.091108,1.030572,0.198199,0.012353,0.990958
2011-09-26T14:44:03.033373,5550,0.078567,-0.095077,1.018722,0.199390,0.011367,0.989807
2011-09-26T14:44:03.043373,5560,0.104195,-0.099046,1.006872,0.200581,0.010380,0.988656
2011-09-26T14:44:03.053373,5570,0.129822,-0.103016,0.995022,0.201772,0.009394,0.987505
2011-09-26T14:44:03.063373,5580,0.155450,-0.106985,0.983171,0.202963,0.008408,0.986354
2011-09-26T14:44:03.073373,5590,0.155542,-0.118529,0.976091,0.203859,0.008054,0.986167
2011-09-26T14:44:03.083373,5600,0.124434,-0.139327,0.974839,0.204392,0.008472,0.987158
2011-09-26T14:44:03.093373,5610,0.093327,-0.160125,0.973586,0.204926,0.008891,0.988150
2011-09-26T14:44:03.103373,5620,0.062220,-0.180923,0.972334,0.205460,0.009309,0.989142
2011-09-26T14:44:03.113373,5630,0.031113,-0.201721,0.971082,0.205993,0.009728,0.990133
2011-09-26T14:44:03.123373,5640,0.000006,-0.222519,0.969829,0.206527,0.010146,0.991125
2011-09-26T14:44:03.133373,5650,-0.031101,-0.243317,0.968577,0.207061,0.010564,0.992116
2011-09-26T14:44:03.143373,5660,-0.062209,-0.264115,0.967324,0.207594,0.010983,0.993108
2011-09-26T14:44:03.153373,5670,-0.093316,-0.284913,0.966072,0.208128,0.011401,0.994100
2011-09-26T14:44:03.163373,5680,-0.124423,-0.305711,0.964819,0.208661,0.011819,0.995091
2011-09-26T14:44:03.173373,5690,-0.155530,-0.326508,0.963567,0.209195,0.012238,0.996083
2011-09-26T14:44:03.183373,5700,-0.179410,-0.310894,0.941797,0.208915,0.013009,0.997221
2011-09-26T14:44:03.193373,5710,-0.195211,-0.254579,0.897094,0.207726,0.014175,0.998524
2011-09-26T14:44:03.203373,5720,-0.211013,-0.198264,0.852391,0.206537,0.015341,0.999827
2011-09-26T14:44:03.213373,5730,-0.226814,-0.141949,0.807688,0.205348,0.016507,1.001130
2011-09-26T14:44:03.223373,5740,-0.242615,-0.085634,0.762984,0.204159,0.017673,1.002432
2011-09-26T14:44:03.233373,5750,-0.258417,-0.029319,0.718281,0.202970,0.018838,1.003735
2011-09-26T14:44:03.243373,5760,-0.274218,0.026995,0.673578,0.201780,0.020004,1.005038
2011-09-26T14:44:03.253373,5770,-0.290019,0.083310,0.628874,0.200591,0.021170,1.006341
2011-09-26T14:44:03.263373,5780,-0.305821,0.139625,0.584171,0.199402,0.022336,1.007644
2011-09-26T14:44:03.273373,5790,-0.321622,0.195940,0.539468,0.198213,0.023502,1.008946
2011-09-26T14:44:03.283373,5800,-0.363402,0.234892,0.511255,0.197715,0.022876,1.008949
2011-09-26T14:44:03.293373,5810,-0.435961,0.253273,0.502579,0.198035,0.020127,1.007411
2011-09-26T14:44:03.303373,5820,-0.508519,0.271654,0.493902,0.198355,0.017379,1.005872
2011-09-26T14:44:03.313373,5830,-0.581078,0.290035,0.485226,0.198675,0.014630,1.004334
2011-09-26T14:44:03.323373,5840,-0.653637,0.308416,0.476550,0.198995,0.011881,1.002796
2011-09-26T14:44:03.333373,5850,-0.726196,0.326797,0.467874,0.199315,0.009133,1.001258
2011-09-26T14:44:03.343373,5860,-0.798754,0.345178,0.459198,0.199635,0.006384,0.999720
2011-09-26T14:44:03.353373,5870,-0.871313,0.363559,0.450522,0.199955,0.003635,0.998182
2011-09-26T14:44:03.363373,5880,-0.943872,0.381940,0.441846,0.200275,0.000886,0.996644
2011-09-26T14:44:03.373373,5890,-1.016431,0.400321,0.433169,0.200595,-0.001862,0.995106
2011-09-26T14:44:03.383373,5900,-1.011324,0.390851,0.413119,0.201096,-0.003384,0.994197
2011-09-26T14:44:03.393373,5910,-0.918213,0.349825,0.380179,0.201801,-0.003514,0.994003
2011-09-26T14:44:03.403373,5920,-0.825102,0.308798,0.347239,0.202507,-0.003645,0.993809
2011-09-26T14:44:03.413373,5930,-0.731991,0.267772,0.314299,0.203212,-0.003776,0.993615
2011-09-26T14:44:03.423373,5940,-0.638880,0.226745,0.281360,0.203918,-0.003907,0.993421
2011-09-26T14:44:03.433373,5950,-0.545769,0.185718,0.248420,0.204623,-0.004037,0.993226
2011-09-26T14:44:03.443373,5960,-0.452658,0.144692,0.215480,0.205329,-0.004168,0.993032
2011-09-26T14:44:03.453373,5970,-0.359547,0.103665,0.182540,0.206034,-0.004299,0.992838
2011-09-26T14:44:03.463373,5980,-0.266436,0.062638,0.149601,0.206740,-0.004429,0.992644
2011-09-26T14:44:03.473373,5990,-0.173325,0.021612,0.116661,0.207445,-0.004560,0.992450
2011-09-26T14:44:03.483373,6000,-0.080214,-0.019415,0.083721,0.208151,-0.004691,0.992255
2011-09-26T14:44:03.493373,6010,-0.057077,-0.053568,0.064101,0.208179,-0.004493,0.992034
2011-09-26T14:44:03.503373,6020,-0.113065,-0.079949,0.059543,0.207440,-0.003922,0.991782
2011-09-26T14:44:03.513373,6030,-0.169053,-0.106329,0.054985,0.206702,-0.003352,0.991529
2011-09-26T14:44:03.523373,6040,-0.225041,-0.132710,0.050427,0.205964,-0.002782,0.991277
2011-09-26T14:44:03.533373,6050,-0.281029,-0.159090,0.045869,0.205225,-0.002212,0.991025
2011-09-26T14:44:03.543373,6060,-0.337017,-0.185471,0.041311,0.204487,-0.001642,0.990773
2011-09-26T14:44:03.553373,6070,-0.393005,-0.211851,0.036753,0.203749,-0.001072,0.990521
2011-09-26T14:44:03.563373,6080,-0.448993,-0.238232,0.032195,0.203010,-0.000502,0.990268
2011-09-26T14:44:03.573373,6090,-0.504981,-0.264612,0.027637,0.202272,0.000069,0.990016
2011-09-26T14:44:03.583373,6100,-0.560969,-0.290993,0.023079,0.201534,0.000639,0.989764
2011-09-26T14:44:03.593373,6110,-0.568008,-0.312211,0.009844,0.201371,0.000111,0.990070
2011-09-26T14:44:03.603373,6120,-0.519898,-0.327613,-0.013167,0.201857,-0.001654,0.991005
2011-09-26T14:44:03.613373,6130,-0.471787,-0.343016,-0.036178,0.202342,-0.003419,0.991940
2011-09-26T14:44:03.623373,6140,-0.423677,-0.358418,-0.059189,0.202828,-0.005185,0.992875
2011-09-26T14:44:03.633373,6150,-0.375567,-0.373820,-0.082200,0.203313,-0.006950,0.993810
2011-09-26T14:44:03.643373,6160,-0.327456,-0.389222,-0.105211,0.203799,-0.008715,0.994745
2011-09-26T14:44:03.653373,6170,-0.279346,-0.404625,-0.128222,0.204284,-0.010480,0.995680
2011-09-26T14:44:03.663373,6180,-0.231236,-0.420027,-0.151233,0.204770,-0.012245,0.996615
2011-09-26T14:44:03.673373,6190,-0.183125,-0.435429,-0.174245,0.205256,-0.014010,0.997550
2011-09-26T14:44:03.683373,6200,-0.135015,-0.450832,-0.197256,0.205741,-0.015775,0.998485
2011-09-26T14:44:03.693373,6210,-0.095233,-0.472298,-0.205100,0.206169,-0.016774,0.999602
2011-09-26T14:44:03.703373,6220,-0.064844,-0.500602,-0.195841,0.206532,-0.016909,1.000926
2011-09-26T14:44:03.713373,6230,-0.034454,-0.528906,-0.186583,0.206894,-0.017043,1.002250
2011-09-26T14:44:03.723373,6240,-0.004064,-0.557211,-0.177324,0.207257,-0.017178,1.003573
2011-09-26T14:44:03.733373,6250,0.026325,-0.585515,-0.168066,0.207620,-0.017313,1.004897
2011-09-26T14:44:03.743373,6260,0.056715,-0.613820,-0.158807,0.207982,-0.017447,1.006220
2011-09-26T14:44:03.753373,6270,0.087105,-0.642124,-0.149548,0.208345,-0.017582,1.007544
2011-09-26T14:44:03.763373,6280,0.117494,-0.670428,-0.140290,0.208707,-0.017716,1.008867
2011-09-26T14:44:03.773373,6290,0.147884,-0.698733,-0.131031,0.209070,-0.017851,1.010191
2011-09-26T14:44:03.783373,6300,0.178274,-0.727037,-0.121772,0.209433,-0.017985,1.011515
2011-09-26T14:44:03.793373,6310,0.208663,-0.755341,-0.112514,0.209795,-0.018120,1.012838
2011-09-26T14:44:03.803373,6320,0.229841,-0.765646,-0.116416,0.209880,-0.017927,1.013563
2011-09-26T14:44:03.813373,6330,0.240641,-0.755671,-0.135147,0.209651,-0.017366,1.013613
2011-09-26T14:44:03.823373,6340,0.251440,-0.745695,-0.153877,0.209423,-0.016805,1.013663
2011-09-26T14:44:03.833373,6350,0.262240,-0.735720,-0.172608,0.209194,-0.016243,1.013713
2011-09-26T14:44:03.843373,6360,0.273040,-0.725744,-0.191338,0.208965,-0.015682,1.013763
2011-09-26T14:44:03.853373,6370,0.283839,-0.715769,-0.210069,0.208737,-0.015121,1.013813
2011-09-26T14:44:03.863373,6380,0.294639,-0.705793,-0.228800,0.208508,-0.014559,1.013863
2011-09-26T14:44:03.873373,6390,0.305438,-0.695818,-0.247530,0.208279,-0.013998,1.013913
2011-09-26T14:44:03.883373,6400,0.316238,-0.685843,-0.266261,0.208051,-0.013437,1.013963
2011-09-26T14:44:03.893373,6410,0.327037,-0.675867,-0.284991,0.207822,-0.012875,1.014014
2011-09-26T14:44:03.903373,6420,0.350586,-0.654066,-0.290235,0.207868,-0.012500,1.014350
2011-09-26T14:44:03.913373,6430,0.388645,-0.618805,-0.280127,0.208226,-0.012338,1.015014
2011-09-26T14:44:03.923373,6440,0.426704,-0.583545,-0.270020,0.208584,-0.012175,1.015677
2011-09-26T14:44:03.933373,6450,0.464763,-0.548284,-0.259913,0.208942,-0.012012,1.016340
2011-09-26T14:44:03.943373,6460,0.502822,-0.513024,-0.249806,0.209300,-0.011850,1.017003
2011-09-26T14:44:03.953373,6470,0.540881,-0.477763,-0.239698,0.209659,-0.011687,1.017667
2011-09-26T14:44:03.963373,6480,0.578940,-0.442502,-0.229591,0.210017,-0.011524,1.018330
2011-09-26T14:44:03.973373,6490,0.616999,-0.407242,-0.219484,0.210375,-0.011362,1.018993
2011-09-26T14:44:03.983373,6500,0.655058,-0.371981,-0.209377,0.210733,-0.011199,1.019656
2011-09-26T14:44:03.993373,6510,0.693117,-0.336721,-0.199269,0.211091,-0.011036,1.020320
2011-09-26T14:44:04.003373,6520,0.711794,-0.304164,-0.191198,0.211200,-0.010587,1.019890
2011-09-26T14:44:04.013373,6530,0.708669,-0.274649,-0.185417,0.211027,-0.009817,1.018230
2011-09-26T14:44:04.023373,6540,0.705543,-0.245134,-0.179635,0.210854,-0.009046,1.016570
2011-09-26T14:44:04.033373,6550,0.702418,-0.215619,-0.173854,0.210682,-0.008276,1.014909
2011-09-26T14:44:04.043373,6560,0.699293,-0.186105,-0.168073,0.210509,-0.007506,1.013249
2011-09-26T14:44:04.053373,6570,0.696167,-0.156590,-0.162292,0.210336,-0.006735,1.011589
2011-09-26T14:44:04.063373,6580,0.693042,-0.127075,-0.156510,0.210164,-0.005965,1.009929
2011-09-26T14:44:04.073373,6590,0.689916,-0.097560,-0.150729,0.209991,-0.005194,1.008269
2011-09-26T14:44:04.083373,6600,0.686791,-0.068045,-0.144948,0.209818,-0.004424,1.006609
2011-09-26T14:44:04.093373,6610,0.683666,-0.038530,-0.139166,0.209646,-0.003653,1.004949
2011-09-26T14:44:04.103373,6620,0.680540,-0.009015,-0.133385,0.209473,-0.002883,1.003289
2011-09-26T14:44:04.113373,6630,0.673552,0.012159,-0.125713,0.209069,-0.002550,1.002985
2011-09-26T14:44:04.123373,6640,0.662219,0.023953,-0.115914,0.208406,-0.002711,1.004206
2011-09-26T14:44:04.133373,6650,0.650886,0.035746,-0.106115,0.207742,-0.002872,1.005428
2011-09-26T14:44:04.143373,6660,0.639553,0.047539,-0.096316,0.207078,-0.003033,1.006649
2011-09-26T14:44:04.153373,6670,0.628220,0.059332,-0.086518,0.206415,-0.003193,1.007871
2011-09-26T14:44:04.163373,6680,0.616887,0.071125,-0.076719,0.205751,-0.003354,1.009092
2011-09-26T14:44:04.173373,6690,0.605554,0.082918,-0.066920,0.205087,-0.003515,1.010314
2011-09-26T14:44:04.183373,6700,0.594220,0.094712,-0.057121,0.204424,-0.003675,1.011535
2011-09-26T14:44:04.193373,6710,0.582887,0.106505,-0.047322,0.203760,-0.003836,1.012756
2011-09-26T14:44:04.203373,6720,0.571554,0.118298,-0.037523,0.203096,-0.003997,1.013978
2011-09-26T14:44:04.213373,6730,0.571953,0.150451,-0.014337,0.201795,-0.003769,1.014161
2011-09-26T14:44:04.223373,6740,0.585601,0.205598,0.023971,0.199773,-0.003102,1.013172
2011-09-26T14:44:04.233373,6750,0.599250,0.260746,0.062278,0.197752,-0.002435,1.012183
2011-09-26T14:44:04.243373,6760,0.612899,0.315893,0.100585,0.195730,-0.001768,1.011194
2011-09-26T14:44:04.253373,6770,0.626547,0.371041,0.138892,0.193708,-0.001101,1.010205
2011-09-26T14:44:04.263373,6780,0.640196,0.426188,0.177199,0.191686,-0.000434,1.009216
2011-09-26T14:44:04.273373,6790,0.653844,0.481336,0.215507,0.189665,0.000233,1.008227
2011-09-26T14:44:04.283373,6800,0.667493,0.536483,0.253814,0.187643,0.000900,1.007238
2011-09-26T14:44:04.293373,6810,0.681142,0.591631,0.292121,0.185621,0.001566,1.006249
2011-09-26T14:44:04.303373,6820,0.694790,0.646778,0.330428,0.183600,0.002233,1.005260
2011-09-26T14:44:04.313373,6830,0.708439,0.701926,0.368735,0.181578,0.002900,1.004271
2011-09-26T14:44:04.323373,6840,0.720280,0.735838,0.387342,0.179028,0.003640,1.003403
2011-09-26T14:44:04.333373,6850,0.730101,0.746006,0.383921,0.175887,0.004461,1.002671
2011-09-26T14:44:04.343373,6860,0.739921,0.756174,0.380501,0.172746,0.005282,1.001939
2011-09-26T14:44:04.353373,6870,0.749742,0.766342,0.377080,0.169605,0.006103,1.001206
2011-09-26T14:44:04.363373,6880,0.759562,0.776510,0.373659,0.166465,0.006924,1.000474
2011-09-26T14:44:04.373373,6890,0.769383,0.786678,0.370238,0.163324,0.007745,0.999742
2011-09-26T14:44:04.383373,6900,0.779203,0.796846,0.366818,0.160183,0.008566,0.999010
2011-09-26T14:44:04.393373,6910,0.789024,0.807014,0.363397,0.157042,0.009388,0.998277
2011-09-26T14:44:04.403373,6920,0.798844,0.817183,0.359976,0.153901,0.010209,0.997545
2011-09-26T14:44:04.413373,6930,0.808665,0.827351,0.356555,0.150760,0.011030,0.996813
2011-09-26T14:44:04.423373,6940,0.800129,0.827500,0.361368,0.147770,0.011735,0.996623
2011-09-26T14:44:04.433373,6950,0.771027,0.816424,0.375404,0.144948,0.012312,0.997041
2011-09-26T14:44:04.443373,6960,0.741925,0.805348,0.389440,0.142126,0.012888,0.997459
2011-09-26T14:44:04.453373,6970,0.712822,0.794273,0.403476,0.139304,0.013464,0.997876
2011-09-26T14:44:04.463373,6980,0.683720,0.783197,0.417512,0.136482,0.014041,0.998294
2011-09-26T14:44:04.473373,6990,0.654618,0.772121,0.431548,0.133660,0.014617,0.998712
2011-09-26T14:44:04.483373,7000,0.625515,0.761045,0.445584,0.130837,0.015193,0.999130
2011-09-26T14:44:04.493373,7010,0.596413,0.749969,0.459621,0.128015,0.015769,0.999547
2011-09-26T14:44:04.503373,7020,0.567311,0.738894,0.473657,0.125193,0.016346,0.999965
2011-09-26T14:44:04.513373,7030,0.538209,0.727818,0.487693,0.122371,0.016922,1.000383
2011-09-26T14:44:04.523373,7040,0.509106,0.716742,0.501729,0.119549,0.017498,1.000801
2011-09-26T14:44:04.533373,7050,0.491808,0.723408,0.509814,0.116786,0.017612,1.000628
2011-09-26T14:44:04.543373,7060,0.487993,0.750337,0.511102,0.114090,0.017197,0.999782
2011-09-26T14:44:04.553373,7070,0.484177,0.777266,0.512390,0.111394,0.016782,0.998936
2011-09-26T14:44:04.563373,7080,0.480362,0.804195,0.513678,0.108699,0.016367,0.998090
2011-09-26T14:44:04.573373,7090,0.476546,0.831125,0.514966,0.106003,0.015952,0.997243
2011-09-26T14:44:04.583373,7100,0.472730,0.858054,0.516254,0.103307,0.015537,0.996397
2011-09-26T14:44:04.593373,7110,0.468915,0.884983,0.517542,0.100611,0.015122,0.995551
2011-09-26T14:44:04.603373,7120,0.465099,0.911912,0.518830,0.097915,0.014707,0.994705
2011-09-26T14:44:04.613373,7130,0.461283,0.938842,0.520118,0.095219,0.014293,0.993859
2011-09-26T14:44:04.623373,7140,0.457468,0.965771,0.521406,0.092523,0.013878,0.993012
2011-09-26T14:44:04.633373,7150,0.437460,0.979800,0.517649,0.091163,0.013632,0.992279
2011-09-26T14:44:04.643373,7160,0.398574,0.978790,0.508010,0.091359,0.013583,0.991678
2011-09-26T14:44:04.653373,7170,0.359687,0.977779,0.498371,0.091555,0.013535,0.991077
2011-09-26T14:44:04.663373,7180,0.320801,0.976769,0.488731,0.091751,0.013486,0.990476
2011-09-26T14:44:04.673373,7190,0.281914,0.975758,0.479092,0.091947,0.013437,0.989874
2011-09-26T14:44:04.683373,7200,0.243028,0.974748,0.469453,0.092143,0.013389,0.989273
2011-09-26T14:44:04.693373,7210,0.204142,0.973737,0.459814,0.092339,0.013340,0.988672
2011-09-26T14:44:04.703373,7220,0.165255,0.972726,0.450174,0.092535,0.013292,0.988071
2011-09-26T14:44:04.713373,7230,0.126369,0.971716,0.440535,0.092731,0.013243,0.987469
2011-09-26T14:44:04.723373,7240,0.087482,0.970705,0.430896,0.092926,0.013195,0.986868
2011-09-26T14:44:04.733373,7250,0.064003,0.955959,0.433414,0.092834,0.013419,0.986396
2011-09-26T14:44:04.743373,7260,0.057774,0.925834,0.449543,0.092419,0.013949,0.986069
2011-09-26T14:44:04.753373,7270,0.051544,0.895710,0.465673,0.092004,0.014478,0.985741
2011-09-26T14:44:04.763373,7280,0.045314,0.865586,0.481802,0.091588,0.015008,0.985414
2011-09-26T14:44:04.773373,7290,0.039084,0.835461,0.497931,0.091173,0.015538,0.985087
2011-09-26T14:44:04.783373,7300,0.032854,0.805337,0.514060,0.090758,0.016068,0.984760
2011-09-26T14:44:04.793373,7310,0.026625,0.775213,0.530189,0.090343,0.016598,0.984432
2011-09-26T14:44:04.803373,7320,0.020395,0.745088,0.546318,0.089927,0.017128,0.984105
2011-09-26T14:44:04.813373,7330,0.014165,0.714964,0.562448,0.089512,0.017657,0.983778
2011-09-26T14:44:04.823373,7340,0.007935,0.684840,0.578577,0.089097,0.018187,0.983450
2011-09-26T14:44:04.833373,7350,-0.005234,0.655303,0.585933,0.089168,0.018011,0.983390
2011-09-26T14:44:04.843373,7360,-0.026300,0.626435,0.583304,0.089792,0.017032,0.983633
2011-09-26T14:44:04.853373,7370,-0.047366,0.597568,0.580675,0.090416,0.016053,0.983875
2011-09-26T14:44:04.863373,7380,-0.068433,0.568700,0.578046,0.091040,0.015074,0.984118
2011-09-26T14:44:04.873373,7390,-0.089499,0.539832,0.575417,0.091664,0.014095,0.984361
2011-09-26T14:44:04.883373,7400,-0.110566,0.510965,0.572788,0.092288,0.013116,0.984604
2011-09-26T14:44:04.893373,7410,-0.131632,0.482097,0.570159,0.092912,0.012137,0.984847
2011-09-26T14:44:04.903373,7420,-0.152699,0.453229,0.567530,0.093536,0.011158,0.985089
2011-09-26T14:44:04.913373,7430,-0.158592,0.430334,0.564807,0.093853,0.010723,0.985436
2011-09-26T14:44:04.923373,7440,-0.147505,0.414123,0.561980,0.093825,0.010898,0.985897
2011-09-26T14:44:04.933373,7450,-0.136418,0.397911,0.559152,0.093798,0.011072,0.986359
2011-09-26T14:44:04.943373,7460,-0.125331,0.381700,0.556324,0.093770,0.011247,0.986821
2011-09-26T14:44:04.953373,7470,-0.114244,0.365489,0.553497,0.093743,0.011421,0.987283
2011-09-26T14:44:04.963373,7480,-0.103157,0.349277,0.550669,0.093716,0.011596,0.987745
2011-09-26T14:44:04.973373,7490,-0.092069,0.333066,0.547841,0.093688,0.011770,0.988207
2011-09-26T14:44:04.983373,7500,-0.080982,0.316854,0.545013,0.093661,0.011945,0.988669
2011-09-26T14:44:04.993373,7510,-0.069895,0.300643,0.542186,0.093634,0.012119,0.989130
2011-09-26T14:44:05.003373,7520,-0.058808,0.284431,0.539358,0.093606,0.012293,0.989592
2011-09-26T14:44:05.013373,7530,-0.047721,0.268220,0.536530,0.093579,0.012468,0.990054
2011-09-26T14:44:05.023373,7540,-0.036634,0.252009,0.533703,0.093552,0.012642,0.990516
2011-09-26T14:44:05.033373,7550,-0.025547,0.235797,0.530875,0.093524,0.012817,0.990978
2011-09-26T14:44:05.043373,7560,-0.038147,0.218587,0.529649,0.093646,0.013126,0.991237
2011-09-26T14:44:05.053373,7570,-0.079922,0.200148,0.530397,0.093950,0.013601,0.991247
2011-09-26T14:44:05.063373,7580,-0.121698,0.181709,0.531144,0.094254,0.014076,0.991257
2011-09-26T14:44:05.073373,7590,-0.163473,0.163269,0.531891,0.094558,0.014551,0.991267
2011-09-26T14:44:05.083373,7600,-0.205248,0.144830,0.532638,0.094863,0.015026,0.991277
2011-09-26T14:44:05.093373,7610,-0.247023,0.126391,0.533386,0.095167,0.015501,0.991287
2011-09-26T14:44:05.103373,7620,-0.288798,0.107951,0.534133,0.095471,0.015976,0.991297
2011-09-26T14:44:05.113373,7630,-0.330573,0.089512,0.534880,0.095775,0.016452,0.991307
2011-09-26T14:44:05.123373,7640,-0.372348,0.071073,0.535628,0.096080,0.016927,0.991317
2011-09-26T14:44:05.133373,7650,-0.414123,0.052633,0.536375,0.096384,0.017402,0.991327
2011-09-26T14:44:05.143373,7660,-0.430307,0.037223,0.539979,0.095908,0.016794,0.992147
2011-09-26T14:44:05.153373,7670,-0.417013,0.025301,0.546873,0.094535,0.014940,0.993899
2011-09-26T14:44:05.163373,7680,-0.403720,0.013380,0.553767,0.093161,0.013085,0.995651
2011-09-26T14:44:05.173373,7690,-0.390426,0.001458,0.560662,0.091788,0.011231,0.997403
2011-09-26T14:44:05.183373,7700,-0.377132,-0.010463,0.567556,0.090414,0.009377,0.999155
2011-09-26T14:44:05.193373,7710,-0.363838,-0.022385,0.574450,0.089040,0.007522,1.000907
2011-09-26T14:44:05.203373,7720,-0.350544,-0.034306,0.581344,0.087667,0.005668,1.002659
2011-09-26T14:44:05.213373,7730,-0.337250,-0.046228,0.588239,0.086293,0.003813,1.004412
2011-09-26T14:44:05.223373,7740,-0.323956,-0.058149,0.595133,0.084920,0.001959,1.006164
2011-09-26T14:44:05.233373,7750,-0.310662,-0.070071,0.602027,0.083546,0.000104,1.007916
2011-09-26T14:44:05.243373,7760,-0.297368,-0.081992,0.608921,0.082172,-0.001750,1.009668
2011-09-26T14:44:05.253373,7770,-0.295424,-0.062874,0.611731,0.080370,-0.001738,1.010601
2011-09-26T14:44:05.263373,7780,-0.306340,-0.008587,0.609914,0.078081,0.000387,1.010606
2011-09-26T14:44:05.273373,7790,-0.317256,0.045699,0.608096,0.075793,0.002513,1.010611
2011-09-26T14:44:05.283373,7800,-0.328173,0.099986,0.606279,0.073504,0.004639,1.010617
2011-09-26T14:44:05.293373,7810,-0.339089,0.154273,0.604461,0.071216,0.006765,1.010622
2011-09-26T14:44:05.303373,7820,-0.350005,0.208559,0.602644,0.068927,0.008890,1.010627
2011-09-26T14:44:05.313373,7830,-0.360921,0.262846,0.600826,0.066638,0.011016,1.010632
2011-09-26T14:44:05.323373,7840,-0.371837,0.317133,0.599008,0.064350,0.013142,1.010637
2011-09-26T14:44:05.333373,7850,-0.382753,0.371419,0.597191,0.062061,0.015268,1.010642
2011-09-26T14:44:05.343373,7860,-0.393669,0.425706,0.595373,0.059773,0.017393,1.010648
2011-09-26T14:44:05.353373,7870,-0.399412,0.444029,0.595446,0.058613,0.017842,1.010329
2011-09-26T14:44:05.363373,7880,-0.399159,0.420675,0.597708,0.058762,0.016347,1.009636
2011-09-26T14:44:05.373373,7890,-0.398906,0.397321,0.599970,0.058910,0.014852,1.008944
2011-09-26T14:44:05.383373,7900,-0.398653,0.373968,0.602232,0.059059,0.013356,1.008251
2011-09-26T14:44:05.393373,7910,-0.398400,0.350614,0.604494,0.059207,0.011861,1.007558
2011-09-26T14:44:05.403373,7920,-0.398147,0.327260,0.606756,0.059356,0.010366,1.006865
2011-09-26T14:44:05.413373,7930,-0.397895,0.303907,0.609018,0.059504,0.008871,1.006172
2011-09-26T14:44:05.423373,7940,-0.397642,0.280553,0.611280,0.059653,0.007376,1.005479
2011-09-26T14:44:05.433373,7950,-0.397389,0.257199,0.613542,0.059802,0.005881,1.004786
2011-09-26T14:44:05.443373,7960,-0.397136,0.233846,0.615805,0.059950,0.004386,1.004093
2011-09-26T14:44:05.453373,7970,-0.402803,0.214843,0.619855,0.059863,0.003537,1.003435
2011-09-26T14:44:05.463373,7980,-0.415186,0.200776,0.625935,0.059509,0.003420,1.002816
2011-09-26T14:44:05.473373,7990,-0.427568,0.186708,0.632014,0.059155,0.003303,1.002197
2011-09-26T14:44:05.483373,8000,-0.439951,0.172641,0.638094,0.058801,0.003186,1.001579
2011-09-26T14:44:05.493373,8010,-0.452333,0.158574,0.644173,0.058446,0.003070,1.000960
2011-09-26T14:44:05.503373,8020,-0.464716,0.144507,0.650253,0.058092,0.002953,1.000341
2011-09-26T14:44:05.513373,8030,-0.477098,0.130440,0.656332,0.057738,0.002836,0.999723
2011-09-26T14:44:05.523373,8040,-0.489481,0.116373,0.662412,0.057384,0.002719,0.999104
2011-09-26T14:44:05.533373,8050,-0.501863,0.102306,0.668491,0.057030,0.002603,0.998485
2011-09-26T14:44:05.543373,8060,-0.514246,0.088238,0.674571,0.056675,0.002486,0.997866
2011-09-26T14:44:05.553373,8070,-0.526628,0.074171,0.680650,0.056321,0.002369,0.997248
2011-09-26T14:44:05.563373,8080,-0.528061,0.075117,0.669322,0.056211,0.002832,0.997691
2011-09-26T14:44:05.573373,8090,-0.516404,0.094008,0.637183,0.056392,0.003987,0.999403
2011-09-26T14:44:05.583373,8100,-0.504747,0.112900,0.605045,0.056573,0.005142,1.001115
2011-09-26T14:44:05.593373,8110,-0.493090,0.131792,0.572906,0.056754,0.006297,1.002826
2011-09-26T14:44:05.603373,8120,-0.481433,0.150683,0.540768,0.056934,0.007453,1.004538
2011-09-26T14:44:05.613373,8130,-0.469776,0.169575,0.508630,0.057115,0.008608,1.006250
2011-09-26T14:44:05.623373,8140,-0.458119,0.188467,0.476491,0.057296,0.009763,1.007962
2011-09-26T14:44:05.633373,8150,-0.446463,0.207358,0.444353,0.057477,0.010918,1.009674
2011-09-26T14:44:05.643373,8160,-0.434806,0.226250,0.412214,0.057658,0.012073,1.011386
2011-09-26T14:44:05.653373,8170,-0.423149,0.245142,0.380076,0.057839,0.013229,1.013098
2011-09-26T14:44:05.663373,8180,-0.443961,0.280042,0.343228,0.057402,0.013267,1.013263
2011-09-26T14:44:05.673373,8190,-0.502351,0.333471,0.300930,0.056251,0.012014,1.011638
2011-09-26T14:44:05.683373,8200,-0.560741,0.386899,0.258632,0.055099,0.010761,1.010013
2011-09-26T14:44:05.693373,8210,-0.619131,0.440328,0.216334,0.053947,0.009508,1.008387
2011-09-26T14:44:05.703373,8220,-0.677521,0.493756,0.174036,0.052796,0.008254,1.006762
2011-09-26T14:44:05.713373,8230,-0.735911,0.547185,0.131738,0.051644,0.007001,1.005137
2011-09-26T14:44:05.723373,8240,-0.794301,0.600613,0.089440,0.050492,0.005748,1.003512
2011-09-26T14:44:05.733373,8250,-0.852691,0.654042,0.047142,0.049341,0.004495,1.001887
2011-09-26T14:44:05.743373,8260,-0.911082,0.707470,0.004844,0.048189,0.003241,1.000261
2011-09-26T14:44:05.753373,8270,-0.969472,0.760899,-0.037454,0.047037,0.001988,0.998636
2011-09-26T14:44:05.763373,8280,-1.006172,0.780962,-0.076869,0.046205,-0.000266,0.996347
2011-09-26T14:44:05.773373,8290,-1.018175,0.763038,-0.113002,0.045737,-0.003659,0.993301
2011-09-26T14:44:05.783373,8300,-1.030179,0.745113,-0.149135,0.045268,-0.007052,0.990255
2011-09-26T14:44:05.793373,8310,-1.042183,0.727188,-0.185268,0.044800,-0.010445,0.987210
2011-09-26T14:44:05.803373,8320,-1.054187,0.709263,-0.221401,0.044331,-0.013838,0.984164
2011-09-26T14:44:05.813373,8330,-1.066191,0.691338,-0.257535,0.043863,-0.017230,0.981118
2011-09-26T14:44:05.823373,8340,-1.078195,0.673413,-0.293668,0.043394,-0.020623,0.978072
2011-09-26T14:44:05.833373,8350,-1.090199,0.655488,-0.329801,0.042926,-0.024016,0.975027
2011-09-26T14:44:05.843373,8360,-1.102203,0.637563,-0.365934,0.042458,-0.027409,0.971981
2011-09-26T14:44:05.853373,8370,-1.114207,0.619639,-0.402067,0.041989,-0.030802,0.968935
2011-09-26T14:44:05.863373,8380,-1.126211,0.601714,-0.438200,0.041521,-0.034195,0.965889
2011-09-26T14:44:05.873373,8390,-1.100083,0.568612,-0.469944,0.041044,-0.035433,0.965052
2011-09-26T14:44:05.883373,8400,-1.030852,0.518354,-0.496725,0.040558,-0.034234,0.966709
2011-09-26T14:44:05.893373,8410,-0.961622,0.468096,-0.523507,0.040072,-0.033035,0.968367
2011-09-26T14:44:05.903373,8420,-0.892391,0.417838,-0.550288,0.039586,-0.031836,0.970025
2011-09-26T14:44:05.913373,8430,-0.823160,0.367581,-0.577070,0.039100,-0.030637,0.971683
2011-09-26T14:44:05.923373,8440,-0.753930,0.317323,-0.603851,0.038614,-0.029438,0.973341
2011-09-26T14:44:05.933373,8450,-0.684699,0.267065,-0.630633,0.038128,-0.028239,0.974999
2011-09-26T14:44:05.943373,8460,-0.615468,0.216808,-0.657414,0.037643,-0.027040,0.976657
2011-09-26T14:44:05.953373,8470,-0.546238,0.166550,-0.684196,0.037157,-0.025842,0.978315
2011-09-26T14:44:05.963373,8480,-0.477007,0.116292,-0.710977,0.036671,-0.024643,0.979973
2011-09-26T14:44:05.973373,8490,-0.429767,0.073515,-0.722130,0.037010,-0.023754,0.981495
2011-09-26T14:44:05.983373,8500,-0.407738,0.039312,-0.715366,0.038296,-0.023220,0.982863
2011-09-26T14:44:05.993373,8510,-0.385709,0.005110,-0.708602,0.039583,-0.022687,0.984230
2011-09-26T14:44:06.003373,8520,-0.363680,-0.029092,-0.701838,0.040869,-0.022153,0.985597
2011-09-26T14:44:06.013373,8530,-0.341650,-0.063295,-0.695073,0.042155,-0.021620,0.986965
2011-09-26T14:44:06.023373,8540,-0.319621,-0.097497,-0.688309,0.043441,-0.021086,0.988332
2011-09-26T14:44:06.033373,8550,-0.297592,-0.131700,-0.681545,0.044727,-0.020553,0.989700
2011-09-26T14:44:06.043373,8560,-0.275563,-0.165902,-0.674781,0.046013,-0.020019,0.991067
2011-09-26T14:44:06.053373,8570,-0.253534,-0.200104,-0.668017,0.047299,-0.019486,0.992434
2011-09-26T14:44:06.063373,8580,-0.231504,-0.234307,-0.661252,0.048586,-0.018952,0.993802
2011-09-26T14:44:06.073373,8590,-0.220140,-0.250938,-0.651353,0.049535,-0.019033,0.995248
2011-09-26T14:44:06.083373,8600,-0.221883,-0.245973,-0.637602,0.050070,-0.019869,0.996792
2011-09-26T14:44:06.093373,8610,-0.223626,-0.241007,-0.623850,0.050606,-0.020704,0.998336
2011-09-26T14:44:06.103373,8620,-0.225369,-0.236042,-0.610098,0.051141,-0.021540,0.999880
2011-09-26T14:44:06.113373,8630,-0.227112,-0.231076,-0.596346,0.051676,-0.022375,1.001424
2011-09-26T14:44:06.123373,8640,-0.228855,-0.226111,-0.582594,0.052212,-0.023211,1.002968
2011-09-26T14:44:06.133373,8650,-0.230598,-0.221146,-0.568842,0.052747,-0.024047,1.004512
2011-09-26T14:44:06.143373,8660,-0.232341,-0.216180,-0.555090,0.053282,-0.024882,1.006056
2011-09-26T14:44:06.153373,8670,-0.234084,-0.211215,-0.541339,0.053818,-0.025718,1.007600
2011-09-26T14:44:06.163373,8680,-0.235827,-0.206249,-0.527587,0.054353,-0.026553,1.009144
2011-09-26T14:44:06.173373,8690,-0.237571,-0.201284,-0.513835,0.054888,-0.027389,1.010688
2011-09-26T14:44:06.183373,8700,-0.215506,-0.175393,-0.503196,0.055028,-0.027808,1.011151
2011-09-26T14:44:06.193373,8710,-0.166204,-0.125563,-0.496117,0.054714,-0.027751,1.010376
2011-09-26T14:44:06.203373,8720,-0.116902,-0.075733,-0.489039,0.054400,-0.027695,1.009601
2011-09-26T14:44:06.213373,8730,-0.067601,-0.025903,-0.481960,0.054087,-0.027638,1.008826
2011-09-26T14:44:06.223373,8740,-0.018299,0.023927,-0.474882,0.053773,-0.027581,1.008051
2011-09-26T14:44:06.233373,8750,0.031003,0.073757,-0.467804,0.053459,-0.027524,1.007277
2011-09-26T14:44:06.243373,8760,0.080305,0.123587,-0.460725,0.053146,-0.027467,1.006502
2011-09-26T14:44:06.253373,8770,0.129607,0.173417,-0.453647,0.052832,-0.027410,1.005727
2011-09-26T14:44:06.263373,8780,0.178908,0.223247,-0.446568,0.052518,-0.027353,1.004952
2011-09-26T14:44:06.273373,8790,0.228210,0.273077,-0.439490,0.052205,-0.027297,1.004177
2011-09-26T14:44:06.283373,8800,0.261547,0.320817,-0.431485,0.051610,-0.027022,1.003668
2011-09-26T14:44:06.293373,8810,0.276428,0.366142,-0.422409,0.050689,-0.026495,1.003466
2011-09-26T14:44:06.303373,8820,0.291309,0.411466,-0.413332,0.049769,-0.025968,1.003264
2011-09-26T14:44:06.313373,8830,0.306190,0.456791,-0.404256,0.048848,-0.025442,1.003061
2011-09-26T14:44:06.323373,8840,0.321071,0.502115,-0.395180,0.047927,-0.024915,1.002859
2011-09-26T14:44:06.333373,8850,0.335952,0.547440,-0.386103,0.047007,-0.024388,1.002657
2011-09-26T14:44:06.343373,8860,0.350833,0.592764,-0.377027,0.046086,-0.023861,1.002455
2011-09-26T14:44:06.353373,8870,0.365714,0.638089,-0.367951,0.045166,-0.023334,1.002252
2011-09-26T14:44:06.363373,8880,0.380595,0.683413,-0.358874,0.044245,-0.022808,1.002050
2011-09-26T14:44:06.373373,8890,0.395476,0.728738,-0.349798,0.043325,-0.022281,1.001848
2011-09-26T14:44:06.383373,8900,0.408763,0.736563,-0.337798,0.042597,-0.021670,1.001112
2011-09-26T14:44:06.393373,8910,0.420160,0.699938,-0.322331,0.042097,-0.020959,0.999744
2011-09-26T14:44:06.403373,8920,0.431557,0.663313,-0.306865,0.041597,-0.020248,0.998376
2011-09-26T14:44:06.413373,8930,0.442954,0.626688,-0.291398,0.041097,-0.019538,0.997007
2011-09-26T14:44:06.423373,8940,0.454351,0.590063,-0.275932,0.040597,-0.018827,0.995639
2011-09-26T14:44:06.433373,8950,0.465748,0.553439,-0.260465,0.040097,-0.018116,0.994271
2011-09-26T14:44:06.443373,8960,0.477146,0.516814,-0.244999,0.039597,-0.017405,0.992903
2011-09-26T14:44:06.453373,8970,0.488543,0.480189,-0.229532,0.039098,-0.016694,0.991534
2011-09-26T14:44:06.463373,8980,0.499940,0.443564,-0.214066,0.038598,-0.015983,0.990166
2011-09-26T14:44:06.473373,8990,0.511337,0.406939,-0.198599,0.038098,-0.015273,0.988798
2011-09-26T14:44:06.483373,9000,0.522734,0.370314,-0.183133,0.037598,-0.014562,0.987430
2011-09-26T14:44:06.493373,9010,0.523182,0.333655,-0.173891,0.037393,-0.014551,0.986729
2011-09-26T14:44:06.503373,9020,0.510859,0.296955,-0.171910,0.037532,-0.015358,0.986806
2011-09-26T14:44:06.513373,9030,0.498537,0.260254,-0.169928,0.037671,-0.016164,0.986883
2011-09-26T14:44:06.523373,9040,0.486214,0.223554,-0.167946,0.037810,-0.016971,0.986960
2011-09-26T14:44:06.533373,9050,0.473892,0.186854,-0.165965,0.037949,-0.017777,0.987037
2011-09-26T14:44:06.543373,9060,0.461569,0.150154,-0.163983,0.038088,-0.018584,0.987114
2011-09-26T14:44:06.553373,9070,0.449246,0.113454,-0.162002,0.038227,-0.019390,0.987191
2011-09-26T14:44:06.563373,9080,0.436924,0.076754,-0.160020,0.038366,-0.020197,0.987269
2011-09-26T14:44:06.573373,9090,0.424601,0.040054,-0.158038,0.038505,-0.021003,0.987346
2011-09-26T14:44:06.583373,9100,0.412279,0.003353,-0.156057,0.038644,-0.021810,0.987423
2011-09-26T14:44:06.593373,9110,0.394470,-0.013592,-0.152555,0.038409,-0.021483,0.987700
2011-09-26T14:44:06.603373,9120,0.370137,-0.007047,-0.147245,0.037727,-0.019807,0.988216
2011-09-26T14:44:06.613373,9130,0.345805,-0.000501,-0.141934,0.037046,-0.018132,0.988732
2011-09-26T14:44:06.623373,9140,0.321473,0.006044,-0.136624,0.036365,-0.016456,0.989248
2011-09-26T14:44:06.633373,9150,0.297140,0.012589,-0.131314,0.035683,-0.014780,0.989764
2011-09-26T14:44:06.643373,9160,0.272808,0.019135,-0.126004,0.035002,-0.013105,0.990279
2011-09-26T14:44:06.653373,9170,0.248476,0.025680,-0.120694,0.034321,-0.011429,0.990795
2011-09-26T14:44:06.663373,9180,0.224143,0.032225,-0.115384,0.033639,-0.009754,0.991311
2011-09-26T14:44:06.673373,9190,0.199811,0.038771,-0.110074,0.032958,-0.008078,0.991827
2011-09-26T14:44:06.683373,9200,0.175479,0.045316,-0.104764,0.032277,-0.006403,0.992343
2011-09-26T14:44:06.693373,9210,0.161581,0.047377,-0.097180,0.031983,-0.005244,0.993067
2011-09-26T14:44:06.703373,9220,0.159978,0.044155,-0.086918,0.032147,-0.004694,0.994036
2011-09-26T14:44:06.713373,9230,0.158375,0.040934,-0.076656,0.032311,-0.004144,0.995005
2011-09-26T14:44:06.723373,9240,0.156771,0.037712,-0.066394,0.032474,-0.003593,0.995974
2011-09-26T14:44:06.733373,9250,0.155168,0.034490,-0.056132,0.032638,-0.003043,0.996943
2011-09-26T14:44:06.743373,9260,0.153565,0.031268,-0.045871,0.032802,-0.002493,0.997913
2011-09-26T14:44:06.753373,9270,0.151961,0.028047,-0.035609,0.032965,-0.001943,0.998882
2011-09-26T14:44:06.763373,9280,0.150358,0.024825,-0.025347,0.033129,-0.001393,0.999851
2011-09-26T14:44:06.773373,9290,0.148755,0.021603,-0.015085,0.033292,-0.000843,1.000820
2011-09-26T14:44:06.783373,9300,0.147151,0.018381,-0.004823,0.033456,-0.000292,1.001789
2011-09-26T14:44:06.793373,9310,0.145548,0.015160,0.005439,0.033620,0.000258,1.002759
2011-09-26T14:44:06.803373,9320,0.143945,0.011938,0.015701,0.033783,0.000808,1.003728
2011-09-26T14:44:06.813373,9330,0.142341,0.008716,0.025963,0.033947,0.001358,1.004697
2011-09-26T14:44:06.823373,9340,0.140738,0.005495,0.036225,0.034111,0.001908,1.005666
2011-09-26T14:44:06.833373,9350,0.139134,0.002273,0.046487,0.034274,0.002459,1.006636
2011-09-26T14:44:06.843373,9360,0.137531,-0.000949,0.056749,0.034438,0.003009,1.007605
2011-09-26T14:44:06.853373,9370,0.135928,-0.004171,0.067011,0.034602,0.003559,1.008574
2011-09-26T14:44:06.863373,9380,0.134324,-0.007392,0.077273,0.034765,0.004109,1.009543
2011-09-26T14:44:06.873373,9390,0.132721,-0.010614,0.087535,0.034929,0.004659,1.010512
2011-09-26T14:44:06.883373,9400,0.131118,-0.013836,0.097797,0.035092,0.005209,1.011482
2011-09-26T14:44:06.893373,9410,0.129514,-0.017057,0.108059,0.035256,0.005760,1.012451
2011-09-26T14:44:06.903373,9420,0.121277,0.000437,0.113834,0.035292,0.005384,1.012493
2011-09-26T14:44:06.913373,9430,0.105287,0.042142,0.114367,0.035179,0.003928,1.011452
2011-09-26T14:44:06.923373,9440,0.089297,0.083848,0.114900,0.035065,0.002472,1.010410
2011-09-26T14:44:06.933373,9450,0.073307,0.125553,0.115434,0.034952,0.001015,1.009369
2011-09-26T14:44:06.943373,9460,0.057317,0.167258,0.115967,0.034839,-0.000441,1.008328
2011-09-26T14:44:06.953373,9470,0.041327,0.208964,0.116500,0.034725,-0.001898,1.007287
2011-09-26T14:44:06.963373,9480,0.025337,0.250669,0.117033,0.034612,-0.003354,1.006245
2011-09-26T14:44:06.973373,9490,0.009346,0.292375,0.117566,0.034498,-0.004811,1.005204
2011-09-26T14:44:06.983373,9500,-0.006644,0.334080,0.118099,0.034385,-0.006267,1.004163
2011-09-26T14:44:06.993373,9510,-0.022634,0.375785,0.118632,0.034272,-0.007723,1.003122
2011-09-26T14:44:07.003373,9520,-0.026326,0.408072,0.114644,0.034221,-0.008214,1.002374
2011-09-26T14:44:07.013373,9530,-0.015436,0.429190,0.105297,0.034244,-0.007558,1.001975
2011-09-26T14:44:07.023373,9540,-0.004547,0.450308,0.095950,0.034268,-0.006903,1.001576
2011-09-26T14:44:07.033373,9550,0.006343,0.471426,0.086602,0.034291,-0.006248,1.001177
2011-09-26T14:44:07.043373,9560,0.017232,0.492545,0.077255,0.034314,-0.005592,1.000778
2011-09-26T14:44:07.053373,9570,0.028121,0.513663,0.067908,0.034338,-0.004937,1.000379
2011-09-26T14:44:07.063373,9580,0.039011,0.534781,0.058560,0.034361,-0.004282,0.999980
2011-09-26T14:44:07.073373,9590,0.049900,0.555899,0.049213,0.034385,-0.003626,0.999581
2011-09-26T14:44:07.083373,9600,0.060790,0.577018,0.039866,0.034408,-0.002971,0.999182
2011-09-26T14:44:07.093373,9610,0.071679,0.598136,0.030519,0.034431,-0.002316,0.998783
2011-09-26T14:44:07.103373,9620,0.082569,0.619254,0.021171,0.034455,-0.001660,0.998384
2011-09-26T14:44:07.113373,9630,0.088303,0.618046,0.018351,0.034287,-0.001464,0.997989
2011-09-26T14:44:07.123373,9640,0.087825,0.589932,0.023398,0.033888,-0.001820,0.997599
2011-09-26T14:44:07.133373,9650,0.087347,0.561819,0.028445,0.033490,-0.002176,0.997209
2011-09-26T14:44:07.143373,9660,0.086869,0.533705,0.033491,0.033091,-0.002532,0.996819
2011-09-26T14:44:07.153373,9670,0.086391,0.505591,0.038538,0.032693,-0.002888,0.996430
2011-09-26T14:44:07.163373,9680,0.085913,0.477477,0.043585,0.032294,-0.003245,0.996040
2011-09-26T14:44:07.173373,9690,0.085435,0.449363,0.048631,0.031895,-0.003601,0.995650
2011-09-26T14:44:07.183373,9700,0.084957,0.421250,0.053678,0.031497,-0.003957,0.995260
2011-09-26T14:44:07.193373,9710,0.084479,0.393136,0.058725,0.031098,-0.004313,0.994870
2011-09-26T14:44:07.203373,9720,0.084001,0.365022,0.063771,0.030700,-0.004669,0.994480
2011-09-26T14:44:07.213373,9730,0.083523,0.336908,0.068818,0.030301,-0.005026,0.994091
2011-09-26T14:44:07.223373,9740,0.083045,0.308794,0.073865,0.029903,-0.005382,0.993701
2011-09-26T14:44:07.233373,9750,0.082567,0.280681,0.078911,0.029504,-0.005738,0.993311
2011-09-26T14:44:07.243373,9760,0.082089,0.252567,0.083958,0.029106,-0.006094,0.992921
2011-09-26T14:44:07.253373,9770,0.081611,0.224453,0.089004,0.028707,-0.006450,0.992531
2011-09-26T14:44:07.263373,9780,0.081133,0.196339,0.094051,0.028309,-0.006807,0.992141
2011-09-26T14:44:07.273373,9790,0.080655,0.168226,0.099098,0.027910,-0.007163,0.991752
2011-09-26T14:44:07.283373,9800,0.080177,0.140112,0.104144,0.027512,-0.007519,0.991362
2011-09-26T14:44:07.293373,9810,0.079699,0.111998,0.109191,0.027113,-0.007875,0.990972
2011-09-26T14:44:07.303373,9820,0.079221,0.083884,0.114238,0.026714,-0.008231,0.990582
2011-09-26T14:44:07.313373,9830,0.078743,0.055771,0.119284,0.026316,-0.008588,0.990192
2011-09-26T14:44:07.323373,9840,0.078265,0.027657,0.124331,0.025917,-0.008944,0.989803
2011-09-26T14:44:07.333373,9850,0.077787,-0.000457,0.129377,0.025519,-0.009300,0.989413
2011-09-26T14:44:07.343373,9860,0.100686,-0.031858,0.127050,0.025338,-0.009479,0.989760
2011-09-26T14:44:07.353373,9870,0.151709,-0.067213,0.115851,0.025418,-0.009446,0.990993
2011-09-26T14:44:07.363373,9880,0.202732,-0.102568,0.104653,0.025498,-0.009412,0.992227
2011-09-26T14:44:07.373373,9890,0.253755,-0.137924,0.093454,0.025578,-0.009379,0.993460
2011-09-26T14:44:07.383373,9900,0.304778,-0.173279,0.082255,0.025658,-0.009345,0.994693
2011-09-26T14:44:07.393373,9910,0.355802,-0.208634,0.071056,0.025738,-0.009312,0.995927
2011-09-26T14:44:07.403373,9920,0.406825,-0.243990,0.059857,0.025818,-0.009278,0.997160
2011-09-26T14:44:07.413373,9930,0.457848,-0.279345,0.048658,0.025899,-0.009245,0.998394
2011-09-26T14:44:07.423373,9940,0.486811,-0.300988,0.047092,0.025719,-0.009106,0.999302
2011-09-26T14:44:07.433373,9950,0.489315,-0.306184,0.057078,0.025229,-0.008840,0.999821
2011-09-26T14:44:07.443373,9960,0.491820,-0.311381,0.067064,0.024739,-0.008575,1.000340
2011-09-26T14:44:07.453373,9970,0.494325,-0.316578,0.077051,0.024249,-0.008309,1.000859
2011-09-26T14:44:07.463373,9980,0.496830,-0.321775,0.087037,0.023758,-0.008044,1.001377
2011-09-26T14:44:07.473373,9990,0.499334,-0.326972,0.097023,0.023268,-0.007779,1.001896
2011-09-26T14:44:07.483373,10000,0.501839,-0.332168,0.107009,0.022778,-0.007513,1.002415
2011-09-26T14:44:07.493373,10010,0.504344,-0.337365,0.116995,0.022288,-0.007248,1.002934
2011-09-26T14:44:07.503373,10020,0.506849,-0.342562,0.126981,0.021798,-0.006982,1.003453
2011-09-26T14:44:07.513373,10030,0.509353,-0.347759,0.136967,0.021307,-0.006717,1.003971
2011-09-26T14:44:07.523373,10040,0.516383,-0.338872,0.140258,0.020561,-0.006831,1.004995
2011-09-26T14:44:07.533373,10050,0.528714,-0.313484,0.135705,0.019516,-0.007390,1.006610
2011-09-26T14:44:07.543373,10060,0.541044,-0.288097,0.131151,0.018471,-0.007949,1.008225
2011-09-26T14:44:07.553373,10070,0.553375,-0.262710,0.126598,0.017425,-0.008508,1.009840
2011-09-26T14:44:07.563373,10080,0.565706,-0.237323,0.122045,0.016380,-0.009067,1.011455
2011-09-26T14:44:07.573373,10090,0.578037,-0.211936,0.117491,0.015335,-0.009626,1.013070
2011-09-26T14:44:07.583373,10100,0.590367,-0.186548,0.112938,0.014289,-0.010185,1.014685
2011-09-26T14:44:07.593373,10110,0.602698,-0.161161,0.108384,0.013244,-0.010744,1.016300
2011-09-26T14:44:07.603373,10120,0.615029,-0.135774,0.103831,0.012198,-0.011303,1.017915
2011-09-26T14:44:07.613373,10130,0.627359,-0.110387,0.099278,0.011153,-0.011862,1.019530
2011-09-26T14:44:07.623373,10140,0.636046,-0.082083,0.102542,0.010059,-0.011669,1.020365
2011-09-26T14:44:07.633373,10150,0.640235,-0.050178,0.115457,0.008906,-0.010547,1.020239
2011-09-26T14:44:07.643373,10160,0.644423,-0.018273,0.128373,0.007753,-0.009426,1.020112
2011-09-26T14:44:07.653373,10170,0.648612,0.013632,0.141288,0.006600,-0.008304,1.019986
2011-09-26T14:44:07.663373,10180,0.652800,0.045538,0.154204,0.005447,-0.007183,1.019859
2011-09-26T14:44:07.673373,10190,0.656988,0.077443,0.167120,0.004294,-0.006061,1.019733
2011-09-26T14:44:07.683373,10200,0.661177,0.109348,0.180035,0.003141,-0.004940,1.019606
2011-09-26T14:44:07.693373,10210,0.665365,0.141253,0.192951,0.001987,-0.003818,1.019480
2011-09-26T14:44:07.703373,10220,0.669554,0.173158,0.205866,0.000834,-0.002697,1.019353
2011-09-26T14:44:07.713373,10230,0.673742,0.205063,0.218782,-0.000319,-0.001575,1.019226
2011-09-26T14:44:07.723373,10240,0.677930,0.236968,0.231697,-0.001472,-0.000454,1.019100
2011-09-26T14:44:07.733373,10250,0.678451,0.275179,0.235916,-0.002471,0.000050,1.017918
2011-09-26T14:44:07.743373,10260,0.674576,0.320948,0.229714,-0.003284,-0.000186,1.015472
2011-09-26T14:44:07.753373,10270,0.670701,0.366716,0.223513,-0.004098,-0.000422,1.013026
2011-09-26T14:44:07.763373,10280,0.666826,0.412485,0.217311,-0.004912,-0.000659,1.010580
2011-09-26T14:44:07.773373,10290,0.662950,0.458253,0.211109,-0.005726,-0.000895,1.008134
2011-09-26T14:44:07.783373,10300,0.659075,0.504022,0.204907,-0.006539,-0.001131,1.005688
2011-09-26T14:44:07.793373,10310,0.655200,0.549790,0.198705,-0.007353,-0.001367,1.003242
2011-09-26T14:44:07.803373,10320,0.651325,0.595558,0.192503,-0.008167,-0.001604,1.000796
2011-09-26T14:44:07.813373,10330,0.647450,0.641327,0.186302,-0.008980,-0.001840,0.998350
2011-09-26T14:44:07.823373,10340,0.643575,0.687095,0.180100,-0.009794,-0.002076,0.995904
2011-09-26T14:44:07.833373,10350,0.630844,0.721904,0.177567,-0.010297,-0.001619,0.993548
2011-09-26T14:44:07.843373,10360,0.606680,0.742566,0.179770,-0.010397,-0.000267,0.991309
2011-09-26T14:44:07.853373,10370,0.582516,0.763227,0.181974,-0.010498,0.001085,0.989069
2011-09-26T14:44:07.863373,10380,0.558352,0.783889,0.184177,-0.010599,0.002436,0.986829
2011-09-26T14:44:07.873373,10390,0.534188,0.804550,0.186380,-0.010699,0.003788,0.984589
2011-09-26T14:44:07.883373,10400,0.510025,0.825212,0.188584,-0.010800,0.005140,0.982349
2011-09-26T14:44:07.893373,10410,0.485861,0.845873,0.190787,-0.010901,0.006492,0.980110
2011-09-26T14:44:07.903373,10420,0.461697,0.866535,0.192990,-0.011001,0.007844,0.977870
2011-09-26T14:44:07.913373,10430,0.437533,0.887196,0.195194,-0.011102,0.009196,0.975630
2011-09-26T14:44:07.923373,10440,0.413369,0.907858,0.197397,-0.011203,0.010547,0.973390
2011-09-26T14:44:07.933373,10450,0.402086,0.897949,0.196824,-0.011228,0.010942,0.972901
2011-09-26T14:44:07.943373,10460,0.406611,0.850526,0.192843,-0.011162,0.010162,0.974560
2011-09-26T14:44:07.953373,10470,0.411136,0.803104,0.188862,-0.011095,0.009383,0.976219
2011-09-26T14:44:07.963373,10480,0.415661,0.755681,0.184881,-0.011029,0.008603,0.977878
2011-09-26T14:44:07.973373,10490,0.420186,0.708258,0.180900,-0.010962,0.007823,0.979537
2011-09-26T14:44:07.983373,10500,0.424711,0.660835,0.176920,-0.010895,0.007044,0.981196
2011-09-26T14:44:07.993373,10510,0.429236,0.613412,0.172939,-0.010829,0.006264,0.982855
2011-09-26T14:44:08.003373,10520,0.433761,0.565989,0.168958,-0.010762,0.005484,0.984514
2011-09-26T14:44:08.013373,10530,0.438286,0.518566,0.164977,-0.010696,0.004705,0.986173
2011-09-26T14:44:08.023373,10540,0.442811,0.471143,0.160996,-0.010629,0.003925,0.987832
2011-09-26T14:44:08.033373,10550,0.447335,0.423721,0.157016,-0.010563,0.003145,0.989491
2011-09-26T14:44:08.043373,10560,0.450196,0.390176,0.154997,-0.010632,0.002641,0.990717
2011-09-26T14:44:08.053373,10570,0.450851,0.375020,0.155578,-0.010881,0.002501,0.991371
2011-09-26T14:44:08.063373,10580,0.451505,0.359863,0.156159,-0.011131,0.002361,0.992024
2011-09-26T14:44:08.073373,10590,0.452160,0.344707,0.156740,-0.011380,0.002221,0.992677
2011-09-26T14:44:08.083373,10600,0.452815,0.329551,0.157321,-0.011629,0.002081,0.993331
2011-09-26T14:44:08.093373,10610,0.453469,0.314395,0.157902,-0.011879,0.001940,0.993984
2011-09-26T14:44:08.103373,10620,0.454124,0.299239,0.158483,-0.012128,0.001800,0.994637
2011-09-26T14:44:08.113373,10630,0.454779,0.284083,0.159064,-0.012378,0.001660,0.995290
2011-09-26T14:44:08.123373,10640,0.455433,0.268927,0.159645,-0.012627,0.001520,0.995944
2011-09-26T14:44:08.133373,10650,0.456088,0.253771,0.160226,-0.012876,0.001380,0.996597
2011-09-26T14:44:08.143373,10660,0.456743,0.238614,0.160807,-0.013126,0.001240,0.997250
2011-09-26T14:44:08.153373,10670,0.457397,0.223459,0.161388,-0.013375,0.001100,0.997904
2011-09-26T14:44:08.163373,10680,0.458052,0.208303,0.161969,-0.013624,0.000960,0.998557
2011-09-26T14:44:08.173373,10690,0.458707,0.193147,0.162550,-0.013874,0.000820,0.999210
2011-09-26T14:44:08.183373,10700,0.459362,0.177991,0.163132,-0.014123,0.000680,0.999863
2011-09-26T14:44:08.193373,10710,0.460016,0.162835,0.163713,-0.014373,0.000540,1.000517
2011-09-26T14:44:08.203373,10720,0.460671,0.147679,0.164294,-0.014622,0.000400,1.001170
2011-09-26T14:44:08.213373,10730,0.461326,0.132523,0.164875,-0.014871,0.000260,1.001823
2011-09-26T14:44:08.223373,10740,0.461980,0.117367,0.165456,-0.015121,0.000120,1.002477
2011-09-26T14:44:08.233373,10750,0.462635,0.102211,0.166037,-0.015370,-0.000020,1.003130
2011-09-26T14:44:08.243373,10760,0.463290,0.087055,0.166618,-0.015619,-0.000160,1.003783
2011-09-26T14:44:08.253373,10770,0.463944,0.071899,0.167199,-0.015869,-0.000300,1.004436
2011-09-26T14:44:08.263373,10780,0.464599,0.056743,0.167780,-0.016118,-0.000441,1.005090
2011-09-26T14:44:08.273373,10790,0.465254,0.041587,0.168361,-0.016368,-0.000581,1.005743
2011-09-26T14:44:08.283373,10800,0.465908,0.026431,0.168942,-0.016617,-0.000721,1.006396
2011-09-26T14:44:08.293373,10810,0.466563,0.011275,0.169523,-0.016866,-0.000861,1.007050
2011-09-26T14:44:08.303373,10820,0.467218,-0.003881,0.170104,-0.017116,-0.001001,1.007703
2011-09-26T14:44:08.313373,10830,0.467873,-0.019037,0.170685,-0.017365,-0.001141,1.008356
2011-09-26T14:44:08.323373,10840,0.468527,-0.034193,0.171266,-0.017614,-0.001281,1.009009
2011-09-26T14:44:08.333373,10850,0.469182,-0.049349,0.171847,-0.017864,-0.001421,1.009663
2011-09-26T14:44:08.343373,10860,0.469837,-0.064506,0.172428,-0.018113,-0.001561,1.010316
2011-09-26T14:44:08.353373,10870,0.463560,-0.059869,0.164929,-0.018417,-0.001047,1.010461
2011-09-26T14:44:08.363373,10880,0.449002,-0.031580,0.147775,-0.018784,0.000250,1.009997
2011-09-26T14:44:08.373373,10890,0.434443,-0.003291,0.130620,-0.019152,0.001546,1.009534
2011-09-26T14:44:08.383373,10900,0.419884,0.024998,0.113466,-0.019520,0.002843,1.009071
2011-09-26T14:44:08.393373,10910,0.405326,0.053287,0.096311,-0.019888,0.004139,1.008607
2011-09-26T14:44:08.403373,10920,0.390767,0.081575,0.079157,-0.020255,0.005436,1.008144
2011-09-26T14:44:08.413373,10930,0.376208,0.109864,0.062002,-0.020623,0.006732,1.007681
2011-09-26T14:44:08.423373,10940,0.361649,0.138153,0.044848,-0.020991,0.008029,1.007217
2011-09-26T14:44:08.433373,10950,0.347091,0.166442,0.027694,-0.021359,0.009325,1.006754
2011-09-26T14:44:08.443373,10960,0.332532,0.194731,0.010539,-0.021727,0.010622,1.006291
2011-09-26T14:44:08.453373,10970,0.321699,0.218483,-0.016867,-0.022183,0.010862,1.005895
2011-09-26T14:44:08.463373,10980,0.315496,0.236596,-0.057019,-0.022749,0.009790,1.005583
2011-09-26T14:44:08.473373,10990,0.309294,0.254710,-0.097170,-0.023316,0.008719,1.005272
2011-09-26T14:44:08.483373,11000,0.303092,0.272823,-0.137322,-0.023882,0.007647,1.004960
2011-09-26T14:44:08.493373,11010,0.296890,0.290936,-0.177473,-0.024449,0.006575,1.004648
2011-09-26T14:44:08.503373,11020,0.290687,0.309050,-0.217625,-0.025015,0.005503,1.004336
2011-09-26T14:44:08.513373,11030,0.284485,0.327163,-0.257776,-0.025582,0.004432,1.004024
2011-09-26T14:44:08.523373,11040,0.278283,0.345276,-0.297927,-0.026148,0.003360,1.003713
2011-09-26T14:44:08.533373,11050,0.272081,0.363389,-0.338079,-0.026715,0.002288,1.003401
2011-09-26T14:44:08.543373,11060,0.265878,0.381503,-0.378230,-0.027281,0.001216,1.003089
2011-09-26T14:44:08.553373,11070,0.260795,0.382176,-0.406832,-0.027948,0.000313,1.002093
2011-09-26T14:44:08.563373,11080,0.257157,0.360325,-0.420519,-0.028745,-0.000371,1.000212
2011-09-26T14:44:08.573373,11090,0.253519,0.338474,-0.434206,-0.029541,-0.001055,0.998331
2011-09-26T14:44:08.583373,11100,0.249880,0.316622,-0.447893,-0.030338,-0.001739,0.996450
2011-09-26T14:44:08.593373,11110,0.246242,0.294771,-0.461579,-0.031134,-0.002424,0.994569
2011-09-26T14:44:08.603373,11120,0.242604,0.272920,-0.475266,-0.031931,-0.003108,0.992688
2011-09-26T14:44:08.613373,11130,0.238966,0.251069,-0.488953,-0.032727,-0.003792,0.990807
2011-09-26T14:44:08.623373,11140,0.235328,0.229218,-0.502640,-0.033524,-0.004477,0.988926
2011-09-26T14:44:08.633373,11150,0.231689,0.207367,-0.516326,-0.034320,-0.005161,0.987045
2011-09-26T14:44:08.643373,11160,0.228051,0.185516,-0.530013,-0.035117,-0.005845,0.985164
2011-09-26T14:44:08.653373,11170,0.224413,0.163665,-0.543700,-0.035913,-0.006529,0.983283
2011-09-26T14:44:08.663373,11180,0.238737,0.154524,-0.554218,-0.036382,-0.007504,0.982770
2011-09-26T14:44:08.673373,11190,0.275338,0.161146,-0.560807,-0.036444,-0.008839,0.983955
2011-09-26T14:44:08.683373,11200,0.311939,0.167767,-0.567396,-0.036505,-0.010174,0.985139
2011-09-26T14:44:08.693373,11210,0.348540,0.174389,-0.573985,-0.036567,-0.011509,0.986323
2011-09-26T14:44:08.703373,11220,0.385141,0.181011,-0.580573,-0.036629,-0.012844,0.987508
2011-09-26T14:44:08.713373,11230,0.421741,0.187632,-0.587162,-0.036691,-0.014180,0.988692
2011-09-26T14:44:08.723373,11240,0.458342,0.194254,-0.593751,-0.036753,-0.015515,0.989877
2011-09-26T14:44:08.733373,11250,0.494943,0.200876,-0.600340,-0.036814,-0.016850,0.991061
2011-09-26T14:44:08.743373,11260,0.531544,0.207497,-0.606928,-0.036876,-0.018185,0.992245
2011-09-26T14:44:08.753373,11270,0.568145,0.214119,-0.613517,-0.036938,-0.019520,0.993430
2011-09-26T14:44:08.763373,11280,0.591893,0.218772,-0.614988,-0.036876,-0.019803,0.994352
2011-09-26T14:44:08.773373,11290,0.600057,0.221038,-0.610254,-0.036664,-0.018813,0.994957
2011-09-26T14:44:08.783373,11300,0.608222,0.223304,-0.605520,-0.036452,-0.017822,0.995563
2011-09-26T14:44:08.793373,11310,0.616387,0.225570,-0.600786,-0.036240,-0.016831,0.996168
2011-09-26T14:44:08.803373,11320,0.624552,0.227836,-0.596051,-0.036028,-0.015840,0.996773
2011-09-26T14:44:08.813373,11330,0.632716,0.230102,-0.591317,-0.035816,-0.014849,0.997378
2011-09-26T14:44:08.823373,11340,0.640881,0.232368,-0.586583,-0.035604,-0.013858,0.997983
2011-09-26T14:44:08.833373,11350,0.649046,0.234634,-0.581849,-0.035392,-0.012867,0.998589
2011-09-26T14:44:08.843373,11360,0.657210,0.236900,-0.577115,-0.035180,-0.011876,0.999194
2011-09-26T14:44:08.853373,11370,0.665375,0.239166,-0.572381,-0.034969,-0.010885,0.999799
2011-09-26T14:44:08.863373,11380,0.673540,0.241432,-0.567647,-0.034757,-0.009894,1.000404
2011-09-26T14:44:08.873373,11390,0.683125,0.229850,-0.561594,-0.034861,-0.009442,1.000598
2011-09-26T14:44:08.883373,11400,0.694441,0.201384,-0.553933,-0.035350,-0.009645,1.000292
2011-09-26T14:44:08.893373,11410,0.705758,0.172918,-0.546271,-0.035839,-0.009849,0.999985
2011-09-26T14:44:08.903373,11420,0.717075,0.144452,-0.538610,-0.036328,-0.010053,0.999679
2011-09-26T14:44:08.913373,11430,0.728391,0.115986,-0.530949,-0.036817,-0.010257,0.999372
2011-09-26T14:44:08.923373,11440,0.739708,0.087520,-0.523288,-0.037307,-0.010461,0.999066
2011-09-26T14:44:08.933373,11450,0.751025,0.059054,-0.515627,-0.037796,-0.010664,0.998759
2011-09-26T14:44:08.943373,11460,0.762341,0.030588,-0.507966,-0.038285,-0.010868,0.998453
2011-09-26T14:44:08.953373,11470,0.773658,0.002122,-0.500305,-0.038774,-0.011072,0.998146
2011-09-26T14:44:08.963373,11480,0.784974,-0.026344,-0.492644,-0.039263,-0.011276,0.997840
2011-09-26T14:44:08.973373,11490,0.786999,-0.049375,-0.481524,-0.039465,-0.011337,0.997470
2011-09-26T14:44:08.983373,11500,0.777588,-0.065717,-0.466147,-0.039312,-0.011222,0.997022
2011-09-26T14:44:08.993373,11510,0.768177,-0.082059,-0.450771,-0.039160,-0.011108,0.996574
2011-09-26T14:44:09.003373,11520,0.758767,-0.098401,-0.435394,-0.039007,-0.010993,0.996126
2011-09-26T14:44:09.013373,11530,0.749356,-0.114743,-0.420018,-0.038855,-0.010879,0.995678
2011-09-26T14:44:09.023373,11540,0.739945,-0.131085,-0.404642,-0.038702,-0.010764,0.995231
2011-09-26T14:44:09.033373,11550,0.730535,-0.147427,-0.389265,-0.038550,-0.010650,0.994783
2011-09-26T14:44:09.043373,11560,0.721124,-0.163769,-0.373889,-0.038397,-0.010535,0.994335
2011-09-26T14:44:09.053373,11570,0.711713,-0.180110,-0.358513,-0.038245,-0.010421,0.993887
2011-09-26T14:44:09.063373,11580,0.702303,-0.196452,-0.343136,-0.038092,-0.010306,0.993439
2011-09-26T14:44:09.073373,11590,0.698743,-0.209106,-0.331614,-0.037967,-0.010103,0.994003
2011-09-26T14:44:09.083373,11600,0.702675,-0.217038,-0.325027,-0.037879,-0.009785,0.995862
2011-09-26T14:44:09.093373,11610,0.706608,-0.224970,-0.318440,-0.037790,-0.009467,0.997722
2011-09-26T14:44:09.103373,11620,0.710541,-0.232901,-0.311853,-0.037701,-0.009149,0.999581
2011-09-26T14:44:09.113373,11630,0.714473,-0.240833,-0.305266,-0.037612,-0.008831,1.001440
2011-09-26T14:44:09.123373,11640,0.718406,-0.248765,-0.298679,-0.037523,-0.008513,1.003299
2011-09-26T14:44:09.133373,11650,0.722338,-0.256696,-0.292092,-0.037434,-0.008196,1.005158
2011-09-26T14:44:09.143373,11660,0.726271,-0.264628,-0.285505,-0.037345,-0.007878,1.007017
2011-09-26T14:44:09.153373,11670,0.730203,-0.272560,-0.278918,-0.037257,-0.007560,1.008877
2011-09-26T14:44:09.163373,11680,0.734136,-0.280491,-0.272331,-0.037168,-0.007242,1.010736
2011-09-26T14:44:09.173373,11690,0.738068,-0.288423,-0.265744,-0.037079,-0.006924,1.012595
2011-09-26T14:44:09.183373,11700,0.745136,-0.291057,-0.258149,-0.036936,-0.005962,1.013508
2011-09-26T14:44:09.193373,11710,0.756069,-0.287159,-0.249311,-0.036727,-0.004205,1.013255
2011-09-26T14:44:09.203373,11720,0.767002,-0.283261,-0.240473,-0.036517,-0.002449,1.013003
2011-09-26T14:44:09.213373,11730,0.777935,-0.279364,-0.231636,-0.036308,-0.000692,1.012750
2011-09-26T14:44:09.223373,11740,0.788868,-0.275466,-0.222798,-0.036098,0.001064,1.012497
2011-09-26T14:44:09.233373,11750,0.799801,-0.271568,-0.213960,-0.035889,0.002821,1.012244
2011-09-26T14:44:09.243373,11760,0.810734,-0.267670,-0.205123,-0.035679,0.004578,1.011991
2011-09-26T14:44:09.253373,11770,0.821667,-0.263772,-0.196285,-0.035470,0.006334,1.011738
2011-09-26T14:44:09.263373,11780,0.832600,-0.259874,-0.187447,-0.035260,0.008091,1.011486
2011-09-26T14:44:09.273373,11790,0.843533,-0.255976,-0.178610,-0.035051,0.009848,1.011233
2011-09-26T14:44:09.283373,11800,0.852045,-0.239972,-0.171320,-0.035082,0.010863,1.010601
2011-09-26T14:44:09.293373,11810,0.857566,-0.209011,-0.165944,-0.035412,0.010962,1.009500
2011-09-26T14:44:09.303373,11820,0.863086,-0.178049,-0.160568,-0.035741,0.011061,1.008399
2011-09-26T14:44:09.313373,11830,0.868607,-0.147088,-0.155191,-0.036070,0.011161,1.007298
2011-09-26T14:44:09.323373,11840,0.874128,-0.116127,-0.149815,-0.036399,0.011260,1.006198
2011-09-26T14:44:09.333373,11850,0.879648,-0.085165,-0.144439,-0.036729,0.011359,1.005097
2011-09-26T14:44:09.343373,11860,0.885169,-0.054204,-0.139062,-0.037058,0.011458,1.003996
2011-09-26T14:44:09.353373,11870,0.890690,-0.023243,-0.133686,-0.037387,0.011558,1.002895
2011-09-26T14:44:09.363373,11880,0.896211,0.007719,-0.128309,-0.037717,0.011657,1.001795
2011-09-26T14:44:09.373373,11890,0.901731,0.038680,-0.122933,-0.038046,0.011756,1.000694
2011-09-26T14:44:09.383373,11900,0.902920,0.055897,-0.110731,-0.038202,0.011887,1.000167
2011-09-26T14:44:09.393373,11910,0.898650,0.055791,-0.089926,-0.038139,0.012058,1.000364
2011-09-26T14:44:09.403373,11920,0.894379,0.055685,-0.069122,-0.038076,0.012229,1.000560
2011-09-26T14:44:09.413373,11930,0.890108,0.055580,-0.048317,-0.038014,0.012401,1.000757
2011-09-26T14:44:09.423373,11940,0.885838,0.055474,-0.027512,-0.037951,0.012572,1.000954
2011-09-26T14:44:09.433373,11950,0.881567,0.055368,-0.006707,-0.037888,0.012743,1.001151
2011-09-26T14:44:09.443373,11960,0.877296,0.055262,0.014098,-0.037826,0.012914,1.001347
2011-09-26T14:44:09.453373,11970,0.873025,0.055157,0.034902,-0.037763,0.013085,1.001544
2011-09-26T14:44:09.463373,11980,0.868755,0.055051,0.055707,-0.037700,0.013256,1.001741
2011-09-26T14:44:09.473373,11990,0.864484,0.054945,0.076512,-0.037638,0.013427,1.001937
2011-09-26T14:44:09.483373,12000,0.860213,0.054839,0.097317,-0.037575,0.013598,1.002134
2011-09-26T14:44:09.493373,12010,0.850874,0.055773,0.105535,-0.037623,0.013691,1.001877
2011-09-26T14:44:09.503373,12020,0.835166,0.058014,0.097942,-0.037812,0.013685,1.001051
2011-09-26T14:44:09.513373,12030,0.819459,0.060254,0.090348,-0.038000,0.013679,1.000224
2011-09-26T14:44:09.523373,12040,0.803751,0.062494,0.082755,-0.038189,0.013673,0.999398
2011-09-26T14:44:09.533373,12050,0.788044,0.064735,0.075161,-0.038377,0.013668,0.998571
2011-09-26T14:44:09.543373,12060,0.772336,0.066975,0.067568,-0.038566,0.013662,0.997745
2011-09-26T14:44:09.553373,12070,0.756629,0.069216,0.059974,-0.038754,0.013656,0.996918
2011-09-26T14:44:09.563373,12080,0.740921,0.071456,0.052381,-0.038943,0.013650,0.996092
2011-09-26T14:44:09.573373,12090,0.725214,0.073696,0.044788,-0.039131,0.013644,0.995265
2011-09-26T14:44:09.583373,12100,0.709506,0.075937,0.037194,-0.039320,0.013638,0.994439
2011-09-26T14:44:09.593373,12110,0.707664,0.085134,0.032109,-0.039247,0.014133,0.993893
2011-09-26T14:44:09.603373,12120,0.723164,0.103033,0.030162,-0.038849,0.015255,0.993699
2011-09-26T14:44:09.613373,12130,0.738664,0.120931,0.028215,-0.038451,0.016376,0.993504
2011-09-26T14:44:09.623373,12140,0.754163,0.138830,0.026267,-0.038052,0.017498,0.993310
2011-09-26T14:44:09.633373,12150,0.769663,0.156728,0.024320,-0.037654,0.018619,0.993116
2011-09-26T14:44:09.643373,12160,0.785163,0.174627,0.022372,-0.037256,0.019741,0.992921
2011-09-26T14:44:09.653373,12170,0.800662,0.192525,0.020425,-0.036857,0.020862,0.992727
2011-09-26T14:44:09.663373,12180,0.816162,0.210424,0.018478,-0.036459,0.021984,0.992532
2011-09-26T14:44:09.673373,12190,0.831662,0.228322,0.016530,-0.036060,0.023106,0.992338
2011-09-26T14:44:09.683373,12200,0.847161,0.246221,0.014583,-0.035662,0.024227,0.992144
2011-09-26T14:44:09.693373,12210,0.841203,0.246971,0.020266,-0.035449,0.025108,0.992200
2011-09-26T14:44:09.703373,12220,0.808515,0.226361,0.035453,-0.035467,0.025689,0.992570
2011-09-26T14:44:09.713373,12230,0.775828,0.205750,0.050640,-0.035484,0.026270,0.992940
2011-09-26T14:44:09.723373,12240,0.743140,0.185140,0.065827,-0.035502,0.026852,0.993310
2011-09-26T14:44:09.733373,12250,0.710453,0.164530,0.081014,-0.035520,0.027433,0.993680
2011-09-26T14:44:09.743373,12260,0.677765,0.143920,0.096201,-0.035538,0.028014,0.994050
2011-09-26T14:44:09.753373,12270,0.645078,0.123310,0.111388,-0.035555,0.028595,0.994420
2011-09-26T14:44:09.763373,12280,0.612390,0.102699,0.126575,-0.035573,0.029176,0.994790
2011-09-26T14:44:09.773373,12290,0.579703,0.082089,0.141762,-0.035591,0.029758,0.995160
2011-09-26T14:44:09.783373,12300,0.547015,0.061479,0.156949,-0.035608,0.030339,0.995530
2011-09-26T14:44:09.793373,12310,0.514328,0.040869,0.172136,-0.035626,0.030920,0.995900
2011-09-26T14:44:09.803373,12320,0.493211,0.024302,0.178325,-0.035572,0.030861,0.996292
2011-09-26T14:44:09.813373,12330,0.486644,0.012819,0.173200,-0.035427,0.029997,0.996711
2011-09-26T14:44:09.823373,12340,0.480077,0.001337,0.168075,-0.035282,0.029133,0.997130
2011-09-26T14:44:09.833373,12350,0.473509,-0.010146,0.162950,-0.035138,0.028269,0.997550
2011-09-26T14:44:09.843373,12360,0.466942,-0.021628,0.157825,-0.034993,0.027405,0.997969
2011-09-26T14:44:09.853373,12370,0.460374,-0.033111,0.152700,-0.034848,0.026541,0.998388
2011-09-26T14:44:09.863373,12380,0.453807,-0.044594,0.147575,-0.034703,0.025676,0.998807
2011-09-26T14:44:09.873373,12390,0.447239,-0.056076,0.142450,-0.034559,0.024812,0.999226
2011-09-26T14:44:09.883373,12400,0.440672,-0.067559,0.137324,-0.034414,0.023948,0.999646
2011-09-26T14:44:09.893373,12410,0.434105,-0.079041,0.132199,-0.034269,0.023084,1.000065
2011-09-26T14:44:09.903373,12420,0.423124,-0.078834,0.126849,-0.034352,0.022383,1.000232
2011-09-26T14:44:09.913373,12430,0.406620,-0.063994,0.121216,-0.034721,0.021886,1.000083
2011-09-26T14:44:09.923373,12440,0.390115,-0.049154,0.115582,-0.035090,0.021389,0.999934
2011-09-26T14:44:09.933373,12450,0.373611,-0.034315,0.109949,-0.035459,0.020892,0.999785
2011-09-26T14:44:09.943373,12460,0.357107,-0.019475,0.104316,-0.035828,0.020395,0.999636
2011-09-26T14:44:09.953373,12470,0.340602,-0.004635,0.098683,-0.036197,0.019897,0.999487
2011-09-26T14:44:09.963373,12480,0.324098,0.010204,0.093050,-0.036566,0.019400,0.999338
2011-09-26T14:44:09.973373,12490,0.307593,0.025044,0.087417,-0.036934,0.018903,0.999189
2011-09-26T14:44:09.983373,12500,0.291089,0.039884,0.081784,-0.037303,0.018406,0.999040
2011-09-26T14:44:09.993373,12510,0.274585,0.054724,0.076151,-0.037672,0.017909,0.998891
2011-09-26T14:44:10.003373,12520,0.263876,0.044308,0.068850,-0.037884,0.017620,0.998949
2011-09-26T14:44:10.013373,12530,0.260485,0.002007,0.059445,-0.037897,0.017595,0.999268
2011-09-26T14:44:10.023373,12540,0.257094,-0.040294,0.050040,-0.037911,0.017570,0.999587
2011-09-26T14:44:10.033373,12550,0.253703,-0.082594,0.040635,-0.037924,0.017546,0.999906
2011-09-26T14:44:10.043373,12560,0.250312,-0.124895,0.031230,-0.037938,0.017521,1.000224
2011-09-26T14:44:10.053373,12570,0.246920,-0.167195,0.021824,-0.037951,0.017496,1.000543
2011-09-26T14:44:10.063373,12580,0.243529,-0.209496,0.012419,-0.037965,0.017471,1.000862
2011-09-26T14:44:10.073373,12590,0.240138,-0.251797,0.003014,-0.037978,0.017446,1.001181
2011-09-26T14:44:10.083373,12600,0.236747,-0.294097,-0.006391,-0.037992,0.017421,1.001500
2011-09-26T14:44:10.093373,12610,0.233356,-0.336398,-0.015796,-0.038005,0.017396,1.001819
2011-09-26T14:44:10.103373,12620,0.229964,-0.378699,-0.025202,-0.038018,0.017371,1.002138
2011-09-26T14:44:10.113373,12630,0.231156,-0.409011,-0.024890,-0.038133,0.017707,1.002574
2011-09-26T14:44:10.123373,12640,0.238154,-0.424132,-0.012266,-0.038375,0.018500,1.003160
2011-09-26T14:44:10.133373,12650,0.245153,-0.439254,0.000357,-0.038616,0.019293,1.003746
2011-09-26T14:44:10.143373,12660,0.252151,-0.454375,0.012981,-0.038858,0.020086,1.004333
2011-09-26T14:44:10.153373,12670,0.259150,-0.469496,0.025605,-0.039100,0.020879,1.004919
2011-09-26T14:44:10.163373,12680,0.266148,-0.484618,0.038229,-0.039342,0.021672,1.005505
2011-09-26T14:44:10.173373,12690,0.273147,-0.499739,0.050852,-0.039584,0.022465,1.006091
2011-09-26T14:44:10.183373,12700,0.280145,-0.514860,0.063476,-0.039826,0.023258,1.006677
2011-09-26T14:44:10.193373,12710,0.287144,-0.529982,0.076100,-0.040068,0.024051,1.007263
2011-09-26T14:44:10.203373,12720,0.294142,-0.545103,0.088723,-0.040309,0.024844,1.007849
2011-09-26T14:44:10.213373,12730,0.295649,-0.546110,0.093629,-0.040481,0.024825,1.008326
2011-09-26T14:44:10.223373,12740,0.290317,-0.529535,0.088922,-0.040566,0.023796,1.008668
2011-09-26T14:44:10.233373,12750,0.284985,-0.512959,0.084215,-0.040651,0.022766,1.009010
2011-09-26T14:44:10.243373,12760,0.279653,-0.496384,0.079507,-0.040736,0.021736,1.009352
2011-09-26T14:44:10.253373,12770,0.274321,-0.479809,0.074800,-0.040821,0.020706,1.009694
2011-09-26T14:44:10.263373,12780,0.268989,-0.463234,0.070093,-0.040906,0.019676,1.010036
2011-09-26T14:44:10.273373,12790,0.263657,-0.446659,0.065385,-0.040991,0.018646,1.010378
2011-09-26T14:44:10.283373,12800,0.258324,-0.430084,0.060678,-0.041076,0.017616,1.010720
2011-09-26T14:44:10.293373,12810,0.252992,-0.413509,0.055971,-0.041161,0.016586,1.011062
2011-09-26T14:44:10.303373,12820,0.247660,-0.396934,0.051263,-0.041246,0.015556,1.011404
2011-09-26T14:44:10.313373,12830,0.259215,-0.378729,0.049133,-0.041079,0.015311,1.011360
2011-09-26T14:44:10.323373,12840,0.291788,-0.358496,0.050209,-0.040599,0.016043,1.010837
2011-09-26T14:44:10.333373,12850,0.324362,-0.338263,0.051285,-0.040120,0.016775,1.010313
2011-09-26T14:44:10.343373,12860,0.356935,-0.318030,0.052362,-0.039640,0.017506,1.009789
2011-09-26T14:44:10.353373,12870,0.389508,-0.297796,0.053438,-0.039161,0.018238,1.009265
2011-09-26T14:44:10.363373,12880,0.422081,-0.277563,0.054514,-0.038681,0.018970,1.008741
2011-09-26T14:44:10.373373,12890,0.454655,-0.257330,0.055590,-0.038202,0.019701,1.008218
2011-09-26T14:44:10.383373,12900,0.487228,-0.237097,0.056667,-0.037722,0.020433,1.007694
2011-09-26T14:44:10.393373,12910,0.519801,-0.216864,0.057743,-0.037243,0.021165,1.007170
2011-09-26T14:44:10.403373,12920,0.552374,-0.196631,0.058819,-0.036763,0.021896,1.006646
2011-09-26T14:44:10.413373,12930,0.584948,-0.176397,0.059896,-0.036284,0.022628,1.006123
2011-09-26T14:44:10.423373,12940,0.599565,-0.152403,0.058676,-0.035944,0.023500,1.005978
2011-09-26T14:44:10.433373,12950,0.591799,-0.123721,0.054596,-0.035779,0.024546,1.006307
2011-09-26T14:44:10.443373,12960,0.584033,-0.095038,0.050515,-0.035614,0.025592,1.006635
2011-09-26T14:44:10.453373,12970,0.576267,-0.066356,0.046435,-0.035449,0.026638,1.006964
2011-09-26T14:44:10.463373,12980,0.568501,-0.037674,0.042354,-0.035284,0.027684,1.007292
2011-09-26T14:44:10.473373,12990,0.560735,-0.008991,0.038274,-0.035119,0.028730,1.007621
2011-09-26T14:44:10.483373,13000,0.552969,0.019691,0.034193,-0.034954,0.029776,1.007949
2011-09-26T14:44:10.493373,13010,0.545203,0.048374,0.030113,-0.034789,0.030823,1.008278
2011-09-26T14:44:10.503373,13020,0.537436,0.077056,0.026032,-0.034624,0.031869,1.008606
2011-09-26T14:44:10.513373,13030,0.529670,0.105739,0.021952,-0.034459,0.032915,1.008935
2011-09-26T14:44:10.523373,13040,0.523920,0.121369,0.022501,-0.034485,0.033165,1.008897
2011-09-26T14:44:10.533373,13050,0.520674,0.120780,0.028803,-0.034748,0.032425,1.008404
2011-09-26T14:44:10.543373,13060,0.517429,0.120192,0.035105,-0.035010,0.031685,1.007911
2011-09-26T14:44:10.553373,13070,0.514183,0.119603,0.041407,-0.035273,0.030945,1.007418
2011-09-26T14:44:10.563373,13080,0.510937,0.119014,0.047709,-0.035536,0.030205,1.006925
2011-09-26T14:44:10.573373,13090,0.507692,0.118426,0.054011,-0.035798,0.029465,1.006432
2011-09-26T14:44:10.583373,13100,0.504446,0.117837,0.060313,-0.036061,0.028725,1.005939
2011-09-26T14:44:10.593373,13110,0.501200,0.117248,0.066615,-0.036324,0.027985,1.005446
2011-09-26T14:44:10.603373,13120,0.497955,0.116659,0.072917,-0.036586,0.027245,1.004953
2011-09-26T14:44:10.613373,13130,0.494709,0.116071,0.079219,-0.036849,0.026505,1.004461
2011-09-26T14:44:10.623373,13140,0.484801,0.119065,0.082957,-0.036994,0.025807,1.003867
2011-09-26T14:44:10.633373,13150,0.466395,0.126628,0.083427,-0.036990,0.025161,1.003144
2011-09-26T14:44:10.643373,13160,0.447990,0.134191,0.083896,-0.036985,0.024515,1.002421
2011-09-26T14:44:10.653373,13170,0.429585,0.141753,0.084366,-0.036981,0.023870,1.001698
2011-09-26T14:44:10.663373,13180,0.411179,0.149316,0.084835,-0.036976,0.023224,1.000975
2011-09-26T14:44:10.673373,13190,0.392774,0.156879,0.085305,-0.036972,0.022578,1.000252
2011-09-26T14:44:10.683373,13200,0.374368,0.164442,0.085775,-0.036967,0.021932,0.999530
2011-09-26T14:44:10.693373,13210,0.355963,0.172005,0.086244,-0.036963,0.021287,0.998807
2011-09-26T14:44:10.703373,13220,0.337558,0.179568,0.086714,-0.036958,0.020641,0.998084
2011-09-26T14:44:10.713373,13230,0.319152,0.187131,0.087183,-0.036954,0.019995,0.997361
2011-09-26T14:44:10.723373,13240,0.300747,0.194694,0.087653,-0.036949,0.019349,0.996638
2011-09-26T14:44:10.733373,13250,0.307598,0.199504,0.084953,-0.037066,0.019230,0.995978
2011-09-26T14:44:10.743373,13260,0.347094,0.200757,0.078156,-0.037340,0.019791,0.995400
2011-09-26T14:44:10.753373,13270,0.386590,0.202009,0.071359,-0.037614,0.020353,0.994822
2011-09-26T14:44:10.763373,13280,0.426086,0.203262,0.064562,-0.037888,0.020914,0.994244
2011-09-26T14:44:10.773373,13290,0.465582,0.204515,0.057765,-0.038162,0.021475,0.993666
2011-09-26T14:44:10.783373,13300,0.505077,0.205767,0.050968,-0.038436,0.022036,0.993088
2011-09-26T14:44:10.793373,13310,0.544573,0.207020,0.044171,-0.038710,0.022598,0.992510
2011-09-26T14:44:10.803373,13320,0.584069,0.208273,0.037374,-0.038984,0.023159,0.991931
2011-09-26T14:44:10.813373,13330,0.623565,0.209525,0.030578,-0.039257,0.023720,0.991353
2011-09-26T14:44:10.823373,13340,0.646844,0.209119,0.025556,-0.039399,0.024297,0.991331
2011-09-26T14:44:10.833373,13350,0.649493,0.206602,0.022793,-0.039372,0.024893,0.992016
2011-09-26T14:44:10.843373,13360,0.652141,0.204085,0.020031,-0.039345,0.025489,0.992701
2011-09-26T14:44:10.853373,13370,0.654789,0.201569,0.017268,-0.039318,0.026086,0.993386
2011-09-26T14:44:10.863373,13380,0.657438,0.199052,0.014505,-0.039291,0.026682,0.994071
2011-09-26T14:44:10.873373,13390,0.660086,0.196535,0.011742,-0.039264,0.027278,0.994756
2011-09-26T14:44:10.883373,13400,0.662734,0.194018,0.008980,-0.039238,0.027874,0.995442
2011-09-26T14:44:10.893373,13410,0.665382,0.191501,0.006217,-0.039211,0.028471,0.996127
2011-09-26T14:44:10.903373,13420,0.668031,0.188984,0.003454,-0.039184,0.029067,0.996812
2011-09-26T14:44:10.913373,13430,0.670679,0.186467,0.000691,-0.039157,0.029663,0.997497
2011-09-26T14:44:10.923373,13440,0.673327,0.183950,-0.002071,-0.039130,0.030259,0.998182
2011-09-26T14:44:10.933373,13450,0.677104,0.178436,-0.013582,-0.038956,0.030407,0.998389
2011-09-26T14:44:10.943373,13460,0.682409,0.168862,-0.036938,-0.038583,0.029949,0.997950
2011-09-26T14:44:10.953373,13470,0.687714,0.159288,-0.060294,-0.038210,0.029490,0.997511
2011-09-26T14:44:10.963373,13480,0.693019,0.149714,-0.083649,-0.037837,0.029031,0.997071
2011-09-26T14:44:10.973373,13490,0.698324,0.140141,-0.107005,-0.037464,0.028572,0.996632
2011-09-26T14:44:10.983373,13500,0.703629,0.130567,-0.130361,-0.037091,0.028113,0.996193
2011-09-26T14:44:10.993373,13510,0.708935,0.120993,-0.153716,-0.036718,0.027654,0.995754
2011-09-26T14:44:11.003373,13520,0.714240,0.111419,-0.177072,-0.036345,0.027195,0.995314
2011-09-26T14:44:11.013373,13530,0.719545,0.101845,-0.200428,-0.035972,0.026736,0.994875
