pc_time,ts_ms,gyroX,gyroY,gyroZ,accelX,accelY,accelZ
2011-09-26T15:13:44.353650,0,0.219971,0.488734,-2.081625,-0.031989,0.003001,0.924855
2011-09-26T15:13:44.363650,10,0.239731,0.429299,-2.100164,-0.031062,0.002488,0.930031
2011-09-26T15:13:44.373650,20,0.259490,0.369865,-2.118703,-0.030135,0.001975,0.935206
2011-09-26T15:13:44.383650,30,0.279249,0.310430,-2.137241,-0.029208,0.001462,0.940382
2011-09-26T15:13:44.393650,40,0.299009,0.250996,-2.155780,-0.028281,0.000949,0.945557
2011-09-26T15:13:44.403650,50,0.318768,0.191562,-2.174319,-0.027353,0.000436,0.950732
2011-09-26T15:13:44.413650,60,0.338527,0.132127,-2.192858,-0.026426,-0.000077,0.955908
2011-09-26T15:13:44.423650,70,0.358287,0.072693,-2.211396,-0.025499,-0.000589,0.961083
2011-09-26T15:13:44.433650,80,0.378046,0.013258,-2.229935,-0.024572,-0.001102,0.966259
2011-09-26T15:13:44.443650,90,0.397805,-0.046176,-2.248474,-0.023645,-0.001615,0.971434
2011-09-26T15:13:44.453650,100,0.417565,-0.105611,-2.267013,-0.022717,-0.002128,0.976609
2011-09-26T15:13:44.463650,110,0.427996,-0.089952,-2.250914,-0.024355,-0.004342,0.980787
2011-09-26T15:13:44.473650,120,0.438422,-0.074249,-2.234794,-0.025995,-0.006556,0.984963
2011-09-26T15:13:44.483650,130,0.448848,-0.058546,-2.218675,-0.027634,-0.008771,0.989140
2011-09-26T15:13:44.493650,140,0.459273,-0.042843,-2.202556,-0.029273,-0.010985,0.993316
2011-09-26T15:13:44.503650,150,0.469699,-0.027140,-2.186437,-0.030913,-0.013200,0.997493
2011-09-26T15:13:44.513650,160,0.480125,-0.011437,-2.170318,-0.032552,-0.015415,1.001669
2011-09-26T15:13:44.523650,170,0.490551,0.004266,-2.154198,-0.034192,-0.017629,1.005846
2011-09-26T15:13:44.533650,180,0.500977,0.019969,-2.138079,-0.035831,-0.019844,1.010022
2011-09-26T15:13:44.543650,190,0.511403,0.035672,-2.121960,-0.037470,-0.022058,1.014199
2011-09-26T15:13:44.553650,200,0.521832,0.051390,-2.105833,-0.039104,-0.024261,1.018368
2011-09-26T15:13:44.563650,210,0.533763,0.073355,-2.086184,-0.038468,-0.021105,1.019346
2011-09-26T15:13:44.573650,220,0.545694,0.095321,-2.066535,-0.037831,-0.017949,1.020324
2011-09-26T15:13:44.583650,230,0.557624,0.117287,-2.046886,-0.037194,-0.014794,1.021303
2011-09-26T15:13:44.593650,240,0.569555,0.139253,-2.027238,-0.036557,-0.011638,1.022281
2011-09-26T15:13:44.603650,250,0.581486,0.161219,-2.007589,-0.035921,-0.008482,1.023259
2011-09-26T15:13:44.613650,260,0.593417,0.183185,-1.987940,-0.035284,-0.005327,1.024237
2011-09-26T15:13:44.623650,270,0.605348,0.205151,-1.968291,-0.034647,-0.002171,1.025216
2011-09-26T15:13:44.633650,280,0.617278,0.227117,-1.948643,-0.034010,0.000985,1.026194
2011-09-26T15:13:44.643650,290,0.629209,0.249083,-1.928994,-0.033374,0.004140,1.027172
2011-09-26T15:13:44.653650,300,0.641140,0.271048,-1.909345,-0.032737,0.007296,1.028150
2011-09-26T15:13:44.663650,310,0.653071,0.293014,-1.889696,-0.032100,0.010452,1.029129
2011-09-26T15:13:44.673650,320,0.570911,0.260510,-1.894716,-0.033087,0.006619,1.026742
2011-09-26T15:13:44.683650,330,0.488079,0.227616,-1.899913,-0.034087,0.002737,1.024332
2011-09-26T15:13:44.693650,340,0.405246,0.194722,-1.905110,-0.035086,-0.001145,1.021921
2011-09-26T15:13:44.703650,350,0.322413,0.161828,-1.910307,-0.036085,-0.005027,1.019511
2011-09-26T15:13:44.713650,360,0.239581,0.128934,-1.915503,-0.037084,-0.008910,1.017100
2011-09-26T15:13:44.723650,370,0.156748,0.096041,-1.920700,-0.038083,-0.012792,1.014690
2011-09-26T15:13:44.733650,380,0.073915,0.063147,-1.925897,-0.039082,-0.016674,1.012279
2011-09-26T15:13:44.743650,390,-0.008917,0.030253,-1.931093,-0.040081,-0.020557,1.009869
2011-09-26T15:13:44.753650,400,-0.091750,-0.002641,-1.936290,-0.041080,-0.024439,1.007458
2011-09-26T15:13:44.763650,410,-0.173555,-0.035600,-1.941340,-0.042061,-0.028274,1.005082
2011-09-26T15:13:44.773650,420,-0.146175,-0.075408,-1.930849,-0.041013,-0.027136,1.006377
2011-09-26T15:13:44.783650,430,-0.118795,-0.115216,-1.920357,-0.039966,-0.025998,1.007671
2011-09-26T15:13:44.793650,440,-0.091415,-0.155024,-1.909865,-0.038918,-0.024859,1.008965
2011-09-26T15:13:44.803650,450,-0.064035,-0.194832,-1.899373,-0.037871,-0.023721,1.010260
2011-09-26T15:13:44.813650,460,-0.036655,-0.234641,-1.888882,-0.036823,-0.022583,1.011554
2011-09-26T15:13:44.823650,470,-0.009275,-0.274449,-1.878390,-0.035776,-0.021445,1.012848
2011-09-26T15:13:44.833650,480,0.018105,-0.314257,-1.867898,-0.034728,-0.020306,1.014143
2011-09-26T15:13:44.843650,490,0.045485,-0.354065,-1.857407,-0.033681,-0.019168,1.015437
2011-09-26T15:13:44.853650,500,0.072865,-0.393873,-1.846915,-0.032633,-0.018030,1.016731
2011-09-26T15:13:44.863650,510,0.100244,-0.433682,-1.836423,-0.031586,-0.016892,1.018026
2011-09-26T15:13:44.873650,520,0.127603,-0.473082,-1.825882,-0.030543,-0.015751,1.019299
2011-09-26T15:13:44.883650,530,0.151404,-0.445057,-1.807099,-0.030300,-0.014277,1.017112
2011-09-26T15:13:44.893650,540,0.175205,-0.417033,-1.788316,-0.030058,-0.012803,1.014925
2011-09-26T15:13:44.903650,550,0.199006,-0.389008,-1.769534,-0.029816,-0.011329,1.012738
2011-09-26T15:13:44.913650,560,0.222807,-0.360983,-1.750751,-0.029573,-0.009854,1.010551
2011-09-26T15:13:44.923650,570,0.246608,-0.332958,-1.731969,-0.029331,-0.008380,1.008364
2011-09-26T15:13:44.933650,580,0.270409,-0.304933,-1.713186,-0.029088,-0.006906,1.006177
2011-09-26T15:13:44.943650,590,0.294210,-0.276908,-1.694404,-0.028846,-0.005431,1.003990
2011-09-26T15:13:44.953650,600,0.318012,-0.248883,-1.675621,-0.028603,-0.003957,1.001803
2011-09-26T15:13:44.963650,610,0.341813,-0.220858,-1.656839,-0.028361,-0.002483,0.999616
2011-09-26T15:13:44.973650,620,0.365678,-0.192934,-1.638122,-0.028117,-0.001010,0.997435
2011-09-26T15:13:44.983650,630,0.422827,-0.217137,-1.653426,-0.027109,-0.000265,0.998555
2011-09-26T15:13:44.993650,640,0.479976,-0.241341,-1.668731,-0.026101,0.000480,0.999674
2011-09-26T15:13:45.003650,650,0.537125,-0.265544,-1.684036,-0.025092,0.001225,1.000794
2011-09-26T15:13:45.013650,660,0.594274,-0.289747,-1.699340,-0.024084,0.001970,1.001914
2011-09-26T15:13:45.023650,670,0.651423,-0.313950,-1.714645,-0.023076,0.002716,1.003033
2011-09-26T15:13:45.033650,680,0.708572,-0.338153,-1.729949,-0.022068,0.003461,1.004153
2011-09-26T15:13:45.043650,690,0.765721,-0.362357,-1.745254,-0.021060,0.004206,1.005273
2011-09-26T15:13:45.053650,700,0.822870,-0.386560,-1.760558,-0.020052,0.004951,1.006393
2011-09-26T15:13:45.063650,710,0.880019,-0.410763,-1.775863,-0.019044,0.005696,1.007512
2011-09-26T15:13:45.073650,720,0.936978,-0.434834,-1.791108,-0.018038,0.006437,1.008632
2011-09-26T15:13:45.083650,730,0.882833,-0.381526,-1.771728,-0.018636,0.004559,1.009420
2011-09-26T15:13:45.093650,740,0.828687,-0.328217,-1.752347,-0.019233,0.002681,1.010208
2011-09-26T15:13:45.103650,750,0.774542,-0.274909,-1.732966,-0.019830,0.000803,1.010996
2011-09-26T15:13:45.113650,760,0.720397,-0.221601,-1.713585,-0.020428,-0.001075,1.011784
2011-09-26T15:13:45.123650,770,0.666251,-0.168292,-1.694205,-0.021025,-0.002953,1.012572
2011-09-26T15:13:45.133650,780,0.612106,-0.114984,-1.674824,-0.021623,-0.004831,1.013360
2011-09-26T15:13:45.143650,790,0.557961,-0.061676,-1.655443,-0.022220,-0.006709,1.014148
2011-09-26T15:13:45.153650,800,0.503815,-0.008367,-1.636062,-0.022817,-0.008587,1.014936
2011-09-26T15:13:45.163650,810,0.449670,0.044941,-1.616682,-0.023415,-0.010465,1.015724
2011-09-26T15:13:45.173650,820,0.395525,0.098249,-1.597301,-0.024012,-0.012343,1.016512
2011-09-26T15:13:45.183650,830,0.439351,0.176276,-1.567604,-0.025091,-0.010498,1.012177
2011-09-26T15:13:45.193650,840,0.484679,0.254682,-1.537749,-0.026177,-0.008596,1.007765
2011-09-26T15:13:45.203650,850,0.530007,0.333087,-1.507894,-0.027264,-0.006694,1.003352
2011-09-26T15:13:45.213650,860,0.575334,0.411493,-1.478038,-0.028350,-0.004792,0.998939
2011-09-26T15:13:45.223650,870,0.620662,0.489898,-1.448183,-0.029436,-0.002889,0.994527
2011-09-26T15:13:45.233650,880,0.665989,0.568304,-1.418328,-0.030523,-0.000987,0.990114
2011-09-26T15:13:45.243650,890,0.711317,0.646709,-1.388473,-0.031609,0.000915,0.985702
2011-09-26T15:13:45.253650,900,0.756644,0.725114,-1.358618,-0.032696,0.002817,0.981289
2011-09-26T15:13:45.263650,910,0.801972,0.803520,-1.328763,-0.033782,0.004719,0.976876
2011-09-26T15:13:45.273650,920,0.847299,0.881925,-1.298908,-0.034868,0.006621,0.972464
2011-09-26T15:13:45.283650,930,0.892277,0.960017,-1.269085,-0.035950,0.008529,0.968073
2011-09-26T15:13:45.293650,940,0.843192,0.953935,-1.247860,-0.035698,0.012149,0.969465
2011-09-26T15:13:45.303650,950,0.794108,0.947853,-1.226635,-0.035446,0.015769,0.970857
2011-09-26T15:13:45.313650,960,0.745024,0.941772,-1.205409,-0.035195,0.019389,0.972249
2011-09-26T15:13:45.323650,970,0.695940,0.935690,-1.184184,-0.034943,0.023009,0.973642
2011-09-26T15:13:45.333650,980,0.646856,0.929608,-1.162959,-0.034692,0.026629,0.975034
2011-09-26T15:13:45.343650,990,0.597772,0.923526,-1.141734,-0.034440,0.030249,0.976426
2011-09-26T15:13:45.353650,1000,0.548687,0.917444,-1.120509,-0.034188,0.033869,0.977819
2011-09-26T15:13:45.363650,1010,0.499603,0.911362,-1.099284,-0.033937,0.037489,0.979211
2011-09-26T15:13:45.373650,1020,0.450519,0.905280,-1.078059,-0.033685,0.041109,0.980603
2011-09-26T15:13:45.383650,1030,0.401623,0.899200,-1.056681,-0.033442,0.044708,0.981992
2011-09-26T15:13:45.393650,1040,0.404539,0.893800,-0.993030,-0.035427,0.042425,0.982381
2011-09-26T15:13:45.403650,1050,0.407456,0.888400,-0.929380,-0.037412,0.040142,0.982771
2011-09-26T15:13:45.413650,1060,0.410372,0.883000,-0.865729,-0.039397,0.037858,0.983160
2011-09-26T15:13:45.423650,1070,0.413288,0.877600,-0.802079,-0.041382,0.035575,0.983550
2011-09-26T15:13:45.433650,1080,0.416205,0.872200,-0.738428,-0.043367,0.033292,0.983939
2011-09-26T15:13:45.443650,1090,0.419121,0.866800,-0.674778,-0.045352,0.031009,0.984328
2011-09-26T15:13:45.453650,1100,0.422038,0.861400,-0.611127,-0.047337,0.028725,0.984718
2011-09-26T15:13:45.463650,1110,0.424954,0.855999,-0.547476,-0.049322,0.026442,0.985107
2011-09-26T15:13:45.473650,1120,0.427871,0.850599,-0.483826,-0.051307,0.024159,0.985497
2011-09-26T15:13:45.483650,1130,0.430285,0.844863,-0.420360,-0.053275,0.021886,0.985874
2011-09-26T15:13:45.493650,1140,0.314303,0.759901,-0.400366,-0.051199,0.022026,0.983304
2011-09-26T15:13:45.503650,1150,0.198321,0.674939,-0.380373,-0.049123,0.022167,0.980734
2011-09-26T15:13:45.513650,1160,0.082339,0.589976,-0.360379,-0.047047,0.022307,0.978164
2011-09-26T15:13:45.523650,1170,-0.033642,0.505014,-0.340386,-0.044971,0.022447,0.975594
2011-09-26T15:13:45.533650,1180,-0.149624,0.420052,-0.320392,-0.042895,0.022588,0.973024
2011-09-26T15:13:45.543650,1190,-0.265606,0.335089,-0.300399,-0.040819,0.022728,0.970455
2011-09-26T15:13:45.553650,1200,-0.381588,0.250127,-0.280405,-0.038743,0.022868,0.967885
2011-09-26T15:13:45.563650,1210,-0.497569,0.165165,-0.260412,-0.036667,0.023009,0.965315
2011-09-26T15:13:45.573650,1220,-0.613551,0.080203,-0.240418,-0.034591,0.023149,0.962745
2011-09-26T15:13:45.583650,1230,-0.729533,-0.004760,-0.220425,-0.032515,0.023290,0.960175
2011-09-26T15:13:45.593650,1240,-0.845316,-0.089688,-0.200438,-0.030445,0.023423,0.957618
2011-09-26T15:13:45.603650,1250,-0.856935,-0.156795,-0.184049,-0.031540,0.020149,0.961677
2011-09-26T15:13:45.613650,1260,-0.868554,-0.223903,-0.167660,-0.032634,0.016874,0.965736
2011-09-26T15:13:45.623650,1270,-0.880172,-0.291010,-0.151270,-0.033728,0.013600,0.969795
2011-09-26T15:13:45.633650,1280,-0.891791,-0.358118,-0.134881,-0.034823,0.010325,0.973853
2011-09-26T15:13:45.643650,1290,-0.903410,-0.425225,-0.118492,-0.035917,0.007050,0.977912
2011-09-26T15:13:45.653650,1300,-0.915029,-0.492332,-0.102102,-0.037012,0.003776,0.981971
2011-09-26T15:13:45.663650,1310,-0.926648,-0.559440,-0.085713,-0.038106,0.000501,0.986030
2011-09-26T15:13:45.673650,1320,-0.938267,-0.626547,-0.069324,-0.039201,-0.002773,0.990089
2011-09-26T15:13:45.683650,1330,-0.949886,-0.693655,-0.052934,-0.040295,-0.006048,0.994147
2011-09-26T15:13:45.693650,1340,-0.961505,-0.760762,-0.036545,-0.041390,-0.009323,0.998206
2011-09-26T15:13:45.703650,1350,-0.897851,-0.808091,0.014918,-0.039364,-0.006243,0.998038
2011-09-26T15:13:45.713650,1360,-0.833819,-0.855321,0.066557,-0.037323,-0.003132,0.997849
2011-09-26T15:13:45.723650,1370,-0.769787,-0.902550,0.118196,-0.035282,-0.000020,0.997660
2011-09-26T15:13:45.733650,1380,-0.705755,-0.949780,0.169835,-0.033241,0.003091,0.997471
2011-09-26T15:13:45.743650,1390,-0.641723,-0.997010,0.221474,-0.031200,0.006202,0.997282
2011-09-26T15:13:45.753650,1400,-0.577691,-1.044239,0.273113,-0.029159,0.009314,0.997093
2011-09-26T15:13:45.763650,1410,-0.513659,-1.091469,0.324752,-0.027118,0.012425,0.996904
2011-09-26T15:13:45.773650,1420,-0.449627,-1.138699,0.376391,-0.025076,0.015536,0.996714
2011-09-26T15:13:45.783650,1430,-0.385595,-1.185928,0.428030,-0.023035,0.018648,0.996525
2011-09-26T15:13:45.793650,1440,-0.321562,-1.233158,0.479669,-0.020994,0.021759,0.996336
2011-09-26T15:13:45.803650,1450,-0.323192,-1.281260,0.490921,-0.018500,0.024357,0.996924
2011-09-26T15:13:45.813650,1460,-0.324914,-1.329363,0.502118,-0.016005,0.026955,0.997512
2011-09-26T15:13:45.823650,1470,-0.326635,-1.377466,0.513314,-0.013510,0.029552,0.998101
2011-09-26T15:13:45.833650,1480,-0.328357,-1.425569,0.524510,-0.011015,0.032149,0.998690
2011-09-26T15:13:45.843650,1490,-0.330078,-1.473672,0.535707,-0.008520,0.034747,0.999278
2011-09-26T15:13:45.853650,1500,-0.331800,-1.521775,0.546903,-0.006025,0.037344,0.999867
2011-09-26T15:13:45.863650,1510,-0.333521,-1.569878,0.558099,-0.003530,0.039942,1.000455
2011-09-26T15:13:45.873650,1520,-0.335242,-1.617981,0.569295,-0.001035,0.042539,1.001044
2011-09-26T15:13:45.883650,1530,-0.336964,-1.666084,0.580492,0.001460,0.045137,1.001633
2011-09-26T15:13:45.893650,1540,-0.338685,-1.714187,0.591688,0.003956,0.047734,1.002221
2011-09-26T15:13:45.903650,1550,-0.340778,-1.761954,0.602869,0.006445,0.050316,1.002818
2011-09-26T15:13:45.913650,1560,-0.462173,-1.701637,0.609180,0.007158,0.047991,1.006170
2011-09-26T15:13:45.923650,1570,-0.583568,-1.641321,0.615492,0.007870,0.045665,1.009522
2011-09-26T15:13:45.933650,1580,-0.704963,-1.581005,0.621803,0.008583,0.043339,1.012874
2011-09-26T15:13:45.943650,1590,-0.826358,-1.520689,0.628115,0.009296,0.041013,1.016226
2011-09-26T15:13:45.953650,1600,-0.947752,-1.460372,0.634426,0.010008,0.038688,1.019578
2011-09-26T15:13:45.963650,1610,-1.069147,-1.400056,0.640737,0.010721,0.036362,1.022930
2011-09-26T15:13:45.973650,1620,-1.190542,-1.339740,0.647049,0.011434,0.034036,1.026282
2011-09-26T15:13:45.983650,1630,-1.311937,-1.279423,0.653360,0.012146,0.031711,1.029634
2011-09-26T15:13:45.993650,1640,-1.433332,-1.219107,0.659672,0.012859,0.029385,1.032986
2011-09-26T15:13:46.003650,1650,-1.554727,-1.158791,0.665983,0.013572,0.027059,1.036338
2011-09-26T15:13:46.013650,1660,-1.597663,-1.037266,0.657297,0.012251,0.028557,1.037744
2011-09-26T15:13:46.023650,1670,-1.640450,-0.915626,0.648583,0.010926,0.030063,1.039146
2011-09-26T15:13:46.033650,1680,-1.683238,-0.793986,0.639869,0.009601,0.031569,1.040548
2011-09-26T15:13:46.043650,1690,-1.726025,-0.672346,0.631155,0.008276,0.033074,1.041950
2011-09-26T15:13:46.053650,1700,-1.768813,-0.550706,0.622440,0.006951,0.034580,1.043352
2011-09-26T15:13:46.063650,1710,-1.811601,-0.429066,0.613726,0.005626,0.036086,1.044754
2011-09-26T15:13:46.073650,1720,-1.854388,-0.307426,0.605012,0.004301,0.037591,1.046156
2011-09-26T15:13:46.083650,1730,-1.897176,-0.185786,0.596298,0.002976,0.039097,1.047558
2011-09-26T15:13:46.093650,1740,-1.939963,-0.064146,0.587584,0.001651,0.040602,1.048960
2011-09-26T15:13:46.103650,1750,-1.982751,0.057494,0.578870,0.000326,0.042108,1.050362
2011-09-26T15:13:46.113650,1760,-2.025539,0.179134,0.570155,-0.000999,0.043614,1.051764
2011-09-26T15:13:46.123650,1770,-1.860761,0.283326,0.550842,-0.000358,0.038078,1.046533
2011-09-26T15:13:46.133650,1780,-1.692311,0.387210,0.531341,0.000317,0.032417,1.041185
2011-09-26T15:13:46.143650,1790,-1.523861,0.491093,0.511841,0.000992,0.026757,1.035837
2011-09-26T15:13:46.153650,1800,-1.355412,0.594977,0.492340,0.001667,0.021096,1.030490
2011-09-26T15:13:46.163650,1810,-1.186962,0.698860,0.472839,0.002342,0.015436,1.025142
2011-09-26T15:13:46.173650,1820,-1.018512,0.802744,0.453338,0.003017,0.009776,1.019794
2011-09-26T15:13:46.183650,1830,-0.850062,0.906627,0.433837,0.003692,0.004115,1.014446
2011-09-26T15:13:46.193650,1840,-0.681613,1.010511,0.414337,0.004367,-0.001545,1.009098
2011-09-26T15:13:46.203650,1850,-0.513163,1.114394,0.394836,0.005042,-0.007206,1.003750
2011-09-26T15:13:46.213650,1860,-0.344713,1.218278,0.375335,0.005717,-0.012866,0.998402
2011-09-26T15:13:46.223650,1870,-0.229768,1.243013,0.392720,0.007377,-0.011837,0.999027
2011-09-26T15:13:46.233650,1880,-0.115154,1.267255,0.410334,0.009043,-0.010767,0.999689
2011-09-26T15:13:46.243650,1890,-0.000541,1.291498,0.427948,0.010708,-0.009697,1.000350
2011-09-26T15:13:46.253650,1900,0.114072,1.315741,0.445563,0.012374,-0.008627,1.001012
2011-09-26T15:13:46.263650,1910,0.228685,1.339984,0.463177,0.014040,-0.007557,1.001674
2011-09-26T15:13:46.273650,1920,0.343298,1.364227,0.480791,0.015705,-0.006487,1.002335
2011-09-26T15:13:46.283650,1930,0.457911,1.388470,0.498405,0.017371,-0.005417,1.002997
2011-09-26T15:13:46.293650,1940,0.572524,1.412713,0.516020,0.019037,-0.004347,1.003658
2011-09-26T15:13:46.303650,1950,0.687137,1.436955,0.533634,0.020702,-0.003277,1.004320
2011-09-26T15:13:46.313650,1960,0.801750,1.461198,0.551248,0.022368,-0.002207,1.004982
2011-09-26T15:13:46.323650,1970,0.785042,1.539446,0.518683,0.019903,0.000543,1.000858
2011-09-26T15:13:46.333650,1980,0.767823,1.617904,0.485923,0.017422,0.003298,0.996716
2011-09-26T15:13:46.343650,1990,0.750604,1.696362,0.453163,0.014941,0.006054,0.992574
2011-09-26T15:13:46.353650,2000,0.733384,1.774820,0.420403,0.012459,0.008810,0.988432
2011-09-26T15:13:46.363650,2010,0.716165,1.853278,0.387643,0.009978,0.011566,0.984290
2011-09-26T15:13:46.373650,2020,0.698945,1.931736,0.354883,0.007497,0.014321,0.980148
2011-09-26T15:13:46.383650,2030,0.681726,2.010194,0.322122,0.005016,0.017077,0.976006
2011-09-26T15:13:46.393650,2040,0.664507,2.088652,0.289362,0.002534,0.019833,0.971864
2011-09-26T15:13:46.403650,2050,0.647287,2.167110,0.256602,0.000053,0.022589,0.967722
2011-09-26T15:13:46.413650,2060,0.630068,2.245568,0.223842,-0.002428,0.025344,0.963580
2011-09-26T15:13:46.423650,2070,0.612848,2.324026,0.191082,-0.004909,0.028100,0.959438
2011-09-26T15:13:46.433650,2080,0.588973,2.227458,0.147594,-0.006704,0.025256,0.964907
2011-09-26T15:13:46.443650,2090,0.565060,2.129887,0.104045,-0.008494,0.022381,0.970431
2011-09-26T15:13:46.453650,2100,0.541146,2.032317,0.060496,-0.010285,0.019505,0.975955
2011-09-26T15:13:46.463650,2110,0.517233,1.934747,0.016946,-0.012075,0.016629,0.981478
2011-09-26T15:13:46.473650,2120,0.493319,1.837177,-0.026603,-0.013866,0.013753,0.987002
2011-09-26T15:13:46.483650,2130,0.469406,1.739606,-0.070152,-0.015656,0.010878,0.992526
2011-09-26T15:13:46.493650,2140,0.445492,1.642036,-0.113701,-0.017447,0.008002,0.998050
2011-09-26T15:13:46.503650,2150,0.421579,1.544466,-0.157251,-0.019238,0.005126,1.003574
2011-09-26T15:13:46.513650,2160,0.397665,1.446896,-0.200800,-0.021028,0.002251,1.009098
2011-09-26T15:13:46.523650,2170,0.373752,1.349325,-0.244349,-0.022819,-0.000625,1.014621
2011-09-26T15:13:46.533650,2180,0.432201,1.184451,-0.216348,-0.025976,0.000296,1.000405
2011-09-26T15:13:46.543650,2190,0.491173,1.019150,-0.187893,-0.029143,0.001241,0.986064
2011-09-26T15:13:46.553650,2200,0.550145,0.853849,-0.159438,-0.032310,0.002187,0.971723
2011-09-26T15:13:46.563650,2210,0.609117,0.688548,-0.130984,-0.035476,0.003132,0.957382
2011-09-26T15:13:46.573650,2220,0.668088,0.523247,-0.102529,-0.038643,0.004077,0.943041
2011-09-26T15:13:46.583650,2230,0.727060,0.357946,-0.074074,-0.041809,0.005022,0.928700
2011-09-26T15:13:46.593650,2240,0.786032,0.192644,-0.045619,-0.044976,0.005968,0.914359
2011-09-26T15:13:46.603650,2250,0.845004,0.027343,-0.017164,-0.048142,0.006913,0.900018
2011-09-26T15:13:46.613650,2260,0.903975,-0.137958,0.011290,-0.051309,0.007858,0.885676
2011-09-26T15:13:46.623650,2270,0.962947,-0.303259,0.039745,-0.054475,0.008803,0.871335
2011-09-26T15:13:46.633650,2280,1.021919,-0.468560,0.068200,-0.057642,0.009748,0.856994
2011-09-26T15:13:46.643650,2290,0.958387,-0.726537,0.079010,-0.054089,0.009746,0.860374
2011-09-26T15:13:46.653650,2300,0.891817,-0.986811,0.089382,-0.050370,0.009721,0.864193
2011-09-26T15:13:46.663650,2310,0.825247,-1.247086,0.099754,-0.046651,0.009695,0.868011
2011-09-26T15:13:46.673650,2320,0.758677,-1.507361,0.110127,-0.042932,0.009670,0.871830
2011-09-26T15:13:46.683650,2330,0.692108,-1.767635,0.120499,-0.039212,0.009644,0.875649
2011-09-26T15:13:46.693650,2340,0.625538,-2.027910,0.130871,-0.035493,0.009619,0.879468
2011-09-26T15:13:46.703650,2350,0.558968,-2.288185,0.141243,-0.031774,0.009593,0.883287
2011-09-26T15:13:46.713650,2360,0.492398,-2.548459,0.151616,-0.028055,0.009567,0.887105
2011-09-26T15:13:46.723650,2370,0.425829,-2.808734,0.161988,-0.024336,0.009542,0.890924
2011-09-26T15:13:46.733650,2380,0.359259,-3.069009,0.172360,-0.020616,0.009516,0.894743
2011-09-26T15:13:46.743650,2390,0.419588,-3.097249,0.185668,-0.022944,0.008315,0.909052
2011-09-26T15:13:46.753650,2400,0.480246,-3.124888,0.198984,-0.025287,0.007111,0.923388
2011-09-26T15:13:46.763650,2410,0.540904,-3.152527,0.212300,-0.027630,0.005907,0.937724
2011-09-26T15:13:46.773650,2420,0.601562,-3.180165,0.225616,-0.029973,0.004703,0.952060
2011-09-26T15:13:46.783650,2430,0.662220,-3.207804,0.238932,-0.032316,0.003499,0.966396
2011-09-26T15:13:46.793650,2440,0.722878,-3.235443,0.252248,-0.034659,0.002295,0.980731
2011-09-26T15:13:46.803650,2450,0.783536,-3.263082,0.265563,-0.037001,0.001090,0.995067
2011-09-26T15:13:46.813650,2460,0.844194,-3.290720,0.278879,-0.039344,-0.000114,1.009403
2011-09-26T15:13:46.823650,2470,0.904852,-3.318359,0.292195,-0.041687,-0.001318,1.023739
2011-09-26T15:13:46.833650,2480,0.965511,-3.345998,0.305511,-0.044030,-0.002522,1.038075
2011-09-26T15:13:46.843650,2490,0.999883,-3.216637,0.306644,-0.040102,-0.002355,1.046974
2011-09-26T15:13:46.853650,2500,1.034167,-3.086742,0.307735,-0.036152,-0.002183,1.055855
2011-09-26T15:13:46.863650,2510,1.068450,-2.956846,0.308826,-0.032203,-0.002011,1.064735
2011-09-26T15:13:46.873650,2520,1.102733,-2.826951,0.309917,-0.028253,-0.001838,1.073615
2011-09-26T15:13:46.883650,2530,1.137017,-2.697056,0.311008,-0.024304,-0.001666,1.082496
2011-09-26T15:13:46.893650,2540,1.171300,-2.567160,0.312099,-0.020354,-0.001494,1.091376
2011-09-26T15:13:46.903650,2550,1.205584,-2.437265,0.313190,-0.016404,-0.001322,1.100257
2011-09-26T15:13:46.913650,2560,1.239867,-2.307369,0.314281,-0.012455,-0.001150,1.109137
2011-09-26T15:13:46.923650,2570,1.274150,-2.177474,0.315372,-0.008505,-0.000978,1.118017
2011-09-26T15:13:46.933650,2580,1.308434,-2.047579,0.316463,-0.004555,-0.000806,1.126898
2011-09-26T15:13:46.943650,2590,1.351774,-1.706536,0.301066,-0.000698,0.001294,1.123169
2011-09-26T15:13:46.953650,2600,1.395163,-1.364352,0.285579,0.003158,0.003404,1.119372
2011-09-26T15:13:46.963650,2610,1.438552,-1.022169,0.270093,0.007015,0.005514,1.115576
2011-09-26T15:13:46.973650,2620,1.481941,-0.679985,0.254607,0.010871,0.007624,1.111779
2011-09-26T15:13:46.983650,2630,1.525330,-0.337802,0.239120,0.014728,0.009734,1.107982
2011-09-26T15:13:46.993650,2640,1.568719,0.004382,0.223634,0.018585,0.011845,1.104185
2011-09-26T15:13:47.003650,2650,1.612108,0.346565,0.208148,0.022441,0.013955,1.100388
2011-09-26T15:13:47.013650,2660,1.655497,0.688748,0.192662,0.026298,0.016065,1.096592
2011-09-26T15:13:47.023650,2670,1.698886,1.030932,0.177175,0.030154,0.018175,1.092795
2011-09-26T15:13:47.033650,2680,1.742275,1.373115,0.161689,0.034011,0.020285,1.088998
2011-09-26T15:13:47.043650,2690,1.785665,1.715299,0.146203,0.037868,0.022395,1.085201
2011-09-26T15:13:47.053650,2700,1.735616,1.839888,0.140366,0.036588,0.024087,1.075232
2011-09-26T15:13:47.063650,2710,1.685240,1.963715,0.134564,0.035290,0.025777,1.065242
2011-09-26T15:13:47.073650,2720,1.634864,2.087542,0.128762,0.033993,0.027467,1.055251
2011-09-26T15:13:47.083650,2730,1.584488,2.211369,0.122959,0.032695,0.029156,1.045261
2011-09-26T15:13:47.093650,2740,1.534112,2.335196,0.117157,0.031398,0.030846,1.035270
2011-09-26T15:13:47.103650,2750,1.483736,2.459022,0.111355,0.030100,0.032536,1.025280
2011-09-26T15:13:47.113650,2760,1.433360,2.582849,0.105552,0.028802,0.034226,1.015289
2011-09-26T15:13:47.123650,2770,1.382984,2.706676,0.099750,0.027505,0.035916,1.005298
2011-09-26T15:13:47.133650,2780,1.332608,2.830503,0.093948,0.026207,0.037606,0.995308
2011-09-26T15:13:47.143650,2790,1.282231,2.954330,0.088145,0.024910,0.039296,0.985317
2011-09-26T15:13:47.153650,2800,1.165769,2.800493,0.080073,0.021204,0.043350,0.977910
2011-09-26T15:13:47.163650,2810,1.047724,2.640005,0.071946,0.017440,0.047461,0.970564
2011-09-26T15:13:47.173650,2820,0.929678,2.479518,0.063820,0.013677,0.051571,0.963218
2011-09-26T15:13:47.183650,2830,0.811633,2.319031,0.055693,0.009913,0.055682,0.955872
2011-09-26T15:13:47.193650,2840,0.693588,2.158544,0.047566,0.006150,0.059793,0.948526
2011-09-26T15:13:47.203650,2850,0.575543,1.998057,0.039439,0.002386,0.063904,0.941180
2011-09-26T15:13:47.213650,2860,0.457497,1.837570,0.031312,-0.001378,0.068014,0.933834
2011-09-26T15:13:47.223650,2870,0.339452,1.677082,0.023186,-0.005141,0.072125,0.926489
2011-09-26T15:13:47.233650,2880,0.221407,1.516595,0.015059,-0.008905,0.076236,0.919143
2011-09-26T15:13:47.243650,2890,0.103362,1.356108,0.006932,-0.012668,0.080347,0.911797
2011-09-26T15:13:47.253650,2900,-0.136631,1.157766,0.023095,-0.011680,0.077854,0.916203
2011-09-26T15:13:47.263650,2910,-0.376988,0.959311,0.039331,-0.010677,0.075341,0.920644
2011-09-26T15:13:47.273650,2920,-0.617345,0.760856,0.055566,-0.009674,0.072828,0.925085
2011-09-26T15:13:47.283650,2930,-0.857702,0.562401,0.071802,-0.008671,0.070315,0.929526
2011-09-26T15:13:47.293650,2940,-1.098058,0.363946,0.088037,-0.007669,0.067802,0.933967
2011-09-26T15:13:47.303650,2950,-1.338415,0.165491,0.104273,-0.006666,0.065290,0.938409
2011-09-26T15:13:47.313650,2960,-1.578772,-0.032964,0.120509,-0.005663,0.062777,0.942850
2011-09-26T15:13:47.323650,2970,-1.819129,-0.231419,0.136744,-0.004660,0.060264,0.947291
2011-09-26T15:13:47.333650,2980,-2.059486,-0.429874,0.152980,-0.003657,0.057751,0.951732
2011-09-26T15:13:47.343650,2990,-2.299843,-0.628329,0.169215,-0.002655,0.055239,0.956173
2011-09-26T15:13:47.353650,3000,-2.540200,-0.826785,0.185451,-0.001652,0.052726,0.960614
2011-09-26T15:13:47.363650,3010,-2.449194,-0.909028,0.166178,-0.000668,0.045801,0.959530
2011-09-26T15:13:47.373650,3020,-2.356031,-0.990515,0.146674,0.000315,0.038847,0.958410
2011-09-26T15:13:47.383650,3030,-2.262867,-1.072002,0.127170,0.001298,0.031893,0.957290
2011-09-26T15:13:47.393650,3040,-2.169704,-1.153489,0.107665,0.002281,0.024939,0.956170
2011-09-26T15:13:47.403650,3050,-2.076541,-1.234976,0.088161,0.003265,0.017985,0.955051
2011-09-26T15:13:47.413650,3060,-1.983377,-1.316463,0.068657,0.004248,0.011031,0.953931
2011-09-26T15:13:47.423650,3070,-1.890214,-1.397950,0.049153,0.005231,0.004078,0.952811
2011-09-26T15:13:47.433650,3080,-1.797051,-1.479437,0.029648,0.006215,-0.002876,0.951691
2011-09-26T15:13:47.443650,3090,-1.703887,-1.560924,0.010144,0.007198,-0.009830,0.950571
2011-09-26T15:13:47.453650,3100,-1.610724,-1.642411,-0.009360,0.008181,-0.016784,0.949451
2011-09-26T15:13:47.463650,3110,-1.398381,-1.601852,0.007524,0.008401,-0.014077,0.959553
2011-09-26T15:13:47.473650,3120,-1.185235,-1.560471,0.024653,0.008616,-0.011305,0.969731
2011-09-26T15:13:47.483650,3130,-0.972089,-1.519089,0.041781,0.008830,-0.008533,0.979909
2011-09-26T15:13:47.493650,3140,-0.758943,-1.477708,0.058910,0.009045,-0.005762,0.990086
2011-09-26T15:13:47.503650,3150,-0.545798,-1.436327,0.076039,0.009260,-0.002990,1.000264
2011-09-26T15:13:47.513650,3160,-0.332652,-1.394945,0.093168,0.009475,-0.000218,1.010442
2011-09-26T15:13:47.523650,3170,-0.119506,-1.353564,0.110297,0.009689,0.002554,1.020620
2011-09-26T15:13:47.533650,3180,0.093640,-1.312183,0.127425,0.009904,0.005326,1.030798
2011-09-26T15:13:47.543650,3190,0.306786,-1.270801,0.144554,0.010119,0.008098,1.040975
2011-09-26T15:13:47.553650,3200,0.519932,-1.229420,0.161683,0.010333,0.010870,1.051153
2011-09-26T15:13:47.563650,3210,0.733077,-1.188039,0.178812,0.010548,0.013642,1.061331
2011-09-26T15:13:47.573650,3220,0.696283,-0.942990,0.142120,0.011872,0.016575,1.059829
2011-09-26T15:13:47.583650,3230,0.657960,-0.696696,0.105099,0.013203,0.019509,1.058255
2011-09-26T15:13:47.593650,3240,0.619637,-0.450402,0.068078,0.014534,0.022444,1.056681
2011-09-26T15:13:47.603650,3250,0.581314,-0.204107,0.031057,0.015866,0.025378,1.055107
2011-09-26T15:13:47.613650,3260,0.542991,0.042187,-0.005964,0.017197,0.028312,1.053533
2011-09-26T15:13:47.623650,3270,0.504668,0.288481,-0.042985,0.018528,0.031247,1.051959
2011-09-26T15:13:47.633650,3280,0.466345,0.534775,-0.080006,0.019859,0.034181,1.050385
2011-09-26T15:13:47.643650,3290,0.428022,0.781069,-0.117027,0.021190,0.037115,1.048811
2011-09-26T15:13:47.653650,3300,0.389699,1.027364,-0.154048,0.022521,0.040050,1.047237
2011-09-26T15:13:47.663650,3310,0.351376,1.273658,-0.191070,0.023852,0.042984,1.045663
2011-09-26T15:13:47.673650,3320,0.199508,1.417497,-0.191378,0.019656,0.045236,1.037724
2011-09-26T15:13:47.683650,3330,0.046554,1.560356,-0.191335,0.015407,0.047482,1.029724
2011-09-26T15:13:47.693650,3340,-0.106400,1.703215,-0.191292,0.011159,0.049728,1.021724
2011-09-26T15:13:47.703650,3350,-0.259353,1.846074,-0.191249,0.006910,0.051974,1.013724
2011-09-26T15:13:47.713650,3360,-0.412307,1.988933,-0.191206,0.002661,0.054220,1.005724
2011-09-26T15:13:47.723650,3370,-0.565261,2.131792,-0.191163,-0.001588,0.056465,0.997724
2011-09-26T15:13:47.733650,3380,-0.718215,2.274651,-0.191120,-0.005837,0.058711,0.989724
2011-09-26T15:13:47.743650,3390,-0.871169,2.417510,-0.191077,-0.010085,0.060957,0.981724
2011-09-26T15:13:47.753650,3400,-1.024123,2.560369,-0.191034,-0.014334,0.063203,0.973724
2011-09-26T15:13:47.763650,3410,-1.177077,2.703228,-0.190991,-0.018583,0.065449,0.965724
2011-09-26T15:13:47.773650,3420,-1.149656,2.614678,-0.188745,-0.019465,0.060311,0.965455
2011-09-26T15:13:47.783650,3430,-1.121020,2.524569,-0.186485,-0.020325,0.055123,0.965239
2011-09-26T15:13:47.793650,3440,-1.092385,2.434461,-0.184224,-0.021184,0.049935,0.965022
2011-09-26T15:13:47.803650,3450,-1.063750,2.344353,-0.181964,-0.022044,0.044748,0.964805
2011-09-26T15:13:47.813650,3460,-1.035114,2.254244,-0.179703,-0.022903,0.039560,0.964589
2011-09-26T15:13:47.823650,3470,-1.006479,2.164136,-0.177442,-0.023763,0.034372,0.964372
2011-09-26T15:13:47.833650,3480,-0.977844,2.074028,-0.175182,-0.024623,0.029184,0.964156
2011-09-26T15:13:47.843650,3490,-0.949208,1.983919,-0.172921,-0.025482,0.023997,0.963939
2011-09-26T15:13:47.853650,3500,-0.920573,1.893811,-0.170661,-0.026342,0.018809,0.963722
2011-09-26T15:13:47.863650,3510,-0.891937,1.803703,-0.168400,-0.027201,0.013621,0.963506
2011-09-26T15:13:47.873650,3520,-0.863302,1.713594,-0.166140,-0.028061,0.008434,0.963289
2011-09-26T15:13:47.883650,3530,-0.805112,1.511884,-0.132925,-0.027728,0.006233,0.964534
2011-09-26T15:13:47.893650,3540,-0.746557,1.308798,-0.099329,-0.027381,0.004068,0.965796
2011-09-26T15:13:47.903650,3550,-0.688002,1.105711,-0.065733,-0.027034,0.001904,0.967058
2011-09-26T15:13:47.913650,3560,-0.629448,0.902625,-0.032136,-0.026687,-0.000260,0.968321
2011-09-26T15:13:47.923650,3570,-0.570893,0.699538,0.001460,-0.026339,-0.002424,0.969583
2011-09-26T15:13:47.933650,3580,-0.512338,0.496451,0.035056,-0.025992,-0.004588,0.970845
2011-09-26T15:13:47.943650,3590,-0.453784,0.293365,0.068652,-0.025645,-0.006752,0.972107
2011-09-26T15:13:47.953650,3600,-0.395229,0.090278,0.102249,-0.025298,-0.008917,0.973370
2011-09-26T15:13:47.963650,3610,-0.336674,-0.112808,0.135845,-0.024950,-0.011081,0.974632
2011-09-26T15:13:47.973650,3620,-0.278120,-0.315895,0.169441,-0.024603,-0.013245,0.975894
2011-09-26T15:13:47.983650,3630,-0.164691,-0.333189,0.162313,-0.025626,-0.009561,0.977746
2011-09-26T15:13:47.993650,3640,-0.050585,-0.348191,0.154683,-0.026665,-0.005805,0.979604
2011-09-26T15:13:48.003650,3650,0.063520,-0.363194,0.147053,-0.027705,-0.002048,0.981463
2011-09-26T15:13:48.013650,3660,0.177626,-0.378197,0.139423,-0.028744,0.001708,0.983322
2011-09-26T15:13:48.023650,3670,0.291731,-0.393199,0.131793,-0.029784,0.005464,0.985180
2011-09-26T15:13:48.033650,3680,0.405837,-0.408202,0.124163,-0.030823,0.009220,0.987039
2011-09-26T15:13:48.043650,3690,0.519942,-0.423204,0.116533,-0.031863,0.012977,0.988898
2011-09-26T15:13:48.053650,3700,0.634048,-0.438207,0.108903,-0.032902,0.016733,0.990756
2011-09-26T15:13:48.063650,3710,0.748153,-0.453210,0.101273,-0.033942,0.020489,0.992615
2011-09-26T15:13:48.073650,3720,0.862259,-0.468212,0.093643,-0.034981,0.024245,0.994474
2011-09-26T15:13:48.083650,3730,0.790768,-0.519587,0.082254,-0.034076,0.024856,0.995814
2011-09-26T15:13:48.093650,3740,0.717614,-0.571288,0.070833,-0.033154,0.025438,0.997150
2011-09-26T15:13:48.103650,3750,0.644460,-0.622990,0.059411,-0.032231,0.026021,0.998486
2011-09-26T15:13:48.113650,3760,0.571305,-0.674691,0.047989,-0.031309,0.026603,0.999822
2011-09-26T15:13:48.123650,3770,0.498151,-0.726392,0.036567,-0.030387,0.027186,1.001158
2011-09-26T15:13:48.133650,3780,0.424996,-0.778093,0.025145,-0.029464,0.027768,1.002494
2011-09-26T15:13:48.143650,3790,0.351842,-0.829794,0.013723,-0.028542,0.028350,1.003831
2011-09-26T15:13:48.153650,3800,0.278688,-0.881495,0.002302,-0.027619,0.028933,1.005167
2011-09-26T15:13:48.163650,3810,0.205533,-0.933196,-0.009120,-0.026697,0.029515,1.006503
2011-09-26T15:13:48.173650,3820,0.132379,-0.984897,-0.020542,-0.025774,0.030098,1.007839
2011-09-26T15:13:48.183650,3830,0.059225,-1.036598,-0.031964,-0.024852,0.030680,1.009175
2011-09-26T15:13:48.193650,3840,0.028720,-0.997101,-0.022513,-0.025168,0.030213,1.009359
2011-09-26T15:13:48.203650,3850,-0.001367,-0.956712,-0.012857,-0.025497,0.029737,1.009532
2011-09-26T15:13:48.213650,3860,-0.031454,-0.916322,-0.003202,-0.025825,0.029260,1.009705
2011-09-26T15:13:48.223650,3870,-0.061542,-0.875932,0.006454,-0.026154,0.028783,1.009879
2011-09-26T15:13:48.233650,3880,-0.091629,-0.835543,0.016109,-0.026482,0.028307,1.010052
2011-09-26T15:13:48.243650,3890,-0.121716,-0.795153,0.025765,-0.026811,0.027830,1.010225
2011-09-26T15:13:48.253650,3900,-0.151803,-0.754763,0.035420,-0.027139,0.027353,1.010398
2011-09-26T15:13:48.263650,3910,-0.181890,-0.714374,0.045076,-0.027468,0.026877,1.010571
2011-09-26T15:13:48.273650,3920,-0.211977,-0.673984,0.054731,-0.027796,0.026400,1.010744
2011-09-26T15:13:48.283650,3930,-0.242064,-0.633594,0.064387,-0.028125,0.025923,1.010918
2011-09-26T15:13:48.293650,3940,-0.322586,-0.560545,0.053236,-0.027808,0.027342,1.010918
2011-09-26T15:13:48.303650,3950,-0.403601,-0.487175,0.041881,-0.027484,0.028779,1.010917
2011-09-26T15:13:48.313650,3960,-0.484615,-0.413806,0.030525,-0.027161,0.030216,1.010917
2011-09-26T15:13:48.323650,3970,-0.565630,-0.340436,0.019170,-0.026838,0.031653,1.010916
2011-09-26T15:13:48.333650,3980,-0.646645,-0.267067,0.007815,-0.026514,0.033089,1.010915
2011-09-26T15:13:48.343650,3990,-0.727660,-0.193697,-0.003540,-0.026191,0.034526,1.010914
2011-09-26T15:13:48.353650,4000,-0.808675,-0.120328,-0.014895,-0.025867,0.035963,1.010913
2011-09-26T15:13:48.363650,4010,-0.889690,-0.046958,-0.026250,-0.025544,0.037400,1.010912
2011-09-26T15:13:48.373650,4020,-0.970705,0.026411,-0.037605,-0.025221,0.038837,1.010911
2011-09-26T15:13:48.383650,4030,-1.051720,0.099781,-0.048960,-0.024897,0.040274,1.010910
2011-09-26T15:13:48.393650,4040,-1.067317,0.106154,-0.106498,-0.025226,0.037374,1.010761
2011-09-26T15:13:48.403650,4050,-1.082315,0.111913,-0.164460,-0.025561,0.034434,1.010610
2011-09-26T15:13:48.413650,4060,-1.097312,0.117672,-0.222422,-0.025896,0.031494,1.010459
2011-09-26T15:13:48.423650,4070,-1.112310,0.123431,-0.280384,-0.026232,0.028554,1.010309
2011-09-26T15:13:48.433650,4080,-1.127308,0.129190,-0.338346,-0.026567,0.025613,1.010158
2011-09-26T15:13:48.443650,4090,-1.142306,0.134949,-0.396307,-0.026902,0.022673,1.010007
2011-09-26T15:13:48.453650,4100,-1.157303,0.140708,-0.454269,-0.027237,0.019733,1.009856
2011-09-26T15:13:48.463650,4110,-1.172301,0.146467,-0.512231,-0.027572,0.016793,1.009706
2011-09-26T15:13:48.473650,4120,-1.187299,0.152226,-0.570193,-0.027907,0.013853,1.009555
2011-09-26T15:13:48.483650,4130,-1.202297,0.157985,-0.628155,-0.028242,0.010913,1.009404
2011-09-26T15:13:48.493650,4140,-1.217294,0.163744,-0.686117,-0.028577,0.007973,1.009253
2011-09-26T15:13:48.503650,4150,-1.153665,0.129946,-0.684824,-0.029561,0.003678,1.009737
2011-09-26T15:13:48.513650,4160,-1.089273,0.095764,-0.682957,-0.030551,-0.000630,1.010227
2011-09-26T15:13:48.523650,4170,-1.024882,0.061583,-0.681090,-0.031541,-0.004938,1.010717
2011-09-26T15:13:48.533650,4180,-0.960490,0.027402,-0.679223,-0.032531,-0.009247,1.011207
2011-09-26T15:13:48.543650,4190,-0.896099,-0.006780,-0.677356,-0.033521,-0.013555,1.011698
2011-09-26T15:13:48.553650,4200,-0.831708,-0.040961,-0.675489,-0.034511,-0.017863,1.012188
2011-09-26T15:13:48.563650,4210,-0.767316,-0.075142,-0.673622,-0.035501,-0.022172,1.012678
2011-09-26T15:13:48.573650,4220,-0.702925,-0.109324,-0.671755,-0.036491,-0.026480,1.013168
2011-09-26T15:13:48.583650,4230,-0.638533,-0.143505,-0.669888,-0.037481,-0.030788,1.013658
2011-09-26T15:13:48.593650,4240,-0.574142,-0.177686,-0.668021,-0.038471,-0.035097,1.014148
2011-09-26T15:13:48.603650,4250,-0.453813,-0.209896,-0.683570,-0.038983,-0.031495,1.011338
2011-09-26T15:13:48.613650,4260,-0.332938,-0.242087,-0.699289,-0.039490,-0.027817,1.008496
2011-09-26T15:13:48.623650,4270,-0.212063,-0.274278,-0.715009,-0.039997,-0.024138,1.005654
2011-09-26T15:13:48.633650,4280,-0.091187,-0.306469,-0.730728,-0.040504,-0.020459,1.002812
2011-09-26T15:13:48.643650,4290,0.029688,-0.338660,-0.746448,-0.041011,-0.016780,0.999970
2011-09-26T15:13:48.653650,4300,0.150563,-0.370851,-0.762167,-0.041519,-0.013102,0.997128
2011-09-26T15:13:48.663650,4310,0.271438,-0.403042,-0.777887,-0.042026,-0.009423,0.994286
2011-09-26T15:13:48.673650,4320,0.392313,-0.435233,-0.793606,-0.042533,-0.005744,0.991444
2011-09-26T15:13:48.683650,4330,0.513188,-0.467424,-0.809325,-0.043040,-0.002065,0.988602
2011-09-26T15:13:48.693650,4340,0.634063,-0.499615,-0.825045,-0.043547,0.001613,0.985760
2011-09-26T15:13:48.703650,4350,0.754938,-0.531806,-0.840764,-0.044054,0.005292,0.982918
2011-09-26T15:13:48.713650,4360,0.663496,-0.587541,-0.848672,-0.042612,0.006554,0.983312
2011-09-26T15:13:48.723650,4370,0.568647,-0.643654,-0.856454,-0.041138,0.007777,0.983757
2011-09-26T15:13:48.733650,4380,0.473797,-0.699767,-0.864237,-0.039664,0.009001,0.984203
2011-09-26T15:13:48.743650,4390,0.378948,-0.755881,-0.872019,-0.038190,0.010224,0.984648
2011-09-26T15:13:48.753650,4400,0.284098,-0.811994,-0.879802,-0.036716,0.011447,0.985094
2011-09-26T15:13:48.763650,4410,0.189248,-0.868107,-0.887584,-0.035242,0.012671,0.985540
2011-09-26T15:13:48.773650,4420,0.094399,-0.924220,-0.895366,-0.033767,0.013894,0.985985
2011-09-26T15:13:48.783650,4430,-0.000451,-0.980333,-0.903149,-0.032293,0.015117,0.986431
2011-09-26T15:13:48.793650,4440,-0.095300,-1.036447,-0.910931,-0.030819,0.016340,0.986877
2011-09-26T15:13:48.803650,4450,-0.190150,-1.092560,-0.918714,-0.029345,0.017564,0.987322
2011-09-26T15:13:48.813650,4460,-0.202793,-1.058800,-0.909993,-0.030365,0.015009,0.990759
2011-09-26T15:13:48.823650,4470,-0.214564,-1.024087,-0.901097,-0.031411,0.012413,0.994228
2011-09-26T15:13:48.833650,4480,-0.226334,-0.989374,-0.892202,-0.032457,0.009818,0.997697
2011-09-26T15:13:48.843650,4490,-0.238105,-0.954661,-0.883306,-0.033503,0.007223,1.001166
2011-09-26T15:13:48.853650,4500,-0.249876,-0.919947,-0.874410,-0.034550,0.004627,1.004635
2011-09-26T15:13:48.863650,4510,-0.261647,-0.885234,-0.865515,-0.035596,0.002032,1.008104
2011-09-26T15:13:48.873650,4520,-0.273417,-0.850521,-0.856619,-0.036642,-0.000563,1.011573
2011-09-26T15:13:48.883650,4530,-0.285188,-0.815808,-0.847723,-0.037688,-0.003159,1.015042
2011-09-26T15:13:48.893650,4540,-0.296959,-0.781095,-0.838828,-0.038734,-0.005754,1.018511
2011-09-26T15:13:48.903650,4550,-0.308730,-0.746382,-0.829932,-0.039780,-0.008349,1.021980
2011-09-26T15:13:48.913650,4560,-0.320500,-0.711668,-0.821037,-0.040826,-0.010945,1.025449
2011-09-26T15:13:48.923650,4570,-0.265168,-0.695054,-0.835310,-0.039954,-0.010567,1.025804
2011-09-26T15:13:48.933650,4580,-0.208802,-0.678719,-0.849940,-0.039052,-0.010144,1.026112
2011-09-26T15:13:48.943650,4590,-0.152435,-0.662383,-0.864570,-0.038151,-0.009720,1.026419
2011-09-26T15:13:48.953650,4600,-0.096068,-0.646048,-0.879200,-0.037249,-0.009297,1.026727
2011-09-26T15:13:48.963650,4610,-0.039702,-0.629713,-0.893831,-0.036347,-0.008874,1.027034
2011-09-26T15:13:48.973650,4620,0.016665,-0.613377,-0.908461,-0.035445,-0.008450,1.027342
2011-09-26T15:13:48.983650,4630,0.073032,-0.597042,-0.923091,-0.034544,-0.008027,1.027649
2011-09-26T15:13:48.993650,4640,0.129398,-0.580706,-0.937721,-0.033642,-0.007604,1.027957
2011-09-26T15:13:49.003650,4650,0.185765,-0.564371,-0.952352,-0.032740,-0.007180,1.028264
2011-09-26T15:13:49.013650,4660,0.242132,-0.548036,-0.966982,-0.031838,-0.006757,1.028572
2011-09-26T15:13:49.023650,4670,0.188029,-0.491519,-0.938905,-0.031959,-0.006335,1.026154
2011-09-26T15:13:49.033650,4680,0.132609,-0.434523,-0.910319,-0.032092,-0.005914,1.023703
2011-09-26T15:13:49.043650,4690,0.077188,-0.377527,-0.881732,-0.032225,-0.005492,1.021252
2011-09-26T15:13:49.053650,4700,0.021767,-0.320530,-0.853146,-0.032358,-0.005071,1.018801
2011-09-26T15:13:49.063650,4710,-0.033653,-0.263534,-0.824559,-0.032491,-0.004649,1.016351
2011-09-26T15:13:49.073650,4720,-0.089074,-0.206538,-0.795972,-0.032624,-0.004228,1.013900
2011-09-26T15:13:49.083650,4730,-0.144495,-0.149542,-0.767386,-0.032757,-0.003806,1.011449
2011-09-26T15:13:49.093650,4740,-0.199915,-0.092545,-0.738799,-0.032890,-0.003385,1.008998
2011-09-26T15:13:49.103650,4750,-0.255336,-0.035549,-0.710213,-0.033022,-0.002963,1.006547
2011-09-26T15:13:49.113650,4760,-0.310756,0.021447,-0.681626,-0.033155,-0.002542,1.004097
2011-09-26T15:13:49.123650,4770,-0.316187,0.036560,-0.708927,-0.032304,-0.000274,1.002075
2011-09-26T15:13:49.133650,4780,-0.320640,0.050854,-0.737320,-0.031433,0.002029,1.000063
2011-09-26T15:13:49.143650,4790,-0.325092,0.065148,-0.765714,-0.030562,0.004333,0.998050
2011-09-26T15:13:49.153650,4800,-0.329545,0.079442,-0.794108,-0.029692,0.006636,0.996037
2011-09-26T15:13:49.163650,4810,-0.333998,0.093736,-0.822502,-0.028821,0.008940,0.994024
2011-09-26T15:13:49.173650,4820,-0.338450,0.108030,-0.850895,-0.027950,0.011243,0.992011
2011-09-26T15:13:49.183650,4830,-0.342903,0.122324,-0.879289,-0.027080,0.013547,0.989998
2011-09-26T15:13:49.193650,4840,-0.347356,0.136618,-0.907683,-0.026209,0.015850,0.987985
2011-09-26T15:13:49.203650,4850,-0.351808,0.150912,-0.936077,-0.025338,0.018154,0.985973
2011-09-26T15:13:49.213650,4860,-0.356261,0.165206,-0.964471,-0.024467,0.020457,0.983960
2011-09-26T15:13:49.223650,4870,-0.408943,0.174516,-0.984168,-0.025302,0.018645,0.985665
2011-09-26T15:13:49.233650,4880,-0.462443,0.183742,-1.003718,-0.026165,0.016763,0.987433
2011-09-26T15:13:49.243650,4890,-0.515943,0.192968,-1.023268,-0.027028,0.014881,0.989200
2011-09-26T15:13:49.253650,4900,-0.569443,0.202194,-1.042818,-0.027891,0.012999,0.990968
2011-09-26T15:13:49.263650,4910,-0.622943,0.211420,-1.062369,-0.028754,0.011117,0.992736
2011-09-26T15:13:49.273650,4920,-0.676443,0.220646,-1.081919,-0.029618,0.009235,0.994504
2011-09-26T15:13:49.283650,4930,-0.729943,0.229872,-1.101469,-0.030481,0.007353,0.996272
2011-09-26T15:13:49.293650,4940,-0.783443,0.239098,-1.121019,-0.031344,0.005471,0.998040
2011-09-26T15:13:49.303650,4950,-0.836943,0.248324,-1.140569,-0.032207,0.003588,0.999808
2011-09-26T15:13:49.313650,4960,-0.890443,0.257550,-1.160119,-0.033070,0.001706,1.001576
2011-09-26T15:13:49.323650,4970,-0.943943,0.266776,-1.179669,-0.033934,-0.000176,1.003344
2011-09-26T15:13:49.333650,4980,-0.935207,0.215072,-1.156532,-0.034107,-0.002026,1.002754
2011-09-26T15:13:49.343650,4990,-0.925182,0.162106,-1.132510,-0.034266,-0.003876,1.002116
2011-09-26T15:13:49.353650,5000,-0.915158,0.109140,-1.108488,-0.034424,-0.005726,1.001477
2011-09-26T15:13:49.363650,5010,-0.905133,0.056175,-1.084467,-0.034583,-0.007576,1.000839
2011-09-26T15:13:49.373650,5020,-0.895108,0.003209,-1.060445,-0.034742,-0.009426,1.000200
2011-09-26T15:13:49.383650,5030,-0.885083,-0.049756,-1.036423,-0.034901,-0.011276,0.999562
2011-09-26T15:13:49.393650,5040,-0.875059,-0.102722,-1.012402,-0.035060,-0.013125,0.998923
2011-09-26T15:13:49.403650,5050,-0.865034,-0.155688,-0.988380,-0.035219,-0.014975,0.998285
2011-09-26T15:13:49.413650,5060,-0.855009,-0.208653,-0.964359,-0.035377,-0.016825,0.997646
2011-09-26T15:13:49.423650,5070,-0.844984,-0.261619,-0.940337,-0.035536,-0.018675,0.997007
2011-09-26T15:13:49.433650,5080,-0.697661,-0.279149,-0.965360,-0.034533,-0.015934,0.998402
2011-09-26T15:13:49.443650,5090,-0.548194,-0.296125,-0.991148,-0.033512,-0.013122,0.999828
2011-09-26T15:13:49.453650,5100,-0.398726,-0.313101,-1.016937,-0.032491,-0.010309,1.001254
2011-09-26T15:13:49.463650,5110,-0.249258,-0.330078,-1.042726,-0.031470,-0.007497,1.002681
2011-09-26T15:13:49.473650,5120,-0.099790,-0.347054,-1.068515,-0.030449,-0.004684,1.004107
2011-09-26T15:13:49.483650,5130,0.049678,-0.364030,-1.094303,-0.029428,-0.001872,1.005533
2011-09-26T15:13:49.493650,5140,0.199145,-0.381006,-1.120092,-0.028407,0.000941,1.006959
2011-09-26T15:13:49.503650,5150,0.348613,-0.397983,-1.145881,-0.027386,0.003753,1.008386
2011-09-26T15:13:49.513650,5160,0.498081,-0.414959,-1.171670,-0.026365,0.006566,1.009812
2011-09-26T15:13:49.523650,5170,0.647549,-0.431935,-1.197458,-0.025344,0.009378,1.011238
2011-09-26T15:13:49.533650,5180,0.550219,-0.485299,-1.182520,-0.024193,0.008082,1.006364
2011-09-26T15:13:49.543650,5190,0.449060,-0.539227,-1.166951,-0.023041,0.006722,1.001392
2011-09-26T15:13:49.553650,5200,0.347900,-0.593155,-1.151381,-0.021888,0.005362,0.996421
2011-09-26T15:13:49.563650,5210,0.246740,-0.647084,-1.135811,-0.020736,0.004002,0.991449
2011-09-26T15:13:49.573650,5220,0.145581,-0.701012,-1.120241,-0.019583,0.002642,0.986477
2011-09-26T15:13:49.583650,5230,0.044421,-0.754940,-1.104671,-0.018430,0.001282,0.981505
2011-09-26T15:13:49.593650,5240,-0.056739,-0.808869,-1.089101,-0.017278,-0.000078,0.976533
2011-09-26T15:13:49.603650,5250,-0.157898,-0.862797,-1.073531,-0.016125,-0.001438,0.971562
2011-09-26T15:13:49.613650,5260,-0.259058,-0.916725,-1.057961,-0.014973,-0.002798,0.966590
2011-09-26T15:13:49.623650,5270,-0.360218,-0.970654,-1.042391,-0.013820,-0.004158,0.961618
2011-09-26T15:13:49.633650,5280,-0.461377,-1.024582,-1.026821,-0.012667,-0.005519,0.956646
2011-09-26T15:13:49.643650,5290,-0.453420,-0.969791,-1.037357,-0.012255,-0.005537,0.963986
2011-09-26T15:13:49.653650,5300,-0.440741,-0.910296,-1.049022,-0.011874,-0.005498,0.971859
2011-09-26T15:13:49.663650,5310,-0.428062,-0.850801,-1.060687,-0.011493,-0.005459,0.979732
2011-09-26T15:13:49.673650,5320,-0.415383,-0.791305,-1.072352,-0.011113,-0.005420,0.987605
2011-09-26T15:13:49.683650,5330,-0.402704,-0.731810,-1.084017,-0.010732,-0.005381,0.995478
2011-09-26T15:13:49.693650,5340,-0.390024,-0.672315,-1.095683,-0.010351,-0.005342,1.003350
2011-09-26T15:13:49.703650,5350,-0.377345,-0.612819,-1.107348,-0.009971,-0.005303,1.011223
2011-09-26T15:13:49.713650,5360,-0.364666,-0.553324,-1.119013,-0.009590,-0.005264,1.019096
2011-09-26T15:13:49.723650,5370,-0.351987,-0.493829,-1.130678,-0.009209,-0.005224,1.026969
2011-09-26T15:13:49.733650,5380,-0.339308,-0.434333,-1.142343,-0.008828,-0.005185,1.034841
2011-09-26T15:13:49.743650,5390,-0.309490,-0.387638,-1.124502,-0.008258,-0.009828,1.034739
2011-09-26T15:13:49.753650,5400,-0.279320,-0.341205,-1.106056,-0.007684,-0.014566,1.034474
2011-09-26T15:13:49.763650,5410,-0.249150,-0.294773,-1.087609,-0.007110,-0.019305,1.034208
2011-09-26T15:13:49.773650,5420,-0.218980,-0.248340,-1.069163,-0.006536,-0.024043,1.033942
2011-09-26T15:13:49.783650,5430,-0.188811,-0.201907,-1.050717,-0.005962,-0.028782,1.033676
2011-09-26T15:13:49.793650,5440,-0.158641,-0.155474,-1.032270,-0.005387,-0.033520,1.033411
2011-09-26T15:13:49.803650,5450,-0.128471,-0.109042,-1.013824,-0.004813,-0.038258,1.033145
2011-09-26T15:13:49.813650,5460,-0.098301,-0.062609,-0.995378,-0.004239,-0.042997,1.032879
2011-09-26T15:13:49.823650,5470,-0.068132,-0.016176,-0.976931,-0.003665,-0.047735,1.032614
2011-09-26T15:13:49.833650,5480,-0.037962,0.030256,-0.958485,-0.003091,-0.052474,1.032348
2011-09-26T15:13:49.843650,5490,0.140168,0.075913,-0.964078,-0.003734,-0.047208,1.031131
2011-09-26T15:13:49.853650,5500,0.320629,0.121557,-0.970050,-0.004396,-0.041785,1.029899
2011-09-26T15:13:49.863650,5510,0.501089,0.167201,-0.976022,-0.005058,-0.036362,1.028667
2011-09-26T15:13:49.873650,5520,0.681549,0.212846,-0.981993,-0.005721,-0.030939,1.027435
2011-09-26T15:13:49.883650,5530,0.862009,0.258490,-0.987965,-0.006383,-0.025516,1.026204
2011-09-26T15:13:49.893650,5540,1.042470,0.304134,-0.993937,-0.007045,-0.020094,1.024972
2011-09-26T15:13:49.903650,5550,1.222930,0.349779,-0.999909,-0.007707,-0.014671,1.023740
2011-09-26T15:13:49.913650,5560,1.403390,0.395423,-1.005880,-0.008369,-0.009248,1.022508
2011-09-26T15:13:49.923650,5570,1.583850,0.441067,-1.011852,-0.009032,-0.003825,1.021276
2011-09-26T15:13:49.933650,5580,1.764311,0.486711,-1.017824,-0.009694,0.001598,1.020044
2011-09-26T15:13:49.943650,5590,1.944771,0.532356,-1.023796,-0.010356,0.007021,1.018812
2011-09-26T15:13:49.953650,5600,1.817637,0.538373,-1.025277,-0.010590,0.008612,1.013217
2011-09-26T15:13:49.963650,5610,1.685760,0.543778,-1.026689,-0.010817,0.010143,1.007555
2011-09-26T15:13:49.973650,5620,1.553883,0.549184,-1.028101,-0.011045,0.011675,1.001893
2011-09-26T15:13:49.983650,5630,1.422006,0.554590,-1.029513,-0.011272,0.013206,0.996230
2011-09-26T15:13:49.993650,5640,1.290129,0.559996,-1.030925,-0.011499,0.014738,0.990568
2011-09-26T15:13:50.003650,5650,1.158252,0.565402,-1.032337,-0.011727,0.016269,0.984906
2011-09-26T15:13:50.013650,5660,1.026375,0.570807,-1.033749,-0.011954,0.017801,0.979244
2011-09-26T15:13:50.023650,5670,0.894498,0.576213,-1.035161,-0.012181,0.019332,0.973581
2011-09-26T15:13:50.033650,5680,0.762621,0.581619,-1.036573,-0.012409,0.020864,0.967919
2011-09-26T15:13:50.043650,5690,0.630744,0.587025,-1.037985,-0.012636,0.022395,0.962257
2011-09-26T15:13:50.053650,5700,0.622810,0.472984,-1.076661,-0.012992,0.021682,0.964208
2011-09-26T15:13:50.063650,5710,0.616874,0.357018,-1.115939,-0.013350,0.020932,0.966283
2011-09-26T15:13:50.073650,5720,0.610938,0.241051,-1.155216,-0.013708,0.020183,0.968357
2011-09-26T15:13:50.083650,5730,0.605003,0.125085,-1.194493,-0.014067,0.019433,0.970432
2011-09-26T15:13:50.093650,5740,0.599067,0.009119,-1.233771,-0.014425,0.018683,0.972506
2011-09-26T15:13:50.103650,5750,0.593131,-0.106848,-1.273048,-0.014783,0.017934,0.974581
2011-09-26T15:13:50.113650,5760,0.587196,-0.222814,-1.312325,-0.015141,0.017184,0.976655
2011-09-26T15:13:50.123650,5770,0.581260,-0.338781,-1.351603,-0.015499,0.016434,0.978730
2011-09-26T15:13:50.133650,5780,0.575324,-0.454747,-1.390880,-0.015857,0.015684,0.980804
2011-09-26T15:13:50.143650,5790,0.569389,-0.570714,-1.430157,-0.016215,0.014935,0.982878
2011-09-26T15:13:50.153650,5800,0.480249,-0.538801,-1.435581,-0.016003,0.014464,0.987822
2011-09-26T15:13:50.163650,5810,0.388145,-0.501621,-1.439798,-0.015770,0.014003,0.992867
2011-09-26T15:13:50.173650,5820,0.296042,-0.464441,-1.444016,-0.015538,0.013542,0.997913
2011-09-26T15:13:50.183650,5830,0.203938,-0.427260,-1.448233,-0.015305,0.013081,1.002958
2011-09-26T15:13:50.193650,5840,0.111834,-0.390080,-1.452451,-0.015072,0.012620,1.008004
2011-09-26T15:13:50.203650,5850,0.019731,-0.352899,-1.456668,-0.014839,0.012159,1.013049
2011-09-26T15:13:50.213650,5860,-0.072373,-0.315719,-1.460886,-0.014607,0.011698,1.018095
2011-09-26T15:13:50.223650,5870,-0.164477,-0.278538,-1.465103,-0.014374,0.011237,1.023140
2011-09-26T15:13:50.233650,5880,-0.256581,-0.241358,-1.469321,-0.014141,0.010776,1.028186
2011-09-26T15:13:50.243650,5890,-0.348684,-0.204177,-1.473538,-0.013908,0.010315,1.033231
2011-09-26T15:13:50.253650,5900,-0.440788,-0.166997,-1.477756,-0.013676,0.009854,1.038277
2011-09-26T15:13:50.263650,5910,-0.398097,-0.157728,-1.492627,-0.013888,0.007314,1.032853
2011-09-26T15:13:50.273650,5920,-0.352560,-0.149049,-1.507723,-0.014110,0.004730,1.027208
2011-09-26T15:13:50.283650,5930,-0.307023,-0.140369,-1.522819,-0.014332,0.002146,1.021563
2011-09-26T15:13:50.293650,5940,-0.261486,-0.131690,-1.537915,-0.014553,-0.000438,1.015918
2011-09-26T15:13:50.303650,5950,-0.215949,-0.123011,-1.553011,-0.014775,-0.003022,1.010272
2011-09-26T15:13:50.313650,5960,-0.170411,-0.114331,-1.568107,-0.014997,-0.005606,1.004627
2011-09-26T15:13:50.323650,5970,-0.124874,-0.105652,-1.583203,-0.015219,-0.008190,0.998982
2011-09-26T15:13:50.333650,5980,-0.079337,-0.096973,-1.598299,-0.015440,-0.010774,0.993337
2011-09-26T15:13:50.343650,5990,-0.033800,-0.088293,-1.613395,-0.015662,-0.013358,0.987692
2011-09-26T15:13:50.353650,6000,0.011737,-0.079614,-1.628491,-0.015884,-0.015942,0.982047
2011-09-26T15:13:50.363650,6010,-0.033125,-0.129569,-1.635158,-0.014927,-0.015185,0.984198
2011-09-26T15:13:50.373650,6020,-0.079539,-0.180531,-1.641679,-0.013950,-0.014371,0.986483
2011-09-26T15:13:50.383650,6030,-0.125952,-0.231492,-1.648201,-0.012973,-0.013556,0.988769
2011-09-26T15:13:50.393650,6040,-0.172366,-0.282454,-1.654723,-0.011996,-0.012742,0.991054
2011-09-26T15:13:50.403650,6050,-0.218779,-0.333415,-1.661245,-0.011019,-0.011928,0.993339
2011-09-26T15:13:50.413650,6060,-0.265193,-0.384377,-1.667767,-0.010042,-0.011114,0.995624
2011-09-26T15:13:50.423650,6070,-0.311606,-0.435338,-1.674288,-0.009065,-0.010299,0.997909
2011-09-26T15:13:50.433650,6080,-0.358020,-0.486300,-1.680810,-0.008087,-0.009485,1.000194
2011-09-26T15:13:50.443650,6090,-0.404433,-0.537261,-1.687332,-0.007110,-0.008671,1.002479
2011-09-26T15:13:50.453650,6100,-0.450847,-0.588223,-1.693854,-0.006133,-0.007857,1.004764
2011-09-26T15:13:50.463650,6110,-0.465626,-0.516500,-1.698166,-0.006768,-0.005442,1.004803
2011-09-26T15:13:50.473650,6120,-0.479819,-0.442504,-1.702437,-0.007432,-0.002998,1.004801
2011-09-26T15:13:50.483650,6130,-0.494012,-0.368509,-1.706708,-0.008097,-0.000554,1.004799
2011-09-26T15:13:50.493650,6140,-0.508206,-0.294513,-1.710978,-0.008761,0.001890,1.004796
2011-09-26T15:13:50.503650,6150,-0.522399,-0.220517,-1.715249,-0.009425,0.004334,1.004794
2011-09-26T15:13:50.513650,6160,-0.536592,-0.146522,-1.719520,-0.010090,0.006778,1.004792
2011-09-26T15:13:50.523650,6170,-0.550785,-0.072526,-1.723791,-0.010754,0.009222,1.004789
2011-09-26T15:13:50.533650,6180,-0.564979,0.001470,-1.728062,-0.011419,0.011666,1.004787
2011-09-26T15:13:50.543650,6190,-0.579172,0.075465,-1.732333,-0.012083,0.014110,1.004785
2011-09-26T15:13:50.553650,6200,-0.593365,0.149461,-1.736604,-0.012747,0.016554,1.004782
2011-09-26T15:13:50.563650,6210,-0.607558,0.223457,-1.740875,-0.013412,0.018999,1.004780
2011-09-26T15:13:50.573650,6220,-0.557440,0.177318,-1.761132,-0.014054,0.015725,1.002934
2011-09-26T15:13:50.583650,6230,-0.506084,0.128868,-1.781696,-0.014695,0.012341,1.001052
2011-09-26T15:13:50.593650,6240,-0.454728,0.080418,-1.802260,-0.015336,0.008958,0.999170
2011-09-26T15:13:50.603650,6250,-0.403372,0.031968,-1.822824,-0.015978,0.005574,0.997288
2011-09-26T15:13:50.613650,6260,-0.352017,-0.016481,-1.843388,-0.016619,0.002190,0.995406
2011-09-26T15:13:50.623650,6270,-0.300661,-0.064931,-1.863952,-0.017261,-0.001193,0.993524
2011-09-26T15:13:50.633650,6280,-0.249305,-0.113381,-1.884517,-0.017902,-0.004577,0.991642
2011-09-26T15:13:50.643650,6290,-0.197949,-0.161831,-1.905081,-0.018544,-0.007961,0.989760
2011-09-26T15:13:50.653650,6300,-0.146593,-0.210280,-1.925645,-0.019185,-0.011344,0.987878
2011-09-26T15:13:50.663650,6310,-0.095238,-0.258730,-1.946209,-0.019826,-0.014728,0.985996
2011-09-26T15:13:50.673650,6320,-0.091126,-0.253776,-1.946459,-0.020009,-0.015437,0.989336
2011-09-26T15:13:50.683650,6330,-0.088190,-0.247493,-1.946203,-0.020180,-0.016080,0.992805
2011-09-26T15:13:50.693650,6340,-0.085254,-0.241209,-1.945946,-0.020352,-0.016722,0.996275
2011-09-26T15:13:50.703650,6350,-0.082318,-0.234926,-1.945690,-0.020523,-0.017365,0.999744
2011-09-26T15:13:50.713650,6360,-0.079382,-0.228642,-1.945434,-0.020694,-0.018007,1.003214
2011-09-26T15:13:50.723650,6370,-0.076446,-0.222359,-1.945178,-0.020865,-0.018650,1.006683
2011-09-26T15:13:50.733650,6380,-0.073511,-0.216075,-1.944922,-0.021037,-0.019292,1.010153
2011-09-26T15:13:50.743650,6390,-0.070575,-0.209792,-1.944666,-0.021208,-0.019935,1.013622
2011-09-26T15:13:50.753650,6400,-0.067639,-0.203508,-1.944409,-0.021379,-0.020578,1.017092
2011-09-26T15:13:50.763650,6410,-0.064703,-0.197225,-1.944153,-0.021550,-0.021220,1.020561
2011-09-26T15:13:50.773650,6420,-0.061767,-0.190941,-1.943897,-0.021722,-0.021863,1.024031
2011-09-26T15:13:50.783650,6430,-0.113260,-0.139703,-1.936669,-0.021169,-0.022421,1.018298
2011-09-26T15:13:50.793650,6440,-0.165801,-0.087598,-1.929306,-0.020602,-0.022978,1.012387
2011-09-26T15:13:50.803650,6450,-0.218343,-0.035494,-1.921944,-0.020035,-0.023534,1.006476
2011-09-26T15:13:50.813650,6460,-0.270884,0.016610,-1.914581,-0.019468,-0.024091,1.000566
2011-09-26T15:13:50.823650,6470,-0.323425,0.068714,-1.907219,-0.018901,-0.024648,0.994655
2011-09-26T15:13:50.833650,6480,-0.375966,0.120819,-1.899856,-0.018334,-0.025205,0.988744
2011-09-26T15:13:50.843650,6490,-0.428507,0.172923,-1.892494,-0.017767,-0.025761,0.982833
2011-09-26T15:13:50.853650,6500,-0.481049,0.225027,-1.885131,-0.017200,-0.026318,0.976923
2011-09-26T15:13:50.863650,6510,-0.533590,0.277131,-1.877769,-0.016633,-0.026875,0.971012
2011-09-26T15:13:50.873650,6520,-0.586131,0.329236,-1.870406,-0.016067,-0.027432,0.965101
2011-09-26T15:13:50.883650,6530,-0.634401,0.355266,-1.875903,-0.015919,-0.023006,0.970828
2011-09-26T15:13:50.893650,6540,-0.682589,0.380790,-1.881651,-0.015780,-0.018484,0.976782
2011-09-26T15:13:50.903650,6550,-0.730776,0.406313,-1.887399,-0.015641,-0.013961,0.982735
2011-09-26T15:13:50.913650,6560,-0.778964,0.431836,-1.893146,-0.015502,-0.009438,0.988689
2011-09-26T15:13:50.923650,6570,-0.827151,0.457360,-1.898894,-0.015363,-0.004916,0.994642
2011-09-26T15:13:50.933650,6580,-0.875338,0.482883,-1.904641,-0.015224,-0.000393,1.000596
2011-09-26T15:13:50.943650,6590,-0.923526,0.508406,-1.910389,-0.015085,0.004129,1.006549
2011-09-26T15:13:50.953650,6600,-0.971713,0.533930,-1.916137,-0.014946,0.008652,1.012503
2011-09-26T15:13:50.963650,6610,-1.019901,0.559453,-1.921884,-0.014807,0.013174,1.018456
2011-09-26T15:13:50.973650,6620,-1.068088,0.584976,-1.927632,-0.014668,0.017697,1.024410
2011-09-26T15:13:50.983650,6630,-1.056030,0.621375,-1.928520,-0.014847,0.013633,1.023086
2011-09-26T15:13:50.993650,6640,-1.042479,0.658044,-1.929288,-0.015035,0.009355,1.021581
2011-09-26T15:13:51.003650,6650,-1.028927,0.694712,-1.930056,-0.015222,0.005078,1.020076
2011-09-26T15:13:51.013650,6660,-1.015376,0.731381,-1.930824,-0.015410,0.000801,1.018572
2011-09-26T15:13:51.023650,6670,-1.001824,0.768049,-1.931592,-0.015597,-0.003476,1.017067
2011-09-26T15:13:51.033650,6680,-0.988273,0.804717,-1.932360,-0.015785,-0.007753,1.015563
2011-09-26T15:13:51.043650,6690,-0.974721,0.841386,-1.933128,-0.015972,-0.012030,1.014058
2011-09-26T15:13:51.053650,6700,-0.961170,0.878054,-1.933896,-0.016160,-0.016307,1.012553
2011-09-26T15:13:51.063650,6710,-0.947618,0.914723,-1.934664,-0.016347,-0.020584,1.011049
2011-09-26T15:13:51.073650,6720,-0.934067,0.951391,-1.935432,-0.016535,-0.024861,1.009544
2011-09-26T15:13:51.083650,6730,-0.920515,0.988059,-1.936200,-0.016722,-0.029138,1.008040
2011-09-26T15:13:51.093650,6740,-0.800434,1.005079,-1.929474,-0.018599,-0.029494,1.009444
2011-09-26T15:13:51.103650,6750,-0.678125,1.021687,-1.922592,-0.020510,-0.029768,1.010909
2011-09-26T15:13:51.113650,6760,-0.555817,1.038295,-1.915709,-0.022422,-0.030042,1.012373
2011-09-26T15:13:51.123650,6770,-0.433508,1.054903,-1.908827,-0.024334,-0.030316,1.013838
2011-09-26T15:13:51.133650,6780,-0.311199,1.071512,-1.901944,-0.026246,-0.030589,1.015303
2011-09-26T15:13:51.143650,6790,-0.188891,1.088120,-1.895062,-0.028158,-0.030863,1.016768
2011-09-26T15:13:51.153650,6800,-0.066582,1.104728,-1.888179,-0.030069,-0.031137,1.018233
2011-09-26T15:13:51.163650,6810,0.055727,1.121336,-1.881297,-0.031981,-0.031411,1.019697
2011-09-26T15:13:51.173650,6820,0.178036,1.137945,-1.874414,-0.033893,-0.031685,1.021162
2011-09-26T15:13:51.183650,6830,0.300344,1.154553,-1.867532,-0.035805,-0.031958,1.022627
2011-09-26T15:13:51.193650,6840,0.425336,1.015753,-1.878302,-0.037116,-0.032822,1.014823
2011-09-26T15:13:51.203650,6850,0.550390,0.873295,-1.889489,-0.038412,-0.033700,1.006800
2011-09-26T15:13:51.213650,6860,0.675444,0.730836,-1.900676,-0.039709,-0.034578,0.998777
2011-09-26T15:13:51.223650,6870,0.800499,0.588378,-1.911862,-0.041006,-0.035456,0.990755
2011-09-26T15:13:51.233650,6880,0.925553,0.445920,-1.923049,-0.042302,-0.036333,0.982732
2011-09-26T15:13:51.243650,6890,1.050607,0.303462,-1.934235,-0.043599,-0.037211,0.974709
2011-09-26T15:13:51.253650,6900,1.175662,0.161003,-1.945422,-0.044896,-0.038089,0.966687
2011-09-26T15:13:51.263650,6910,1.300716,0.018545,-1.956608,-0.046192,-0.038967,0.958664
2011-09-26T15:13:51.273650,6920,1.425771,-0.123913,-1.967795,-0.047489,-0.039844,0.950641
2011-09-26T15:13:51.283650,6930,1.550825,-0.266372,-1.978981,-0.048786,-0.040722,0.942619
2011-09-26T15:13:51.293650,6940,1.462273,-0.366529,-1.976428,-0.047462,-0.037023,0.944388
2011-09-26T15:13:51.303650,6950,1.369254,-0.465802,-1.973587,-0.046084,-0.033228,0.946362
2011-09-26T15:13:51.313650,6960,1.276235,-0.565075,-1.970747,-0.044705,-0.029434,0.948337
2011-09-26T15:13:51.323650,6970,1.183216,-0.664347,-1.967907,-0.043326,-0.025639,0.950311
2011-09-26T15:13:51.333650,6980,1.090197,-0.763620,-1.965066,-0.041948,-0.021844,0.952285
2011-09-26T15:13:51.343650,6990,0.997178,-0.862893,-1.962226,-0.040569,-0.018049,0.954259
2011-09-26T15:13:51.353650,7000,0.904159,-0.962166,-1.959385,-0.039191,-0.014255,0.956234
2011-09-26T15:13:51.363650,7010,0.811140,-1.061439,-1.956545,-0.037812,-0.010460,0.958208
2011-09-26T15:13:51.373650,7020,0.718121,-1.160711,-1.953704,-0.036434,-0.006665,0.960182
2011-09-26T15:13:51.383650,7030,0.625102,-1.259984,-1.950864,-0.035055,-0.002871,0.962157
2011-09-26T15:13:51.393650,7040,0.532084,-1.359257,-1.948023,-0.033676,0.000924,0.964131
2011-09-26T15:13:51.403650,7050,0.498289,-1.357336,-1.954243,-0.034134,-0.000425,0.966047
2011-09-26T15:13:51.413650,7060,0.465801,-1.353183,-1.960663,-0.034632,-0.001887,0.967962
2011-09-26T15:13:51.423650,7070,0.433313,-1.349030,-1.967082,-0.035131,-0.003349,0.969876
2011-09-26T15:13:51.433650,7080,0.400825,-1.344877,-1.973502,-0.035629,-0.004811,0.971791
2011-09-26T15:13:51.443650,7090,0.368337,-1.340724,-1.979922,-0.036127,-0.006273,0.973706
2011-09-26T15:13:51.453650,7100,0.335849,-1.336571,-1.986341,-0.036625,-0.007735,0.975621
2011-09-26T15:13:51.463650,7110,0.303361,-1.332418,-1.992761,-0.037124,-0.009197,0.977535
2011-09-26T15:13:51.473650,7120,0.270873,-1.328265,-1.999180,-0.037622,-0.010659,0.979450
2011-09-26T15:13:51.483650,7130,0.238385,-1.324112,-2.005600,-0.038120,-0.012122,0.981365
2011-09-26T15:13:51.493650,7140,0.205898,-1.319959,-2.012019,-0.038618,-0.013584,0.983280
2011-09-26T15:13:51.503650,7150,0.178360,-1.325820,-2.006644,-0.037804,-0.012426,0.986902
2011-09-26T15:13:51.513650,7160,0.150936,-1.331911,-2.000999,-0.036960,-0.011208,0.990564
2011-09-26T15:13:51.523650,7170,0.123512,-1.338001,-1.995353,-0.036115,-0.009990,0.994226
2011-09-26T15:13:51.533650,7180,0.096088,-1.344091,-1.989708,-0.035271,-0.008772,0.997887
2011-09-26T15:13:51.543650,7190,0.068664,-1.350182,-1.984062,-0.034426,-0.007554,1.001549
2011-09-26T15:13:51.553650,7200,0.041240,-1.356272,-1.978417,-0.033582,-0.006336,1.005211
2011-09-26T15:13:51.563650,7210,0.013816,-1.362363,-1.972772,-0.032738,-0.005118,1.008873
2011-09-26T15:13:51.573650,7220,-0.013608,-1.368453,-1.967126,-0.031893,-0.003900,1.012534
2011-09-26T15:13:51.583650,7230,-0.041032,-1.374543,-1.961481,-0.031049,-0.002682,1.016196
2011-09-26T15:13:51.593650,7240,-0.068456,-1.380634,-1.955835,-0.030204,-0.001464,1.019858
2011-09-26T15:13:51.603650,7250,0.004319,-1.273407,-1.935546,-0.030014,-0.002950,1.023360
2011-09-26T15:13:51.613650,7260,0.079892,-1.163016,-1.914848,-0.029842,-0.004511,1.026859
2011-09-26T15:13:51.623650,7270,0.155465,-1.052624,-1.894149,-0.029669,-0.006073,1.030357
2011-09-26T15:13:51.633650,7280,0.231039,-0.942232,-1.873451,-0.029497,-0.007634,1.033855
2011-09-26T15:13:51.643650,7290,0.306612,-0.831841,-1.852753,-0.029325,-0.009196,1.037353
2011-09-26T15:13:51.653650,7300,0.382185,-0.721449,-1.832054,-0.029152,-0.010758,1.040852
2011-09-26T15:13:51.663650,7310,0.457759,-0.611057,-1.811356,-0.028980,-0.012319,1.044350
2011-09-26T15:13:51.673650,7320,0.533332,-0.500666,-1.790658,-0.028808,-0.013881,1.047848
2011-09-26T15:13:51.683650,7330,0.608906,-0.390274,-1.769959,-0.028636,-0.015442,1.051346
2011-09-26T15:13:51.693650,7340,0.684479,-0.279882,-1.749261,-0.028463,-0.017004,1.054844
2011-09-26T15:13:51.703650,7350,0.760052,-0.169491,-1.728563,-0.028291,-0.018565,1.058343
2011-09-26T15:13:51.713650,7360,0.707972,-0.124103,-1.743910,-0.029841,-0.014761,1.048832
2011-09-26T15:13:51.723650,7370,0.652230,-0.080580,-1.760290,-0.031440,-0.010803,1.038948
2011-09-26T15:13:51.733650,7380,0.596489,-0.037057,-1.776671,-0.033039,-0.006844,1.029064
2011-09-26T15:13:51.743650,7390,0.540747,0.006466,-1.793051,-0.034638,-0.002886,1.019180
2011-09-26T15:13:51.753650,7400,0.485005,0.049989,-1.809432,-0.036238,0.001072,1.009296
2011-09-26T15:13:51.763650,7410,0.429264,0.093512,-1.825813,-0.037837,0.005031,0.999412
2011-09-26T15:13:51.773650,7420,0.373522,0.137035,-1.842193,-0.039436,0.008989,0.989528
2011-09-26T15:13:51.783650,7430,0.317781,0.180558,-1.858574,-0.041035,0.012947,0.979644
2011-09-26T15:13:51.793650,7440,0.262039,0.224082,-1.874954,-0.042634,0.016906,0.969760
2011-09-26T15:13:51.803650,7450,0.206297,0.267605,-1.891335,-0.044234,0.020864,0.959876
2011-09-26T15:13:51.813650,7460,0.259233,0.256241,-1.913747,-0.043049,0.016905,0.966243
2011-09-26T15:13:51.823650,7470,0.318562,0.241648,-1.936513,-0.041700,0.012481,0.973567
2011-09-26T15:13:51.833650,7480,0.377892,0.227056,-1.959280,-0.040352,0.008056,0.980891
2011-09-26T15:13:51.843650,7490,0.437221,0.212463,-1.982047,-0.039004,0.003632,0.988215
2011-09-26T15:13:51.853650,7500,0.496551,0.197870,-2.004813,-0.037655,-0.000792,0.995539
2011-09-26T15:13:51.863650,7510,0.555880,0.183277,-2.027580,-0.036307,-0.005217,1.002863
2011-09-26T15:13:51.873650,7520,0.615210,0.168685,-2.050347,-0.034958,-0.009641,1.010187
2011-09-26T15:13:51.883650,7530,0.674539,0.154092,-2.073113,-0.033610,-0.014066,1.017510
2011-09-26T15:13:51.893650,7540,0.733869,0.139499,-2.095880,-0.032261,-0.018490,1.024834
2011-09-26T15:13:51.903650,7550,0.793198,0.124906,-2.118647,-0.030913,-0.022915,1.032158
2011-09-26T15:13:51.913650,7560,0.852527,0.110314,-2.141413,-0.029564,-0.027339,1.039482
2011-09-26T15:13:51.923650,7570,0.854873,0.150187,-2.114122,-0.031061,-0.023824,1.033595
2011-09-26T15:13:51.933650,7580,0.854853,0.192323,-2.084753,-0.032676,-0.019979,1.027160
2011-09-26T15:13:51.943650,7590,0.854833,0.234458,-2.055383,-0.034291,-0.016134,1.020725
2011-09-26T15:13:51.953650,7600,0.854813,0.276593,-2.026013,-0.035906,-0.012289,1.014290
2011-09-26T15:13:51.963650,7610,0.854793,0.318729,-1.996644,-0.037521,-0.008444,1.007854
2011-09-26T15:13:51.973650,7620,0.854773,0.360864,-1.967274,-0.039136,-0.004599,1.001419
2011-09-26T15:13:51.983650,7630,0.854753,0.403000,-1.937904,-0.040751,-0.000754,0.994984
2011-09-26T15:13:51.993650,7640,0.854733,0.445135,-1.908535,-0.042365,0.003091,0.988549
2011-09-26T15:13:52.003650,7650,0.854712,0.487270,-1.879165,-0.043980,0.006936,0.982113
2011-09-26T15:13:52.013650,7660,0.854692,0.529406,-1.849796,-0.045595,0.010781,0.975678
2011-09-26T15:13:52.023650,7670,0.703293,0.458449,-1.846493,-0.044050,0.012044,0.977189
2011-09-26T15:13:52.033650,7680,0.548269,0.384784,-1.843815,-0.042429,0.013244,0.978891
2011-09-26T15:13:52.043650,7690,0.393245,0.311119,-1.841136,-0.040808,0.014445,0.980593
2011-09-26T15:13:52.053650,7700,0.238221,0.237454,-1.838458,-0.039187,0.015646,0.982295
2011-09-26T15:13:52.063650,7710,0.083196,0.163789,-1.835780,-0.037566,0.016847,0.983996
2011-09-26T15:13:52.073650,7720,-0.071828,0.090124,-1.833101,-0.035945,0.018048,0.985698
2011-09-26T15:13:52.083650,7730,-0.226852,0.016459,-1.830423,-0.034324,0.019248,0.987400
2011-09-26T15:13:52.093650,7740,-0.381877,-0.057206,-1.827745,-0.032703,0.020449,0.989101
2011-09-26T15:13:52.103650,7750,-0.536901,-0.130871,-1.825067,-0.031082,0.021650,0.990803
2011-09-26T15:13:52.113650,7760,-0.691925,-0.204536,-1.822388,-0.029461,0.022851,0.992505
2011-09-26T15:13:52.123650,7770,-0.849040,-0.189727,-1.810402,-0.030375,0.019700,0.992411
2011-09-26T15:13:52.133650,7780,-1.006226,-0.171937,-1.798102,-0.031374,0.016403,0.992257
2011-09-26T15:13:52.143650,7790,-1.163412,-0.154148,-1.785802,-0.032373,0.013106,0.992102
2011-09-26T15:13:52.153650,7800,-1.320598,-0.136358,-1.773501,-0.033372,0.009809,0.991948
2011-09-26T15:13:52.163650,7810,-1.477783,-0.118569,-1.761201,-0.034371,0.006512,0.991793
2011-09-26T15:13:52.173650,7820,-1.634969,-0.100779,-1.748901,-0.035370,0.003214,0.991639
2011-09-26T15:13:52.183650,7830,-1.792155,-0.082989,-1.736601,-0.036369,-0.000083,0.991485
2011-09-26T15:13:52.193650,7840,-1.949341,-0.065200,-1.724301,-0.037368,-0.003380,0.991330
2011-09-26T15:13:52.203650,7850,-2.106526,-0.047410,-1.712001,-0.038367,-0.006677,0.991176
2011-09-26T15:13:52.213650,7860,-2.263712,-0.029621,-1.699701,-0.039366,-0.009974,0.991022
2011-09-26T15:13:52.223650,7870,-2.047962,-0.084171,-1.683941,-0.039093,-0.013827,0.991869
2011-09-26T15:13:52.233650,7880,-1.820560,-0.140982,-1.668074,-0.038779,-0.017697,0.992747
2011-09-26T15:13:52.243650,7890,-1.593158,-0.197793,-1.652206,-0.038466,-0.021567,0.993625
2011-09-26T15:13:52.253650,7900,-1.365755,-0.254605,-1.636339,-0.038153,-0.025437,0.994504
2011-09-26T15:13:52.263650,7910,-1.138353,-0.311416,-1.620472,-0.037840,-0.029307,0.995382
2011-09-26T15:13:52.273650,7920,-0.910951,-0.368227,-1.604604,-0.037526,-0.033177,0.996260
2011-09-26T15:13:52.283650,7930,-0.683549,-0.425038,-1.588737,-0.037213,-0.037046,0.997139
2011-09-26T15:13:52.293650,7940,-0.456147,-0.481849,-1.572869,-0.036900,-0.040916,0.998017
2011-09-26T15:13:52.303650,7950,-0.228744,-0.538660,-1.557002,-0.036586,-0.044786,0.998896
2011-09-26T15:13:52.313650,7960,-0.001342,-0.595471,-1.541134,-0.036273,-0.048656,0.999774
2011-09-26T15:13:52.323650,7970,0.226060,-0.652282,-1.525267,-0.035960,-0.052526,1.000652
2011-09-26T15:13:52.333650,7980,0.376858,-0.711797,-1.486401,-0.035230,-0.046870,1.002206
2011-09-26T15:13:52.343650,7990,0.525740,-0.771380,-1.446960,-0.034490,-0.040976,1.003777
2011-09-26T15:13:52.353650,8000,0.674623,-0.830963,-1.407519,-0.033750,-0.035082,1.005347
2011-09-26T15:13:52.363650,8010,0.823506,-0.890546,-1.368078,-0.033010,-0.029188,1.006918
2011-09-26T15:13:52.373650,8020,0.972388,-0.950128,-1.328637,-0.032270,-0.023294,1.008489
2011-09-26T15:13:52.383650,8030,1.121271,-1.009711,-1.289196,-0.031530,-0.017400,1.010059
2011-09-26T15:13:52.393650,8040,1.270153,-1.069294,-1.249756,-0.030790,-0.011507,1.011630
2011-09-26T15:13:52.403650,8050,1.419036,-1.128877,-1.210315,-0.030050,-0.005613,1.013200
2011-09-26T15:13:52.413650,8060,1.567919,-1.188459,-1.170874,-0.029310,0.000281,1.014771
2011-09-26T15:13:52.423650,8070,1.716801,-1.248042,-1.131433,-0.028570,0.006175,1.016342
2011-09-26T15:13:52.433650,8080,1.589134,-1.228156,-1.193703,-0.026970,0.009302,1.012478
2011-09-26T15:13:52.443650,8090,1.453913,-1.206099,-1.258750,-0.025346,0.012353,1.008466
2011-09-26T15:13:52.453650,8100,1.318692,-1.184043,-1.323798,-0.023723,0.015404,1.004454
2011-09-26T15:13:52.463650,8110,1.183471,-1.161986,-1.388845,-0.022100,0.018456,1.000442
2011-09-26T15:13:52.473650,8120,1.048250,-1.139929,-1.453893,-0.020476,0.021507,0.996431
2011-09-26T15:13:52.483650,8130,0.913028,-1.117873,-1.518941,-0.018853,0.024558,0.992419
2011-09-26T15:13:52.493650,8140,0.777807,-1.095816,-1.583988,-0.017230,0.027609,0.988407
2011-09-26T15:13:52.503650,8150,0.642586,-1.073759,-1.649036,-0.015606,0.030660,0.984395
2011-09-26T15:13:52.513650,8160,0.507365,-1.051703,-1.714084,-0.013983,0.033712,0.980383
2011-09-26T15:13:52.523650,8170,0.372144,-1.029646,-1.779131,-0.012359,0.036763,0.976371
2011-09-26T15:13:52.533650,8180,0.236923,-1.007589,-1.844179,-0.010736,0.039814,0.972359
2011-09-26T15:13:52.543650,8190,0.176807,-0.958769,-1.842824,-0.010955,0.033413,0.978552
2011-09-26T15:13:52.553650,8200,0.119100,-0.909089,-1.839339,-0.011233,0.026709,0.985071
2011-09-26T15:13:52.563650,8210,0.061393,-0.859410,-1.835854,-0.011512,0.020004,0.991591
2011-09-26T15:13:52.573650,8220,0.003686,-0.809731,-1.832369,-0.011790,0.013300,0.998110
2011-09-26T15:13:52.583650,8230,-0.054021,-0.760052,-1.828885,-0.012068,0.006596,1.004630
2011-09-26T15:13:52.593650,8240,-0.111728,-0.710373,-1.825400,-0.012346,-0.000108,1.011149
2011-09-26T15:13:52.603650,8250,-0.169435,-0.660694,-1.821915,-0.012625,-0.006813,1.017669
2011-09-26T15:13:52.613650,8260,-0.227143,-0.611015,-1.818430,-0.012903,-0.013517,1.024188
2011-09-26T15:13:52.623650,8270,-0.284850,-0.561336,-1.814945,-0.013181,-0.020221,1.030708
2011-09-26T15:13:52.633650,8280,-0.342557,-0.511657,-1.811460,-0.013460,-0.026925,1.037227
2011-09-26T15:13:52.643650,8290,-0.293858,-0.367877,-1.778961,-0.014941,-0.026261,1.037740
2011-09-26T15:13:52.653650,8300,-0.239607,-0.219189,-1.744947,-0.016486,-0.025212,1.037939
2011-09-26T15:13:52.663650,8310,-0.185357,-0.070501,-1.710934,-0.018030,-0.024164,1.038139
2011-09-26T15:13:52.673650,8320,-0.131107,0.078188,-1.676921,-0.019575,-0.023115,1.038338
2011-09-26T15:13:52.683650,8330,-0.076857,0.226876,-1.642907,-0.021119,-0.022067,1.038538
2011-09-26T15:13:52.693650,8340,-0.022606,0.375565,-1.608894,-0.022664,-0.021018,1.038737
2011-09-26T15:13:52.703650,8350,0.031644,0.524253,-1.574880,-0.024209,-0.019969,1.038936
2011-09-26T15:13:52.713650,8360,0.085894,0.672942,-1.540867,-0.025753,-0.018921,1.039136
2011-09-26T15:13:52.723650,8370,0.140145,0.821630,-1.506853,-0.027298,-0.017872,1.039335
2011-09-26T15:13:52.733650,8380,0.194395,0.970319,-1.472840,-0.028842,-0.016824,1.039534
2011-09-26T15:13:52.743650,8390,0.180081,0.979185,-1.480964,-0.027954,-0.014485,1.036628
2011-09-26T15:13:52.753650,8400,0.163699,0.983835,-1.490359,-0.026992,-0.012107,1.033628
2011-09-26T15:13:52.763650,8410,0.147317,0.988485,-1.499755,-0.026030,-0.009730,1.030628
2011-09-26T15:13:52.773650,8420,0.130935,0.993135,-1.509150,-0.025068,-0.007352,1.027628
2011-09-26T15:13:52.783650,8430,0.114553,0.997785,-1.518545,-0.024107,-0.004975,1.024628
2011-09-26T15:13:52.793650,8440,0.098171,1.002435,-1.527940,-0.023145,-0.002597,1.021628
2011-09-26T15:13:52.803650,8450,0.081790,1.007085,-1.537335,-0.022183,-0.000219,1.018628
2011-09-26T15:13:52.813650,8460,0.065408,1.011735,-1.546730,-0.021221,0.002158,1.015628
2011-09-26T15:13:52.823650,8470,0.049026,1.016385,-1.556125,-0.020259,0.004536,1.012627
2011-09-26T15:13:52.833650,8480,0.032644,1.021035,-1.565520,-0.019298,0.006913,1.009627
2011-09-26T15:13:52.843650,8490,0.016262,1.025685,-1.574915,-0.018336,0.009291,1.006627
2011-09-26T15:13:52.853650,8500,0.075588,0.971273,-1.579196,-0.019645,0.008491,1.003421
2011-09-26T15:13:52.863650,8510,0.136949,0.915274,-1.583340,-0.021015,0.007605,1.000209
2011-09-26T15:13:52.873650,8520,0.198310,0.859276,-1.587483,-0.022385,0.006719,0.996997
2011-09-26T15:13:52.883650,8530,0.259671,0.803277,-1.591627,-0.023755,0.005834,0.993785
2011-09-26T15:13:52.893650,8540,0.321031,0.747278,-1.595770,-0.025125,0.004948,0.990573
2011-09-26T15:13:52.903650,8550,0.382392,0.691279,-1.599914,-0.026495,0.004063,0.987361
2011-09-26T15:13:52.913650,8560,0.443753,0.635280,-1.604057,-0.027865,0.003177,0.984149
2011-09-26T15:13:52.923650,8570,0.505114,0.579281,-1.608201,-0.029236,0.002292,0.980937
2011-09-26T15:13:52.933650,8580,0.566474,0.523283,-1.612344,-0.030606,0.001406,0.977725
2011-09-26T15:13:52.943650,8590,0.627835,0.467284,-1.616488,-0.031976,0.000520,0.974513
2011-09-26T15:13:52.953650,8600,0.615634,0.369819,-1.597724,-0.031697,-0.000164,0.975416
2011-09-26T15:13:52.963650,8610,0.601260,0.271129,-1.578285,-0.031370,-0.000842,0.976441
2011-09-26T15:13:52.973650,8620,0.586886,0.172439,-1.558845,-0.031043,-0.001520,0.977466
2011-09-26T15:13:52.983650,8630,0.572513,0.073749,-1.539405,-0.030715,-0.002198,0.978491
2011-09-26T15:13:52.993650,8640,0.558139,-0.024940,-1.519965,-0.030388,-0.002876,0.979516
2011-09-26T15:13:53.003650,8650,0.543765,-0.123630,-1.500525,-0.030061,-0.003554,0.980541
2011-09-26T15:13:53.013650,8660,0.529392,-0.222320,-1.481085,-0.029733,-0.004233,0.981566
2011-09-26T15:13:53.023650,8670,0.515018,-0.321010,-1.461645,-0.029406,-0.004911,0.982591
2011-09-26T15:13:53.033650,8680,0.500644,-0.419699,-1.442205,-0.029079,-0.005589,0.983616
2011-09-26T15:13:53.043650,8690,0.486270,-0.518389,-1.422765,-0.028752,-0.006267,0.984641
2011-09-26T15:13:53.053650,8700,0.446832,-0.552765,-1.422839,-0.028560,-0.004252,0.988100
2011-09-26T15:13:53.063650,8710,0.406671,-0.585288,-1.423475,-0.028372,-0.002159,0.991630
2011-09-26T15:13:53.073650,8720,0.366511,-0.617811,-1.424112,-0.028184,-0.000066,0.995159
2011-09-26T15:13:53.083650,8730,0.326350,-0.650334,-1.424748,-0.027996,0.002027,0.998689
2011-09-26T15:13:53.093650,8740,0.286189,-0.682856,-1.425384,-0.027808,0.004120,1.002219
2011-09-26T15:13:53.103650,8750,0.246029,-0.715379,-1.426021,-0.027620,0.006213,1.005748
2011-09-26T15:13:53.113650,8760,0.205868,-0.747902,-1.426657,-0.027432,0.008306,1.009278
2011-09-26T15:13:53.123650,8770,0.165708,-0.780425,-1.427293,-0.027244,0.010398,1.012807
2011-09-26T15:13:53.133650,8780,0.125547,-0.812948,-1.427930,-0.027056,0.012491,1.016337
2011-09-26T15:13:53.143650,8790,0.085386,-0.845471,-1.428566,-0.026868,0.014584,1.019866
2011-09-26T15:13:53.153650,8800,0.045226,-0.877994,-1.429202,-0.026680,0.016677,1.023396
2011-09-26T15:13:53.163650,8810,-0.035279,-0.819599,-1.450716,-0.027189,0.015628,1.021657
2011-09-26T15:13:53.173650,8820,-0.117460,-0.757428,-1.473096,-0.027726,0.014448,1.019698
2011-09-26T15:13:53.183650,8830,-0.199640,-0.695258,-1.495476,-0.028264,0.013269,1.017740
2011-09-26T15:13:53.193650,8840,-0.281821,-0.633088,-1.517856,-0.028802,0.012089,1.015782
2011-09-26T15:13:53.203650,8850,-0.364001,-0.570918,-1.540236,-0.029339,0.010910,1.013823
2011-09-26T15:13:53.213650,8860,-0.446182,-0.508747,-1.562616,-0.029877,0.009730,1.011865
2011-09-26T15:13:53.223650,8870,-0.528362,-0.446577,-1.584996,-0.030414,0.008550,1.009907
2011-09-26T15:13:53.233650,8880,-0.610543,-0.384407,-1.607376,-0.030952,0.007371,1.007948
2011-09-26T15:13:53.243650,8890,-0.692723,-0.322237,-1.629756,-0.031490,0.006191,1.005990
2011-09-26T15:13:53.253650,8900,-0.774903,-0.260066,-1.652136,-0.032027,0.005011,1.004032
2011-09-26T15:13:53.263650,8910,-0.718605,-0.207934,-1.652459,-0.032093,0.003205,1.004096
2011-09-26T15:13:53.273650,8920,-0.657732,-0.156132,-1.652053,-0.032143,0.001378,1.004228
2011-09-26T15:13:53.283650,8930,-0.596858,-0.104331,-1.651647,-0.032194,-0.000449,1.004359
2011-09-26T15:13:53.293650,8940,-0.535984,-0.052530,-1.651241,-0.032244,-0.002277,1.004490
2011-09-26T15:13:53.303650,8950,-0.475111,-0.000728,-1.650835,-0.032294,-0.004104,1.004621
2011-09-26T15:13:53.313650,8960,-0.414237,0.051073,-1.650430,-0.032345,-0.005931,1.004752
2011-09-26T15:13:53.323650,8970,-0.353364,0.102874,-1.650024,-0.032395,-0.007758,1.004884
2011-09-26T15:13:53.333650,8980,-0.292490,0.154675,-1.649618,-0.032445,-0.009586,1.005015
2011-09-26T15:13:53.343650,8990,-0.231617,0.206477,-1.649212,-0.032496,-0.011413,1.005146
2011-09-26T15:13:53.353650,9000,-0.170743,0.258278,-1.648806,-0.032546,-0.013240,1.005277
2011-09-26T15:13:53.363650,9010,-0.180479,0.259529,-1.629877,-0.031745,-0.011621,1.005820
2011-09-26T15:13:53.373650,9020,-0.192353,0.259249,-1.610388,-0.030918,-0.009897,1.006375
2011-09-26T15:13:53.383650,9030,-0.204227,0.258970,-1.590898,-0.030091,-0.008174,1.006930
2011-09-26T15:13:53.393650,9040,-0.216101,0.258690,-1.571409,-0.029263,-0.006450,1.007486
2011-09-26T15:13:53.403650,9050,-0.227975,0.258410,-1.551919,-0.028436,-0.004727,1.008041
2011-09-26T15:13:53.413650,9060,-0.239849,0.258130,-1.532430,-0.027609,-0.003004,1.008596
2011-09-26T15:13:53.423650,9070,-0.251723,0.257851,-1.512940,-0.026782,-0.001280,1.009151
2011-09-26T15:13:53.433650,9080,-0.263598,0.257571,-1.493451,-0.025955,0.000443,1.009706
2011-09-26T15:13:53.443650,9090,-0.275472,0.257291,-1.473961,-0.025128,0.002167,1.010262
2011-09-26T15:13:53.453650,9100,-0.287346,0.257011,-1.454471,-0.024301,0.003890,1.010817
2011-09-26T15:13:53.463650,9110,-0.299220,0.256732,-1.434982,-0.023474,0.005614,1.011372
2011-09-26T15:13:53.473650,9120,-0.304021,0.248190,-1.452024,-0.024950,0.006269,1.009634
2011-09-26T15:13:53.483650,9130,-0.308608,0.239398,-1.470172,-0.026495,0.006891,1.007827
2011-09-26T15:13:53.493650,9140,-0.313195,0.230607,-1.488320,-0.028041,0.007514,1.006019
2011-09-26T15:13:53.503650,9150,-0.317783,0.221815,-1.506468,-0.029586,0.008137,1.004212
2011-09-26T15:13:53.513650,9160,-0.322370,0.213023,-1.524616,-0.031132,0.008759,1.002405
2011-09-26T15:13:53.523650,9170,-0.326957,0.204232,-1.542764,-0.032677,0.009382,1.000597
2011-09-26T15:13:53.533650,9180,-0.331544,0.195440,-1.560911,-0.034223,0.010004,0.998790
2011-09-26T15:13:53.543650,9190,-0.336131,0.186648,-1.579059,-0.035768,0.010627,0.996982
2011-09-26T15:13:53.553650,9200,-0.340719,0.177857,-1.597207,-0.037314,0.011250,0.995175
2011-09-26T15:13:53.563650,9210,-0.345306,0.169065,-1.615355,-0.038859,0.011872,0.993368
2011-09-26T15:13:53.573650,9220,-0.430000,0.095960,-1.616837,-0.037907,0.011037,0.991940
2011-09-26T15:13:53.583650,9230,-0.517589,0.020531,-1.617717,-0.036865,0.010149,0.990527
2011-09-26T15:13:53.593650,9240,-0.605179,-0.054898,-1.618596,-0.035823,0.009262,0.989113
2011-09-26T15:13:53.603650,9250,-0.692769,-0.130328,-1.619476,-0.034781,0.008374,0.987700
2011-09-26T15:13:53.613650,9260,-0.780358,-0.205757,-1.620355,-0.033738,0.007486,0.986286
2011-09-26T15:13:53.623650,9270,-0.867948,-0.281187,-1.621235,-0.032696,0.006598,0.984873
2011-09-26T15:13:53.633650,9280,-0.955538,-0.356616,-1.622115,-0.031654,0.005711,0.983459
2011-09-26T15:13:53.643650,9290,-1.043127,-0.432045,-1.622994,-0.030612,0.004823,0.982046
2011-09-26T15:13:53.653650,9300,-1.130717,-0.507475,-1.623874,-0.029570,0.003935,0.980632
2011-09-26T15:13:53.663650,9310,-1.218307,-0.582904,-1.624753,-0.028527,0.003047,0.979219
2011-09-26T15:13:53.673650,9320,-1.044963,-0.581718,-1.611480,-0.029349,-0.001456,0.982528
2011-09-26T15:13:53.683650,9330,-0.861095,-0.577442,-1.597635,-0.030246,-0.006104,0.986027
2011-09-26T15:13:53.693650,9340,-0.677227,-0.573166,-1.583790,-0.031144,-0.010753,0.989527
2011-09-26T15:13:53.703650,9350,-0.493359,-0.568890,-1.569946,-0.032041,-0.015402,0.993026
2011-09-26T15:13:53.713650,9360,-0.309490,-0.564615,-1.556101,-0.032938,-0.020051,0.996526
2011-09-26T15:13:53.723650,9370,-0.125622,-0.560339,-1.542256,-0.033835,-0.024699,1.000025
2011-09-26T15:13:53.733650,9380,0.058246,-0.556063,-1.528412,-0.034732,-0.029348,1.003525
2011-09-26T15:13:53.743650,9390,0.242114,-0.551787,-1.514567,-0.035630,-0.033997,1.007024
2011-09-26T15:13:53.753650,9400,0.425982,-0.547511,-1.500722,-0.036527,-0.038646,1.010524
2011-09-26T15:13:53.763650,9410,0.609850,-0.543235,-1.486877,-0.037424,-0.043294,1.014023
2011-09-26T15:13:53.773650,9420,0.793718,-0.538959,-1.473033,-0.038321,-0.047943,1.017523
2011-09-26T15:13:53.783650,9430,0.887350,-0.574871,-1.459545,-0.036975,-0.039082,1.015460
2011-09-26T15:13:53.793650,9440,0.977390,-0.612383,-1.446072,-0.035540,-0.029684,1.013175
2011-09-26T15:13:53.803650,9450,1.067430,-0.649896,-1.432599,-0.034105,-0.020286,1.010891
2011-09-26T15:13:53.813650,9460,1.157470,-0.687408,-1.419125,-0.032670,-0.010888,1.008606
2011-09-26T15:13:53.823650,9470,1.247510,-0.724920,-1.405652,-0.031235,-0.001489,1.006322
2011-09-26T15:13:53.833650,9480,1.337550,-0.762432,-1.392179,-0.029800,0.007909,1.004037
2011-09-26T15:13:53.843650,9490,1.427590,-0.799944,-1.378705,-0.028365,0.017307,1.001753
2011-09-26T15:13:53.853650,9500,1.517630,-0.837457,-1.365232,-0.026930,0.026706,0.999468
2011-09-26T15:13:53.863650,9510,1.607670,-0.874969,-1.351759,-0.025494,0.036104,0.997184
2011-09-26T15:13:53.873650,9520,1.697710,-0.912481,-1.338285,-0.024059,0.045502,0.994899
2011-09-26T15:13:53.883650,9530,1.569852,-0.896656,-1.364870,-0.024264,0.044345,0.998208
2011-09-26T15:13:53.893650,9540,1.434094,-0.878897,-1.392907,-0.024529,0.042806,1.001720
2011-09-26T15:13:53.903650,9550,1.298337,-0.861138,-1.420944,-0.024793,0.041266,1.005232
2011-09-26T15:13:53.913650,9560,1.162579,-0.843379,-1.448980,-0.025058,0.039726,1.008744
2011-09-26T15:13:53.923650,9570,1.026821,-0.825620,-1.477017,-0.025322,0.038186,1.012256
2011-09-26T15:13:53.933650,9580,0.891063,-0.807861,-1.505054,-0.025587,0.036647,1.015768
2011-09-26T15:13:53.943650,9590,0.755306,-0.790102,-1.533091,-0.025851,0.035107,1.019279
2011-09-26T15:13:53.953650,9600,0.619548,-0.772343,-1.561128,-0.026115,0.033567,1.022791
2011-09-26T15:13:53.963650,9610,0.483790,-0.754584,-1.589164,-0.026380,0.032028,1.026303
2011-09-26T15:13:53.973650,9620,0.348032,-0.736825,-1.617201,-0.026644,0.030488,1.029815
2011-09-26T15:13:53.983650,9630,0.212275,-0.719066,-1.645238,-0.026909,0.028948,1.033327
2011-09-26T15:13:53.993650,9640,0.111675,-0.608378,-1.638703,-0.028810,0.025479,1.030623
2011-09-26T15:13:54.003650,9650,0.012429,-0.494112,-1.630837,-0.030774,0.021935,1.027680
2011-09-26T15:13:54.013650,9660,-0.086816,-0.379846,-1.622971,-0.032737,0.018391,1.024736
2011-09-26T15:13:54.023650,9670,-0.186062,-0.265579,-1.615105,-0.034701,0.014847,1.021793
2011-09-26T15:13:54.033650,9680,-0.285308,-0.151313,-1.607239,-0.036665,0.011303,1.018849
2011-09-26T15:13:54.043650,9690,-0.384553,-0.037047,-1.599373,-0.038629,0.007759,1.015906
2011-09-26T15:13:54.053650,9700,-0.483799,0.077220,-1.591506,-0.040593,0.004215,1.012963
2011-09-26T15:13:54.063650,9710,-0.583044,0.191486,-1.583640,-0.042557,0.000671,1.010019
2011-09-26T15:13:54.073650,9720,-0.682290,0.305752,-1.575774,-0.044521,-0.002873,1.007076
2011-09-26T15:13:54.083650,9730,-0.781536,0.420018,-1.567908,-0.046485,-0.006417,1.004133
2011-09-26T15:13:54.093650,9740,-0.675523,0.374466,-1.550563,-0.044917,-0.007649,1.000335
2011-09-26T15:13:54.103650,9750,-0.561471,0.322652,-1.532847,-0.043210,-0.008791,0.996505
2011-09-26T15:13:54.113650,9760,-0.447418,0.270839,-1.515131,-0.041504,-0.009932,0.992674
2011-09-26T15:13:54.123650,9770,-0.333366,0.219026,-1.497415,-0.039798,-0.011074,0.988843
2011-09-26T15:13:54.133650,9780,-0.219314,0.167212,-1.479699,-0.038091,-0.012215,0.985013
2011-09-26T15:13:54.143650,9790,-0.105261,0.115399,-1.461983,-0.036385,-0.013356,0.981182
2011-09-26T15:13:54.153650,9800,0.008791,0.063586,-1.444267,-0.034678,-0.014498,0.977351
2011-09-26T15:13:54.163650,9810,0.122844,0.011772,-1.426550,-0.032972,-0.015639,0.973520
2011-09-26T15:13:54.173650,9820,0.236896,-0.040041,-1.408834,-0.031266,-0.016781,0.969690
2011-09-26T15:13:54.183650,9830,0.350949,-0.091854,-1.391118,-0.029559,-0.017922,0.965859
2011-09-26T15:13:54.193650,9840,0.295702,-0.099798,-1.384424,-0.029963,-0.014120,0.971575
2011-09-26T15:13:54.203650,9850,0.233695,-0.105990,-1.378169,-0.030451,-0.010120,0.977673
2011-09-26T15:13:54.213650,9860,0.171687,-0.112181,-1.371915,-0.030939,-0.006121,0.983771
2011-09-26T15:13:54.223650,9870,0.109679,-0.118373,-1.365660,-0.031427,-0.002121,0.989869
2011-09-26T15:13:54.233650,9880,0.047671,-0.124565,-1.359405,-0.031914,0.001879,0.995967
2011-09-26T15:13:54.243650,9890,-0.014337,-0.130756,-1.353151,-0.032402,0.005878,1.002064
2011-09-26T15:13:54.253650,9900,-0.076345,-0.136948,-1.346896,-0.032890,0.009878,1.008162
2011-09-26T15:13:54.263650,9910,-0.138352,-0.143140,-1.340642,-0.033378,0.013878,1.014260
2011-09-26T15:13:54.273650,9920,-0.200360,-0.149331,-1.334387,-0.033866,0.017877,1.020358
2011-09-26T15:13:54.283650,9930,-0.262368,-0.155523,-1.328133,-0.034354,0.021877,1.026456
2011-09-26T15:13:54.293650,9940,-0.324376,-0.161715,-1.321878,-0.034842,0.025877,1.032553
2011-09-26T15:13:54.303650,9950,-0.394513,-0.133826,-1.332940,-0.034042,0.023417,1.030349
2011-09-26T15:13:54.313650,9960,-0.464966,-0.104618,-1.344673,-0.033192,0.020707,1.027823
2011-09-26T15:13:54.323650,9970,-0.535418,-0.075409,-1.356406,-0.032343,0.017997,1.025297
2011-09-26T15:13:54.333650,9980,-0.605870,-0.046201,-1.368139,-0.031493,0.015287,1.022772
2011-09-26T15:13:54.343650,9990,-0.676322,-0.016992,-1.379872,-0.030644,0.012577,1.020246
2011-09-26T15:13:54.353650,10000,-0.746774,0.012216,-1.391605,-0.029794,0.009867,1.017720
2011-09-26T15:13:54.363650,10010,-0.817226,0.041424,-1.403337,-0.028944,0.007157,1.015194
2011-09-26T15:13:54.373650,10020,-0.887679,0.070633,-1.415070,-0.028095,0.004447,1.012668
2011-09-26T15:13:54.383650,10030,-0.958131,0.099841,-1.426803,-0.027245,0.001737,1.010142
2011-09-26T15:13:54.393650,10040,-1.028583,0.129050,-1.438536,-0.026395,-0.000973,1.007617
2011-09-26T15:13:54.403650,10050,-0.959765,0.126393,-1.441718,-0.027265,-0.005035,1.008061
2011-09-26T15:13:54.413650,10060,-0.885253,0.122433,-1.444549,-0.028205,-0.009152,1.008628
2011-09-26T15:13:54.423650,10070,-0.810741,0.118473,-1.447381,-0.029145,-0.013268,1.009194
2011-09-26T15:13:54.433650,10080,-0.736229,0.114513,-1.450213,-0.030085,-0.017385,1.009760
2011-09-26T15:13:54.443650,10090,-0.661716,0.110554,-1.453045,-0.031026,-0.021502,1.010327
2011-09-26T15:13:54.453650,10100,-0.587204,0.106594,-1.455877,-0.031966,-0.025619,1.010893
2011-09-26T15:13:54.463650,10110,-0.512692,0.102634,-1.458709,-0.032906,-0.029736,1.011459
2011-09-26T15:13:54.473650,10120,-0.438180,0.098674,-1.461541,-0.033846,-0.033853,1.012025
2011-09-26T15:13:54.483650,10130,-0.363668,0.094714,-1.464373,-0.034786,-0.037970,1.012592
2011-09-26T15:13:54.493650,10140,-0.289155,0.090755,-1.467205,-0.035726,-0.042087,1.013158
2011-09-26T15:13:54.503650,10150,-0.142767,0.105996,-1.466679,-0.034711,-0.039078,1.010694
2011-09-26T15:13:54.513650,10160,0.006780,0.122080,-1.466006,-0.033611,-0.035755,1.008097
2011-09-26T15:13:54.523650,10170,0.156327,0.138165,-1.465333,-0.032511,-0.032433,1.005500
2011-09-26T15:13:54.533650,10180,0.305874,0.154250,-1.464660,-0.031410,-0.029110,1.002903
2011-09-26T15:13:54.543650,10190,0.455421,0.170334,-1.463987,-0.030310,-0.025788,1.000306
2011-09-26T15:13:54.553650,10200,0.604968,0.186419,-1.463314,-0.029210,-0.022465,0.997709
2011-09-26T15:13:54.563650,10210,0.754515,0.202504,-1.462641,-0.028109,-0.019143,0.995113
2011-09-26T15:13:54.573650,10220,0.904062,0.218588,-1.461968,-0.027009,-0.015820,0.992516
2011-09-26T15:13:54.583650,10230,1.053609,0.234673,-1.461295,-0.025909,-0.012497,0.989919
2011-09-26T15:13:54.593650,10240,1.203156,0.250758,-1.460622,-0.024808,-0.009175,0.987322
2011-09-26T15:13:54.603650,10250,1.352703,0.266842,-1.459949,-0.023708,-0.005852,0.984725
2011-09-26T15:13:54.613650,10260,1.194839,0.236615,-1.464080,-0.023149,-0.000697,0.988204
2011-09-26T15:13:54.623650,10270,1.022697,0.204237,-1.468433,-0.022615,0.004543,0.991965
2011-09-26T15:13:54.633650,10280,0.850555,0.171859,-1.472787,-0.022082,0.009784,0.995726
2011-09-26T15:13:54.643650,10290,0.678413,0.139481,-1.477141,-0.021548,0.015024,0.999487
2011-09-26T15:13:54.653650,10300,0.506272,0.107103,-1.481495,-0.021014,0.020264,1.003248
2011-09-26T15:13:54.663650,10310,0.334130,0.074725,-1.485849,-0.020481,0.025505,1.007009
2011-09-26T15:13:54.673650,10320,0.161988,0.042347,-1.490203,-0.019947,0.030745,1.010770
2011-09-26T15:13:54.683650,10330,-0.010154,0.009968,-1.494557,-0.019413,0.035985,1.014532
2011-09-26T15:13:54.693650,10340,-0.182296,-0.022410,-1.498911,-0.018880,0.041226,1.018293
2011-09-26T15:13:54.703650,10350,-0.354438,-0.054788,-1.503265,-0.018346,0.046466,1.022054
2011-09-26T15:13:54.713650,10360,-0.486982,0.047224,-1.522448,-0.020193,0.043091,1.019749
2011-09-26T15:13:54.723650,10370,-0.617213,0.157084,-1.542498,-0.022179,0.039213,1.017089
2011-09-26T15:13:54.733650,10380,-0.747445,0.266945,-1.562547,-0.024165,0.035335,1.014430
2011-09-26T15:13:54.743650,10390,-0.877677,0.376805,-1.582597,-0.026151,0.031458,1.011770
2011-09-26T15:13:54.753650,10400,-1.007908,0.486665,-1.602646,-0.028137,0.027580,1.009111
2011-09-26T15:13:54.763650,10410,-1.138140,0.596525,-1.622696,-0.030123,0.023702,1.006451
2011-09-26T15:13:54.773650,10420,-1.268372,0.706385,-1.642745,-0.032109,0.019824,1.003792
2011-09-26T15:13:54.783650,10430,-1.398604,0.816246,-1.662795,-0.034094,0.015946,1.001132
2011-09-26T15:13:54.793650,10440,-1.528835,0.926106,-1.682845,-0.036080,0.012068,0.998473
2011-09-26T15:13:54.803650,10450,-1.659067,1.035966,-1.702894,-0.038066,0.008191,0.995813
2011-09-26T15:13:54.813650,10460,-1.789299,1.145826,-1.722944,-0.040052,0.004313,0.993154
2011-09-26T15:13:54.823650,10470,-1.783290,1.141824,-1.699564,-0.040013,0.001667,0.994193
2011-09-26T15:13:54.833650,10480,-1.770998,1.132569,-1.674180,-0.039879,-0.000922,0.995403
2011-09-26T15:13:54.843650,10490,-1.758705,1.123315,-1.648797,-0.039746,-0.003510,0.996612
2011-09-26T15:13:54.853650,10500,-1.746413,1.114061,-1.623414,-0.039613,-0.006099,0.997822
2011-09-26T15:13:54.863650,10510,-1.734121,1.104806,-1.598031,-0.039480,-0.008688,0.999032
2011-09-26T15:13:54.873650,10520,-1.721828,1.095552,-1.572647,-0.039347,-0.011276,1.000241
2011-09-26T15:13:54.883650,10530,-1.709536,1.086297,-1.547264,-0.039213,-0.013865,1.001451
2011-09-26T15:13:54.893650,10540,-1.697243,1.077043,-1.521881,-0.039080,-0.016454,1.002661
2011-09-26T15:13:54.903650,10550,-1.684951,1.067789,-1.496498,-0.038947,-0.019043,1.003871
2011-09-26T15:13:54.913650,10560,-1.672658,1.058534,-1.471114,-0.038814,-0.021631,1.005080
2011-09-26T15:13:54.923650,10570,-1.409469,1.027778,-1.465274,-0.039595,-0.020598,1.005639
2011-09-26T15:13:54.933650,10580,-1.135935,0.996134,-1.460239,-0.040415,-0.019415,1.006171
2011-09-26T15:13:54.943650,10590,-0.862400,0.964491,-1.455204,-0.041234,-0.018232,1.006703
2011-09-26T15:13:54.953650,10600,-0.588866,0.932848,-1.450169,-0.042053,-0.017049,1.007235
2011-09-26T15:13:54.963650,10610,-0.315332,0.901205,-1.445134,-0.042872,-0.015866,1.007767
2011-09-26T15:13:54.973650,10620,-0.041797,0.869561,-1.440099,-0.043691,-0.014684,1.008299
2011-09-26T15:13:54.983650,10630,0.231737,0.837918,-1.435065,-0.044510,-0.013501,1.008831
2011-09-26T15:13:54.993650,10640,0.505271,0.806275,-1.430030,-0.045330,-0.012318,1.009363
2011-09-26T15:13:55.003650,10650,0.778806,0.774631,-1.424995,-0.046149,-0.011135,1.009895
2011-09-26T15:13:55.013650,10660,1.052340,0.742988,-1.419960,-0.046968,-0.009952,1.010427
2011-09-26T15:13:55.023650,10670,1.142937,0.703218,-1.424779,-0.045968,-0.008468,1.006329
2011-09-26T15:13:55.033650,10680,1.225560,0.663093,-1.430027,-0.044890,-0.006972,1.002030
2011-09-26T15:13:55.043650,10690,1.308182,0.622968,-1.435276,-0.043811,-0.005475,0.997730
2011-09-26T15:13:55.053650,10700,1.390804,0.582843,-1.440524,-0.042732,-0.003978,0.993430
2011-09-26T15:13:55.063650,10710,1.473427,0.542719,-1.445773,-0.041653,-0.002481,0.989131
2011-09-26T15:13:55.073650,10720,1.556049,0.502594,-1.451021,-0.040575,-0.000984,0.984831
2011-09-26T15:13:55.083650,10730,1.638671,0.462469,-1.456270,-0.039496,0.000513,0.980531
2011-09-26T15:13:55.093650,10740,1.721294,0.422344,-1.461518,-0.038417,0.002010,0.976231
2011-09-26T15:13:55.103650,10750,1.803916,0.382220,-1.466767,-0.037338,0.003507,0.971932
2011-09-26T15:13:55.113650,10760,1.886538,0.342095,-1.472015,-0.036260,0.005004,0.967632
2011-09-26T15:13:55.123650,10770,1.824395,0.210626,-1.500483,-0.036957,0.006006,0.969045
2011-09-26T15:13:55.133650,10780,1.754362,0.074179,-1.530216,-0.037750,0.006981,0.970770
2011-09-26T15:13:55.143650,10790,1.684329,-0.062267,-1.559949,-0.038544,0.007956,0.972495
2011-09-26T15:13:55.153650,10800,1.614295,-0.198714,-1.589682,-0.039338,0.008932,0.974219
2011-09-26T15:13:55.163650,10810,1.544262,-0.335161,-1.619415,-0.040132,0.009907,0.975944
2011-09-26T15:13:55.173650,10820,1.474229,-0.471608,-1.649148,-0.040925,0.010882,0.977669
2011-09-26T15:13:55.183650,10830,1.404196,-0.608055,-1.678881,-0.041719,0.011858,0.979394
2011-09-26T15:13:55.193650,10840,1.334163,-0.744502,-1.708614,-0.042513,0.012833,0.981118
2011-09-26T15:13:55.203650,10850,1.264129,-0.880949,-1.738347,-0.043306,0.013808,0.982843
2011-09-26T15:13:55.213650,10860,1.194096,-1.017396,-1.768080,-0.044100,0.014784,0.984568
2011-09-26T15:13:55.223650,10870,1.124063,-1.153843,-1.797813,-0.044894,0.015759,0.986292
2011-09-26T15:13:55.233650,10880,0.946051,-1.144122,-1.777042,-0.043003,0.016422,0.987295
2011-09-26T15:13:55.243650,10890,0.762584,-1.127016,-1.753719,-0.040977,0.017069,0.988262
2011-09-26T15:13:55.253650,10900,0.579117,-1.109910,-1.730397,-0.038950,0.017717,0.989228
2011-09-26T15:13:55.263650,10910,0.395650,-1.092804,-1.707074,-0.036924,0.018364,0.990194
2011-09-26T15:13:55.273650,10920,0.212183,-1.075698,-1.683752,-0.034897,0.019011,0.991161
2011-09-26T15:13:55.283650,10930,0.028716,-1.058592,-1.660429,-0.032871,0.019658,0.992127
2011-09-26T15:13:55.293650,10940,-0.154751,-1.041486,-1.637107,-0.030844,0.020306,0.993093
2011-09-26T15:13:55.303650,10950,-0.338218,-1.024380,-1.613784,-0.028818,0.020953,0.994060
2011-09-26T15:13:55.313650,10960,-0.521685,-1.007274,-1.590461,-0.026791,0.021600,0.995026
2011-09-26T15:13:55.323650,10970,-0.705152,-0.990168,-1.567139,-0.024765,0.022248,0.995993
2011-09-26T15:13:55.333650,10980,-0.811501,-0.937831,-1.570841,-0.024561,0.020312,0.996309
2011-09-26T15:13:55.343650,10990,-0.914631,-0.884023,-1.575671,-0.024433,0.018269,0.996599
2011-09-26T15:13:55.353650,11000,-1.017761,-0.830216,-1.580501,-0.024305,0.016226,0.996889
2011-09-26T15:13:55.363650,11010,-1.120892,-0.776408,-1.585331,-0.024177,0.014183,0.997178
2011-09-26T15:13:55.373650,11020,-1.224022,-0.722600,-1.590161,-0.024049,0.012140,0.997468
2011-09-26T15:13:55.383650,11030,-1.327152,-0.668793,-1.594991,-0.023921,0.010097,0.997757
2011-09-26T15:13:55.393650,11040,-1.430283,-0.614985,-1.599821,-0.023793,0.008054,0.998047
2011-09-26T15:13:55.403650,11050,-1.533413,-0.561178,-1.604651,-0.023665,0.006011,0.998337
2011-09-26T15:13:55.413650,11060,-1.636543,-0.507370,-1.609481,-0.023537,0.003968,0.998626
2011-09-26T15:13:55.423650,11070,-1.739673,-0.453563,-1.614311,-0.023409,0.001925,0.998916
2011-09-26T15:13:55.433650,11080,-1.622683,-0.375883,-1.618460,-0.024194,-0.003312,1.001614
2011-09-26T15:13:55.443650,11090,-1.495809,-0.297132,-1.622578,-0.025021,-0.008692,1.004421
2011-09-26T15:13:55.453650,11100,-1.368936,-0.218381,-1.626697,-0.025848,-0.014073,1.007227
2011-09-26T15:13:55.463650,11110,-1.242062,-0.139630,-1.630815,-0.026674,-0.019453,1.010034
2011-09-26T15:13:55.473650,11120,-1.115189,-0.060879,-1.634934,-0.027501,-0.024834,1.012840
2011-09-26T15:13:55.483650,11130,-0.988315,0.017872,-1.639052,-0.028327,-0.030214,1.015646
2011-09-26T15:13:55.493650,11140,-0.861442,0.096623,-1.643170,-0.029154,-0.035595,1.018453
2011-09-26T15:13:55.503650,11150,-0.734568,0.175374,-1.647289,-0.029981,-0.040975,1.021259
2011-09-26T15:13:55.513650,11160,-0.607695,0.254125,-1.651407,-0.030807,-0.046356,1.024066
2011-09-26T15:13:55.523650,11170,-0.480821,0.332876,-1.655526,-0.031634,-0.051737,1.026872
2011-09-26T15:13:55.533650,11180,-0.353948,0.411627,-1.659644,-0.032460,-0.057117,1.029679
2011-09-26T15:13:55.543650,11190,-0.262024,0.467439,-1.644938,-0.032711,-0.053922,1.027696
2011-09-26T15:13:55.553650,11200,-0.171762,0.522160,-1.629337,-0.032934,-0.050319,1.025486
2011-09-26T15:13:55.563650,11210,-0.081501,0.576881,-1.613736,-0.033157,-0.046716,1.023276
2011-09-26T15:13:55.573650,11220,0.008761,0.631602,-1.598135,-0.033380,-0.043113,1.021067
2011-09-26T15:13:55.583650,11230,0.099023,0.686323,-1.582534,-0.033603,-0.039510,1.018857
2011-09-26T15:13:55.593650,11240,0.189285,0.741044,-1.566934,-0.033826,-0.035907,1.016647
2011-09-26T15:13:55.603650,11250,0.279547,0.795766,-1.551333,-0.034050,-0.032305,1.014437
2011-09-26T15:13:55.613650,11260,0.369809,0.850487,-1.535732,-0.034273,-0.028702,1.012227
2011-09-26T15:13:55.623650,11270,0.460070,0.905208,-1.520131,-0.034496,-0.025099,1.010017
2011-09-26T15:13:55.633650,11280,0.550332,0.959929,-1.504530,-0.034719,-0.021496,1.007807
2011-09-26T15:13:55.643650,11290,0.533371,0.954973,-1.534792,-0.035040,-0.016243,1.005931
2011-09-26T15:13:55.653650,11300,0.509032,0.945910,-1.568209,-0.035368,-0.010877,1.004078
2011-09-26T15:13:55.663650,11310,0.484693,0.936847,-1.601627,-0.035696,-0.005511,1.002225
2011-09-26T15:13:55.673650,11320,0.460354,0.927785,-1.635044,-0.036024,-0.000144,1.000373
2011-09-26T15:13:55.683650,11330,0.436015,0.918722,-1.668462,-0.036352,0.005222,0.998520
2011-09-26T15:13:55.693650,11340,0.411675,0.909659,-1.701879,-0.036679,0.010588,0.996667
2011-09-26T15:13:55.703650,11350,0.387336,0.900597,-1.735297,-0.037007,0.015954,0.994814
2011-09-26T15:13:55.713650,11360,0.362997,0.891534,-1.768714,-0.037335,0.021321,0.992961
2011-09-26T15:13:55.723650,11370,0.338658,0.882471,-1.802132,-0.037663,0.026687,0.991108
2011-09-26T15:13:55.733650,11380,0.314319,0.873409,-1.835550,-0.037991,0.032053,0.989256
2011-09-26T15:13:55.743650,11390,0.289980,0.864346,-1.868967,-0.038319,0.037420,0.987403
2011-09-26T15:13:55.753650,11400,0.190209,0.824175,-1.890383,-0.037976,0.035797,0.984555
2011-09-26T15:13:55.763650,11410,0.086812,0.782508,-1.911222,-0.037600,0.033838,0.981660
2011-09-26T15:13:55.773650,11420,-0.016585,0.740841,-1.932061,-0.037225,0.031880,0.978764
2011-09-26T15:13:55.783650,11430,-0.119982,0.699174,-1.952900,-0.036849,0.029921,0.975869
2011-09-26T15:13:55.793650,11440,-0.223379,0.657507,-1.973739,-0.036474,0.027962,0.972973
2011-09-26T15:13:55.803650,11450,-0.326777,0.615840,-1.994578,-0.036099,0.026004,0.970078
2011-09-26T15:13:55.813650,11460,-0.430174,0.574173,-2.015417,-0.035723,0.024045,0.967182
2011-09-26T15:13:55.823650,11470,-0.533571,0.532506,-2.036256,-0.035348,0.022086,0.964287
2011-09-26T15:13:55.833650,11480,-0.636968,0.490839,-2.057096,-0.034972,0.020128,0.961391
2011-09-26T15:13:55.843650,11490,-0.740365,0.449172,-2.077935,-0.034597,0.018169,0.958496
2011-09-26T15:13:55.853650,11500,-0.709429,0.341945,-2.084907,-0.035662,0.012971,0.959845
2011-09-26T15:13:55.863650,11510,-0.671828,0.231465,-2.091192,-0.036798,0.007612,0.961405
2011-09-26T15:13:55.873650,11520,-0.634227,0.120986,-2.097476,-0.037935,0.002253,0.962964
2011-09-26T15:13:55.883650,11530,-0.596626,0.010507,-2.103761,-0.039071,-0.003106,0.964524
2011-09-26T15:13:55.893650,11540,-0.559026,-0.099973,-2.110046,-0.040208,-0.008465,0.966084
2011-09-26T15:13:55.903650,11550,-0.521425,-0.210452,-2.116330,-0.041345,-0.013824,0.967643
2011-09-26T15:13:55.913650,11560,-0.483824,-0.320932,-2.122615,-0.042481,-0.019183,0.969203
2011-09-26T15:13:55.923650,11570,-0.446223,-0.431411,-2.128900,-0.043618,-0.024542,0.970763
2011-09-26T15:13:55.933650,11580,-0.408622,-0.541891,-2.135184,-0.044754,-0.029901,0.972322
2011-09-26T15:13:55.943650,11590,-0.371021,-0.652370,-2.141469,-0.045891,-0.035260,0.973882
2011-09-26T15:13:55.953650,11600,-0.274117,-0.708362,-2.127301,-0.044784,-0.032859,0.978858
2011-09-26T15:13:55.963650,11610,-0.174671,-0.762020,-2.112257,-0.043582,-0.030125,0.983981
2011-09-26T15:13:55.973650,11620,-0.075226,-0.815677,-2.097212,-0.042380,-0.027392,0.989104
2011-09-26T15:13:55.983650,11630,0.024220,-0.869334,-2.082168,-0.041177,-0.024658,0.994227
2011-09-26T15:13:55.993650,11640,0.123666,-0.922992,-2.067123,-0.039975,-0.021925,0.999350
2011-09-26T15:13:56.003650,11650,0.223111,-0.976649,-2.052079,-0.038773,-0.019191,1.004473
2011-09-26T15:13:56.013650,11660,0.322557,-1.030307,-2.037035,-0.037570,-0.016458,1.009596
2011-09-26T15:13:56.023650,11670,0.422003,-1.083964,-2.021990,-0.036368,-0.013725,1.014719
2011-09-26T15:13:56.033650,11680,0.521448,-1.137622,-2.006946,-0.035166,-0.010991,1.019842
2011-09-26T15:13:56.043650,11690,0.620894,-1.191279,-1.991902,-0.033963,-0.008258,1.024965
2011-09-26T15:13:56.053650,11700,0.720339,-1.244936,-1.976857,-0.032761,-0.005524,1.030088
2011-09-26T15:13:56.063650,11710,0.822775,-1.236190,-1.994490,-0.031574,-0.006229,1.028665
2011-09-26T15:13:56.073650,11720,0.925360,-1.224305,-2.013766,-0.030388,-0.007106,1.026912
2011-09-26T15:13:56.083650,11730,1.027946,-1.212421,-2.033042,-0.029201,-0.007984,1.025160
2011-09-26T15:13:56.093650,11740,1.130531,-1.200536,-2.052318,-0.028015,-0.008861,1.023407
2011-09-26T15:13:56.103650,11750,1.233117,-1.188652,-2.071594,-0.026829,-0.009738,1.021655
2011-09-26T15:13:56.113650,11760,1.335703,-1.176767,-2.090870,-0.025643,-0.010616,1.019902
2011-09-26T15:13:56.123650,11770,1.438288,-1.164883,-2.110146,-0.024456,-0.011493,1.018150
2011-09-26T15:13:56.133650,11780,1.540874,-1.152998,-2.129422,-0.023270,-0.012371,1.016398
2011-09-26T15:13:56.143650,11790,1.643460,-1.141114,-2.148698,-0.022084,-0.013248,1.014645
2011-09-26T15:13:56.153650,11800,1.746045,-1.129230,-2.167974,-0.020898,-0.014125,1.012893
2011-09-26T15:13:56.163650,11810,1.530193,-0.986846,-2.180375,-0.020132,-0.011643,1.010886
2011-09-26T15:13:56.173650,11820,1.295805,-0.836866,-2.192376,-0.019392,-0.008965,1.008865
2011-09-26T15:13:56.183650,11830,1.061417,-0.686887,-2.204378,-0.018651,-0.006288,1.006843
2011-09-26T15:13:56.193650,11840,0.827029,-0.536908,-2.216379,-0.017910,-0.003610,1.004822
2011-09-26T15:13:56.203650,11850,0.592641,-0.386928,-2.228380,-0.017170,-0.000932,1.002801
2011-09-26T15:13:56.213650,11860,0.358254,-0.236949,-2.240381,-0.016429,0.001746,1.000779
2011-09-26T15:13:56.223650,11870,0.123866,-0.086969,-2.252382,-0.015688,0.004423,0.998758
2011-09-26T15:13:56.233650,11880,-0.110522,0.063010,-2.264384,-0.014948,0.007101,0.996736
2011-09-26T15:13:56.243650,11890,-0.344910,0.212990,-2.276385,-0.014207,0.009779,0.994715
2011-09-26T15:13:56.253650,11900,-0.579297,0.362969,-2.288386,-0.013466,0.012457,0.992694
2011-09-26T15:13:56.263650,11910,-0.502789,0.429119,-2.307019,-0.013935,0.008557,0.994338
2011-09-26T15:13:56.273650,11920,-0.411025,0.491156,-2.325977,-0.014464,0.004335,0.996161
2011-09-26T15:13:56.283650,11930,-0.319260,0.553192,-2.344936,-0.014993,0.000113,0.997985
2011-09-26T15:13:56.293650,11940,-0.227496,0.615228,-2.363894,-0.015521,-0.004109,0.999808
2011-09-26T15:13:56.303650,11950,-0.135731,0.677265,-2.382852,-0.016050,-0.008331,1.001632
2011-09-26T15:13:56.313650,11960,-0.043966,0.739301,-2.401811,-0.016578,-0.012554,1.003456
2011-09-26T15:13:56.323650,11970,0.047798,0.801337,-2.420769,-0.017107,-0.016776,1.005279
2011-09-26T15:13:56.333650,11980,0.139563,0.863373,-2.439727,-0.017635,-0.020998,1.007103
2011-09-26T15:13:56.343650,11990,0.231327,0.925410,-2.458686,-0.018164,-0.025220,1.008927
2011-09-26T15:13:56.353650,12000,0.323092,0.987446,-2.477644,-0.018692,-0.029442,1.010750
2011-09-26T15:13:56.363650,12010,0.414856,1.049482,-2.496602,-0.019221,-0.033665,1.012574
2011-09-26T15:13:56.373650,12020,0.356814,1.039944,-2.507140,-0.019857,-0.029323,1.014258
2011-09-26T15:13:56.383650,12030,0.291154,1.026766,-2.517249,-0.020498,-0.024547,1.015934
2011-09-26T15:13:56.393650,12040,0.225494,1.013588,-2.527359,-0.021140,-0.019770,1.017611
2011-09-26T15:13:56.403650,12050,0.159834,1.000410,-2.537468,-0.021781,-0.014994,1.019287
2011-09-26T15:13:56.413650,12060,0.094174,0.987232,-2.547577,-0.022423,-0.010217,1.020964
2011-09-26T15:13:56.423650,12070,0.028514,0.974054,-2.557687,-0.023064,-0.005440,1.022640
2011-09-26T15:13:56.433650,12080,-0.037145,0.960876,-2.567796,-0.023705,-0.000664,1.024317
2011-09-26T15:13:56.443650,12090,-0.102805,0.947698,-2.577906,-0.024347,0.004113,1.025994
2011-09-26T15:13:56.453650,12100,-0.168465,0.934520,-2.588015,-0.024988,0.008889,1.027670
2011-09-26T15:13:56.463650,12110,-0.234125,0.921343,-2.598124,-0.025630,0.013666,1.029347
2011-09-26T15:13:56.473650,12120,-0.246048,0.894897,-2.630000,-0.026765,0.010508,1.026941
2011-09-26T15:13:56.483650,12130,-0.255417,0.867820,-2.662910,-0.027923,0.006974,1.024340
2011-09-26T15:13:56.493650,12140,-0.264785,0.840744,-2.695820,-0.029082,0.003439,1.021740
2011-09-26T15:13:56.503650,12150,-0.274153,0.813668,-2.728730,-0.030240,-0.000096,1.019140
2011-09-26T15:13:56.513650,12160,-0.283521,0.786591,-2.761640,-0.031399,-0.003631,1.016540
2011-09-26T15:13:56.523650,12170,-0.292890,0.759515,-2.794550,-0.032557,-0.007165,1.013940
2011-09-26T15:13:56.533650,12180,-0.302258,0.732438,-2.827460,-0.033716,-0.010700,1.011339
2011-09-26T15:13:56.543650,12190,-0.311626,0.705362,-2.860370,-0.034874,-0.014235,1.008739
2011-09-26T15:13:56.553650,12200,-0.320994,0.678285,-2.893280,-0.036033,-0.017770,1.006139
2011-09-26T15:13:56.563650,12210,-0.330363,0.651209,-2.926190,-0.037191,-0.021304,1.003539
2011-09-26T15:13:56.573650,12220,-0.371173,0.581986,-2.897927,-0.037552,-0.019537,0.996949
2011-09-26T15:13:56.583650,12230,-0.413604,0.510592,-2.866512,-0.037871,-0.017496,0.990153
2011-09-26T15:13:56.593650,12240,-0.456034,0.439197,-2.835097,-0.038190,-0.015455,0.983358
2011-09-26T15:13:56.603650,12250,-0.498465,0.367803,-2.803682,-0.038509,-0.013415,0.976562
2011-09-26T15:13:56.613650,12260,-0.540895,0.296409,-2.772267,-0.038828,-0.011374,0.969767
2011-09-26T15:13:56.623650,12270,-0.583326,0.225014,-2.740852,-0.039148,-0.009333,0.962971
2011-09-26T15:13:56.633650,12280,-0.625756,0.153620,-2.709437,-0.039467,-0.007292,0.956175
2011-09-26T15:13:56.643650,12290,-0.668187,0.082225,-2.678022,-0.039786,-0.005252,0.949380
2011-09-26T15:13:56.653650,12300,-0.710617,0.010831,-2.646607,-0.040105,-0.003211,0.942584
2011-09-26T15:13:56.663650,12310,-0.753048,-0.060563,-2.615192,-0.040424,-0.001170,0.935789
2011-09-26T15:13:56.673650,12320,-0.795478,-0.131958,-2.583777,-0.040743,0.000871,0.928993
2011-09-26T15:13:56.683650,12330,-0.645114,-0.294971,-2.608120,-0.041157,-0.002836,0.934613
2011-09-26T15:13:56.693650,12340,-0.484048,-0.463069,-2.635557,-0.041576,-0.006862,0.940921
2011-09-26T15:13:56.703650,12350,-0.322982,-0.631168,-2.662995,-0.041996,-0.010889,0.947229
2011-09-26T15:13:56.713650,12360,-0.161916,-0.799267,-2.690433,-0.042415,-0.014915,0.953538
2011-09-26T15:13:56.723650,12370,-0.000850,-0.967365,-2.717870,-0.042834,-0.018941,0.959846
2011-09-26T15:13:56.733650,12380,0.160216,-1.135464,-2.745308,-0.043253,-0.022967,0.966155
2011-09-26T15:13:56.743650,12390,0.321282,-1.303563,-2.772746,-0.043672,-0.026993,0.972463
2011-09-26T15:13:56.753650,12400,0.482347,-1.471661,-2.800183,-0.044092,-0.031019,0.978772
2011-09-26T15:13:56.763650,12410,0.643413,-1.639760,-2.827621,-0.044511,-0.035045,0.985080
2011-09-26T15:13:56.773650,12420,0.804479,-1.807858,-2.855058,-0.044930,-0.039071,0.991389
2011-09-26T15:13:56.783650,12430,0.866088,-1.785901,-2.863306,-0.043542,-0.037094,0.995659
2011-09-26T15:13:56.793650,12440,0.922301,-1.753631,-2.870512,-0.042056,-0.034792,0.999819
2011-09-26T15:13:56.803650,12450,0.978514,-1.721362,-2.877718,-0.040570,-0.032489,1.003979
2011-09-26T15:13:56.813650,12460,1.034726,-1.689092,-2.884924,-0.039084,-0.030187,1.008139
2011-09-26T15:13:56.823650,12470,1.090939,-1.656823,-2.892130,-0.037597,-0.027884,1.012299
2011-09-26T15:13:56.833650,12480,1.147152,-1.624553,-2.899336,-0.036111,-0.025582,1.016459
2011-09-26T15:13:56.843650,12490,1.203364,-1.592283,-2.906542,-0.034625,-0.023279,1.020620
2011-09-26T15:13:56.853650,12500,1.259577,-1.560014,-2.913749,-0.033139,-0.020977,1.024780
2011-09-26T15:13:56.863650,12510,1.315790,-1.527744,-2.920955,-0.031653,-0.018674,1.028940
2011-09-26T15:13:56.873650,12520,1.372003,-1.495475,-2.928161,-0.030167,-0.016371,1.033100
2011-09-26T15:13:56.883650,12530,1.315469,-1.419067,-2.937696,-0.029752,-0.011230,1.034471
2011-09-26T15:13:56.893650,12540,1.252929,-1.340308,-2.947356,-0.029395,-0.005938,1.035695
2011-09-26T15:13:56.903650,12550,1.190388,-1.261549,-2.957015,-0.029037,-0.000645,1.036918
2011-09-26T15:13:56.913650,12560,1.127847,-1.182790,-2.966674,-0.028680,0.004647,1.038141
2011-09-26T15:13:56.923650,12570,1.065307,-1.104031,-2.976334,-0.028322,0.009940,1.039364
2011-09-26T15:13:56.933650,12580,1.002766,-1.025272,-2.985993,-0.027965,0.015232,1.040587
2011-09-26T15:13:56.943650,12590,0.940225,-0.946513,-2.995653,-0.027607,0.020524,1.041810
2011-09-26T15:13:56.953650,12600,0.877685,-0.867754,-3.005312,-0.027250,0.025817,1.043033
2011-09-26T15:13:56.963650,12610,0.815144,-0.788995,-3.014971,-0.026892,0.031109,1.044256
2011-09-26T15:13:56.973650,12620,0.752603,-0.710236,-3.024631,-0.026535,0.036402,1.045479
2011-09-26T15:13:56.983650,12630,0.690063,-0.631477,-3.034290,-0.026177,0.041694,1.046702
2011-09-26T15:13:56.993650,12640,0.528440,-0.548989,-3.032010,-0.025563,0.037984,1.042747
2011-09-26T15:13:57.003650,12650,0.361395,-0.466298,-3.029077,-0.024934,0.033782,1.038509
2011-09-26T15:13:57.013650,12660,0.194350,-0.383606,-3.026143,-0.024305,0.029580,1.034271
2011-09-26T15:13:57.023650,12670,0.027305,-0.300914,-3.023210,-0.023677,0.025377,1.030033
2011-09-26T15:13:57.033650,12680,-0.139740,-0.218222,-3.020277,-0.023048,0.021175,1.025795
2011-09-26T15:13:57.043650,12690,-0.306785,-0.135531,-3.017344,-0.022419,0.016972,1.021556
2011-09-26T15:13:57.053650,12700,-0.473830,-0.052839,-3.014410,-0.021790,0.012770,1.017318
2011-09-26T15:13:57.063650,12710,-0.640875,0.029853,-3.011477,-0.021162,0.008568,1.013080
2011-09-26T15:13:57.073650,12720,-0.807920,0.112545,-3.008544,-0.020533,0.004365,1.008842
2011-09-26T15:13:57.083650,12730,-0.974965,0.195236,-3.005610,-0.019904,0.000163,1.004603
2011-09-26T15:13:57.093650,12740,-1.091494,0.251268,-2.997633,-0.020971,-0.002189,1.005060
2011-09-26T15:13:57.103650,12750,-1.205190,0.305805,-2.989373,-0.022133,-0.004436,1.005780
2011-09-26T15:13:57.113650,12760,-1.318886,0.360341,-2.981113,-0.023294,-0.006684,1.006500
2011-09-26T15:13:57.123650,12770,-1.432582,0.414878,-2.972852,-0.024456,-0.008932,1.007220
2011-09-26T15:13:57.133650,12780,-1.546278,0.469414,-2.964592,-0.025618,-0.011179,1.007940
2011-09-26T15:13:57.143650,12790,-1.659974,0.523951,-2.956332,-0.026780,-0.013427,1.008660
2011-09-26T15:13:57.153650,12800,-1.773670,0.578488,-2.948072,-0.027942,-0.015674,1.009380
2011-09-26T15:13:57.163650,12810,-1.887366,0.633024,-2.939812,-0.029103,-0.017922,1.010100
2011-09-26T15:13:57.173650,12820,-2.001062,0.687561,-2.931552,-0.030265,-0.020170,1.010820
2011-09-26T15:13:57.183650,12830,-2.114758,0.742097,-2.923292,-0.031427,-0.022417,1.011540
2011-09-26T15:13:57.193650,12840,-2.228454,0.796634,-2.915031,-0.032589,-0.024665,1.012260
2011-09-26T15:13:57.203650,12850,-2.125569,0.788338,-2.884919,-0.032656,-0.027275,1.011430
2011-09-26T15:13:57.213650,12860,-2.009864,0.776322,-2.853514,-0.032658,-0.029907,1.010508
2011-09-26T15:13:57.223650,12870,-1.894159,0.764307,-2.822108,-0.032661,-0.032539,1.009586
2011-09-26T15:13:57.233650,12880,-1.778454,0.752291,-2.790703,-0.032663,-0.035171,1.008664
2011-09-26T15:13:57.243650,12890,-1.662749,0.740276,-2.759297,-0.032665,-0.037803,1.007742
2011-09-26T15:13:57.253650,12900,-1.547044,0.728260,-2.727891,-0.032668,-0.040435,1.006820
2011-09-26T15:13:57.263650,12910,-1.431339,0.716245,-2.696486,-0.032670,-0.043067,1.005898
2011-09-26T15:13:57.273650,12920,-1.315634,0.704229,-2.665080,-0.032672,-0.045699,1.004976
2011-09-26T15:13:57.283650,12930,-1.199929,0.692214,-2.633675,-0.032675,-0.048331,1.004054
2011-09-26T15:13:57.293650,12940,-1.084224,0.680199,-2.602269,-0.032677,-0.050964,1.003132
2011-09-26T15:13:57.303650,12950,-0.845649,0.665991,-2.608349,-0.032899,-0.047860,1.006390
2011-09-26T15:13:57.313650,12960,-0.600501,0.651666,-2.616434,-0.033132,-0.044450,1.009872
2011-09-26T15:13:57.323650,12970,-0.355353,0.637341,-2.624519,-0.033366,-0.041039,1.013354
2011-09-26T15:13:57.333650,12980,-0.110204,0.623016,-2.632605,-0.033599,-0.037629,1.016836
2011-09-26T15:13:57.343650,12990,0.134944,0.608692,-2.640690,-0.033833,-0.034218,1.020317
2011-09-26T15:13:57.353650,13000,0.380092,0.594367,-2.648775,-0.034066,-0.030808,1.023799
2011-09-26T15:13:57.363650,13010,0.625241,0.580042,-2.656861,-0.034300,-0.027398,1.027281
2011-09-26T15:13:57.373650,13020,0.870389,0.565717,-2.664946,-0.034533,-0.023987,1.030763
2011-09-26T15:13:57.383650,13030,1.115537,0.551392,-2.673031,-0.034767,-0.020577,1.034245
2011-09-26T15:13:57.393650,13040,1.360685,0.537068,-2.681117,-0.035000,-0.017166,1.037727
2011-09-26T15:13:57.403650,13050,1.354957,0.564329,-2.700343,-0.034117,-0.015173,1.031689
2011-09-26T15:13:57.413650,13060,1.335024,0.593946,-2.720200,-0.033170,-0.013259,1.025113
2011-09-26T15:13:57.423650,13070,1.315090,0.623563,-2.740057,-0.032224,-0.011346,1.018537
2011-09-26T15:13:57.433650,13080,1.295156,0.653179,-2.759914,-0.031277,-0.009432,1.011960
2011-09-26T15:13:57.443650,13090,1.275223,0.682796,-2.779771,-0.030331,-0.007519,1.005384
2011-09-26T15:13:57.453650,13100,1.255289,0.712412,-2.799628,-0.029384,-0.005605,0.998807
2011-09-26T15:13:57.463650,13110,1.235356,0.742029,-2.819485,-0.028437,-0.003692,0.992231
2011-09-26T15:13:57.473650,13120,1.215422,0.771646,-2.839343,-0.027491,-0.001778,0.985655
2011-09-26T15:13:57.483650,13130,1.195488,0.801262,-2.859200,-0.026544,0.000135,0.979078
2011-09-26T15:13:57.493650,13140,1.175555,0.830879,-2.879057,-0.025598,0.002049,0.972502
2011-09-26T15:13:57.503650,13150,1.155621,0.860496,-2.898914,-0.024651,0.003962,0.965925
2011-09-26T15:13:57.513650,13160,1.034722,0.760624,-2.895567,-0.026572,0.005151,0.967094
2011-09-26T15:13:57.523650,13170,0.907176,0.652228,-2.890692,-0.028683,0.006292,0.968773
2011-09-26T15:13:57.533650,13180,0.779630,0.543832,-2.885818,-0.030793,0.007433,0.970452
2011-09-26T15:13:57.543650,13190,0.652084,0.435436,-2.880943,-0.032903,0.008574,0.972130
2011-09-26T15:13:57.553650,13200,0.524538,0.327041,-2.876068,-0.035013,0.009716,0.973809
2011-09-26T15:13:57.563650,13210,0.396992,0.218645,-2.871194,-0.037123,0.010857,0.975488
2011-09-26T15:13:57.573650,13220,0.269446,0.110249,-2.866319,-0.039233,0.011998,0.977166
2011-09-26T15:13:57.583650,13230,0.141900,0.001853,-2.861444,-0.041344,0.013139,0.978845
2011-09-26T15:13:57.593650,13240,0.014354,-0.106543,-2.856570,-0.043454,0.014280,0.980524
2011-09-26T15:13:57.603650,13250,-0.113192,-0.214939,-2.851695,-0.045564,0.015421,0.982203
2011-09-26T15:13:57.613650,13260,-0.337091,-0.224894,-2.832953,-0.045957,0.014716,0.983400
2011-09-26T15:13:57.623650,13270,-0.566609,-0.229109,-2.813403,-0.046250,0.013903,0.984570
2011-09-26T15:13:57.633650,13280,-0.796127,-0.233324,-2.793852,-0.046543,0.013090,0.985740
2011-09-26T15:13:57.643650,13290,-1.025646,-0.237538,-2.774302,-0.046836,0.012277,0.986910
2011-09-26T15:13:57.653650,13300,-1.255164,-0.241753,-2.754751,-0.047130,0.011463,0.988080
2011-09-26T15:13:57.663650,13310,-1.484682,-0.245967,-2.735201,-0.047423,0.010650,0.989250
2011-09-26T15:13:57.673650,13320,-1.714201,-0.250182,-2.715650,-0.047716,0.009837,0.990419
2011-09-26T15:13:57.683650,13330,-1.943719,-0.254397,-2.696100,-0.048009,0.009024,0.991589
2011-09-26T15:13:57.693650,13340,-2.173237,-0.258611,-2.676549,-0.048302,0.008211,0.992759
2011-09-26T15:13:57.703650,13350,-2.402756,-0.262826,-2.656999,-0.048595,0.007398,0.993929
2011-09-26T15:13:57.713650,13360,-2.336316,-0.257304,-2.666418,-0.047993,0.002846,0.995248
2011-09-26T15:13:57.723650,13370,-2.247058,-0.251031,-2.678071,-0.047321,-0.001994,0.996579
2011-09-26T15:13:57.733650,13380,-2.157800,-0.244758,-2.689724,-0.046650,-0.006835,0.997910
2011-09-26T15:13:57.743650,13390,-2.068542,-0.238485,-2.701377,-0.045978,-0.011675,0.999241
2011-09-26T15:13:57.753650,13400,-1.979284,-0.232212,-2.713029,-0.045307,-0.016515,1.000572
