pc_time,ts_ms,gyroX,gyroY,gyroZ,accelX,accelY,accelZ
2011-09-26T14:38:23.992105,0,1.491935,0.414871,-27.327821,-0.125488,-0.113574,0.985192
2011-09-26T14:38:24.002105,10,1.311034,0.433126,-27.425015,-0.124202,-0.119629,0.983880
2011-09-26T14:38:24.012105,20,1.130133,0.451380,-27.522209,-0.122916,-0.125683,0.982568
2011-09-26T14:38:24.022105,30,0.949232,0.469635,-27.619403,-0.121629,-0.131738,0.981256
2011-09-26T14:38:24.032105,40,0.768331,0.487889,-27.716597,-0.120343,-0.137792,0.979944
2011-09-26T14:38:24.042105,50,0.587430,0.506144,-27.813791,-0.119057,-0.143847,0.978632
2011-09-26T14:38:24.052105,60,0.406529,0.524398,-27.910985,-0.117771,-0.149901,0.977320
2011-09-26T14:38:24.062105,70,0.225629,0.542653,-28.008179,-0.116485,-0.155956,0.976008
2011-09-26T14:38:24.072105,80,0.044728,0.560908,-28.105373,-0.115199,-0.162011,0.974696
2011-09-26T14:38:24.082105,90,-0.136173,0.579162,-28.202567,-0.113912,-0.168065,0.973384
2011-09-26T14:38:24.092105,100,-0.317074,0.597417,-28.299761,-0.112626,-0.174120,0.972072
2011-09-26T14:38:24.102105,110,-0.266431,0.627074,-28.329629,-0.113632,-0.177154,0.974262
2011-09-26T14:38:24.112105,120,-0.215159,0.656761,-28.359314,-0.114645,-0.180181,0.976461
2011-09-26T14:38:24.122105,130,-0.163886,0.686449,-28.389000,-0.115658,-0.183207,0.978660
2011-09-26T14:38:24.132105,140,-0.112614,0.716137,-28.418685,-0.116670,-0.186233,0.980859
2011-09-26T14:38:24.142105,150,-0.061342,0.745824,-28.448371,-0.117683,-0.189260,0.983058
2011-09-26T14:38:24.152105,160,-0.010069,0.775512,-28.478056,-0.118695,-0.192286,0.985258
2011-09-26T14:38:24.162105,170,0.041203,0.805200,-28.507742,-0.119708,-0.195312,0.987457
2011-09-26T14:38:24.172105,180,0.092475,0.834887,-28.537427,-0.120720,-0.198339,0.989656
2011-09-26T14:38:24.182105,190,0.143748,0.864575,-28.567112,-0.121733,-0.201365,0.991855
2011-09-26T14:38:24.192105,200,0.195020,0.894263,-28.596798,-0.122745,-0.204391,0.994054
2011-09-26T14:38:24.202105,210,0.246492,0.924212,-28.626928,-0.123744,-0.207351,0.996255
2011-09-26T14:38:24.212105,220,0.315593,0.977241,-28.696342,-0.123567,-0.204383,0.998633
2011-09-26T14:38:24.222105,230,0.384693,1.030270,-28.765756,-0.123389,-0.201416,1.001010
2011-09-26T14:38:24.232105,240,0.453794,1.083298,-28.835169,-0.123212,-0.198449,1.003387
2011-09-26T14:38:24.242105,250,0.522894,1.136327,-28.904583,-0.123034,-0.195482,1.005765
2011-09-26T14:38:24.252105,260,0.591995,1.189356,-28.973997,-0.122857,-0.192515,1.008142
2011-09-26T14:38:24.262105,270,0.661095,1.242384,-29.043410,-0.122679,-0.189547,1.010519
2011-09-26T14:38:24.272105,280,0.730196,1.295413,-29.112824,-0.122501,-0.186580,1.012897
2011-09-26T14:38:24.282105,290,0.799296,1.348442,-29.182238,-0.122324,-0.183613,1.015274
2011-09-26T14:38:24.292105,300,0.868397,1.401470,-29.251651,-0.122146,-0.180646,1.017651
2011-09-26T14:38:24.302105,310,0.935631,1.454215,-29.321176,-0.121964,-0.177731,1.019954
2011-09-26T14:38:24.312105,320,0.873116,1.487254,-29.398417,-0.121483,-0.178480,1.017075
2011-09-26T14:38:24.322105,330,0.810601,1.520292,-29.475657,-0.121002,-0.179228,1.014195
2011-09-26T14:38:24.332105,340,0.748086,1.553331,-29.552898,-0.120521,-0.179977,1.011316
2011-09-26T14:38:24.342105,350,0.685571,1.586369,-29.630139,-0.120039,-0.180725,1.008436
2011-09-26T14:38:24.352105,360,0.623056,1.619407,-29.707380,-0.119558,-0.181474,1.005557
2011-09-26T14:38:24.362105,370,0.560541,1.652446,-29.784620,-0.119077,-0.182222,1.002678
2011-09-26T14:38:24.372105,380,0.498026,1.685484,-29.861861,-0.118596,-0.182971,0.999798
2011-09-26T14:38:24.382105,390,0.435511,1.718523,-29.939102,-0.118114,-0.183719,0.996919
2011-09-26T14:38:24.392105,400,0.372996,1.751561,-30.016343,-0.117633,-0.184468,0.994039
2011-09-26T14:38:24.402105,410,0.310481,1.784599,-30.093583,-0.117152,-0.185216,0.991160
2011-09-26T14:38:24.412105,420,0.248071,1.814874,-30.170785,-0.116625,-0.186009,0.988295
2011-09-26T14:38:24.422105,430,0.190892,1.708304,-30.246030,-0.113837,-0.188989,0.986174
2011-09-26T14:38:24.432105,440,0.133712,1.601734,-30.321275,-0.111049,-0.191969,0.984052
2011-09-26T14:38:24.442105,450,0.076532,1.495164,-30.396520,-0.108261,-0.194948,0.981931
2011-09-26T14:38:24.452105,460,0.019353,1.388594,-30.471766,-0.105474,-0.197928,0.979809
2011-09-26T14:38:24.462105,470,-0.037827,1.282024,-30.547011,-0.102686,-0.200908,0.977688
2011-09-26T14:38:24.472105,480,-0.095007,1.175454,-30.622256,-0.099898,-0.203888,0.975566
2011-09-26T14:38:24.482105,490,-0.152186,1.068884,-30.697501,-0.097110,-0.206867,0.973445
2011-09-26T14:38:24.492105,500,-0.209366,0.962314,-30.772747,-0.094322,-0.209847,0.971323
2011-09-26T14:38:24.502105,510,-0.266546,0.855744,-30.847992,-0.091535,-0.212827,0.969201
2011-09-26T14:38:24.512105,520,-0.317743,0.748533,-30.922079,-0.088804,-0.215781,0.967189
2011-09-26T14:38:24.522105,530,-0.121520,0.614809,-30.948262,-0.088461,-0.217685,0.969689
2011-09-26T14:38:24.532105,540,0.074703,0.481084,-30.974445,-0.088118,-0.219588,0.972189
2011-09-26T14:38:24.542105,550,0.270925,0.347359,-31.000627,-0.087774,-0.221491,0.974689
2011-09-26T14:38:24.552105,560,0.467148,0.213634,-31.026810,-0.087431,-0.223394,0.977189
2011-09-26T14:38:24.562105,570,0.663371,0.079910,-31.052993,-0.087088,-0.225297,0.979689
2011-09-26T14:38:24.572105,580,0.859593,-0.053815,-31.079176,-0.086744,-0.227200,0.982188
2011-09-26T14:38:24.582105,590,1.055816,-0.187540,-31.105359,-0.086401,-0.229103,0.984688
2011-09-26T14:38:24.592105,600,1.252039,-0.321264,-31.131542,-0.086057,-0.231006,0.987188
2011-09-26T14:38:24.602105,610,1.448261,-0.454989,-31.157725,-0.085714,-0.232910,0.989688
2011-09-26T14:38:24.612105,620,1.641321,-0.588456,-31.181888,-0.085362,-0.234724,0.992117
2011-09-26T14:38:24.622105,630,1.712491,-0.712001,-31.128211,-0.084685,-0.233107,0.991818
2011-09-26T14:38:24.632105,640,1.783660,-0.835545,-31.074534,-0.084008,-0.231489,0.991520
2011-09-26T14:38:24.642105,650,1.854830,-0.959090,-31.020858,-0.083330,-0.229872,0.991221
2011-09-26T14:38:24.652105,660,1.926000,-1.082635,-30.967181,-0.082653,-0.228255,0.990922
2011-09-26T14:38:24.662105,670,1.997169,-1.206179,-30.913504,-0.081976,-0.226638,0.990623
2011-09-26T14:38:24.672105,680,2.068339,-1.329724,-30.859828,-0.081299,-0.225021,0.990324
2011-09-26T14:38:24.682105,690,2.139509,-1.453268,-30.806151,-0.080621,-0.223404,0.990026
2011-09-26T14:38:24.692105,700,2.210678,-1.576813,-30.752474,-0.079944,-0.221787,0.989727
2011-09-26T14:38:24.702105,710,2.281848,-1.700357,-30.698798,-0.079267,-0.220170,0.989428
2011-09-26T14:38:24.712105,720,2.350005,-1.820852,-30.645680,-0.078543,-0.218534,0.989178
2011-09-26T14:38:24.722105,730,2.315889,-1.837799,-30.611522,-0.076235,-0.216272,0.990600
2011-09-26T14:38:24.732105,740,2.281774,-1.854746,-30.577364,-0.073928,-0.214010,0.992022
2011-09-26T14:38:24.742105,750,2.247658,-1.871694,-30.543206,-0.071620,-0.211748,0.993444
2011-09-26T14:38:24.752105,760,2.213542,-1.888641,-30.509048,-0.069313,-0.209487,0.994866
2011-09-26T14:38:24.762105,770,2.179426,-1.905588,-30.474891,-0.067005,-0.207225,0.996288
2011-09-26T14:38:24.772105,780,2.145310,-1.922535,-30.440733,-0.064697,-0.204963,0.997710
2011-09-26T14:38:24.782105,790,2.111194,-1.939483,-30.406575,-0.062390,-0.202701,0.999131
2011-09-26T14:38:24.792105,800,2.077078,-1.956430,-30.372417,-0.060082,-0.200439,1.000553
2011-09-26T14:38:24.802105,810,2.042963,-1.973377,-30.338259,-0.057775,-0.198177,1.001975
2011-09-26T14:38:24.812105,820,2.008847,-1.990324,-30.304101,-0.055467,-0.195916,1.003397
2011-09-26T14:38:24.822105,830,1.973963,-2.006079,-30.267632,-0.053201,-0.193745,1.004592
2011-09-26T14:38:24.832105,840,1.917342,-1.988068,-30.165713,-0.052114,-0.194155,0.999360
2011-09-26T14:38:24.842105,850,1.860720,-1.970056,-30.063794,-0.051026,-0.194566,0.994128
2011-09-26T14:38:24.852105,860,1.804099,-1.952045,-29.961875,-0.049939,-0.194976,0.988896
2011-09-26T14:38:24.862105,870,1.747477,-1.934033,-29.859956,-0.048851,-0.195387,0.983664
2011-09-26T14:38:24.872105,880,1.690856,-1.916021,-29.758037,-0.047764,-0.195797,0.978432
2011-09-26T14:38:24.882105,890,1.634234,-1.898010,-29.656118,-0.046676,-0.196207,0.973200
2011-09-26T14:38:24.892105,900,1.577613,-1.879998,-29.554199,-0.045589,-0.196618,0.967968
2011-09-26T14:38:24.902105,910,1.520991,-1.861987,-29.452280,-0.044501,-0.197028,0.962737
2011-09-26T14:38:24.912105,920,1.464370,-1.843975,-29.350361,-0.043413,-0.197439,0.957505
2011-09-26T14:38:24.922105,930,1.406077,-1.826351,-29.249445,-0.042384,-0.197837,0.952633
2011-09-26T14:38:24.932105,940,1.305842,-1.818462,-29.173725,-0.042811,-0.197925,0.956796
2011-09-26T14:38:24.942105,950,1.205606,-1.810572,-29.098004,-0.043237,-0.198013,0.960960
2011-09-26T14:38:24.952105,960,1.105370,-1.802682,-29.022284,-0.043664,-0.198101,0.965123
2011-09-26T14:38:24.962105,970,1.005135,-1.794793,-28.946563,-0.044090,-0.198190,0.969287
2011-09-26T14:38:24.972105,980,0.904899,-1.786903,-28.870843,-0.044517,-0.198278,0.973450
2011-09-26T14:38:24.982105,990,0.804663,-1.779013,-28.795122,-0.044943,-0.198366,0.977614
2011-09-26T14:38:24.992105,1000,0.704428,-1.771123,-28.719402,-0.045370,-0.198454,0.981777
2011-09-26T14:38:25.002105,1010,0.604192,-1.763234,-28.643681,-0.045796,-0.198542,0.985941
2011-09-26T14:38:25.012105,1020,0.503957,-1.755344,-28.567961,-0.046223,-0.198631,0.990104
2011-09-26T14:38:25.022105,1030,0.408519,-1.745480,-28.494201,-0.046591,-0.198761,0.994114
2011-09-26T14:38:25.032105,1040,0.436996,-1.684636,-28.471091,-0.045462,-0.199984,0.994160
2011-09-26T14:38:25.042105,1050,0.465472,-1.623792,-28.447981,-0.044333,-0.201207,0.994205
2011-09-26T14:38:25.052105,1060,0.493948,-1.562948,-28.424871,-0.043204,-0.202430,0.994250
2011-09-26T14:38:25.062105,1070,0.522424,-1.502103,-28.401761,-0.042075,-0.203653,0.994295
2011-09-26T14:38:25.072105,1080,0.550900,-1.441259,-28.378650,-0.040945,-0.204876,0.994340
2011-09-26T14:38:25.082105,1090,0.579377,-1.380415,-28.355540,-0.039816,-0.206099,0.994386
2011-09-26T14:38:25.092105,1100,0.607853,-1.319571,-28.332430,-0.038687,-0.207322,0.994431
2011-09-26T14:38:25.102105,1110,0.636329,-1.258727,-28.309320,-0.037558,-0.208545,0.994476
2011-09-26T14:38:25.112105,1120,0.664805,-1.197882,-28.286210,-0.036429,-0.209767,0.994521
2011-09-26T14:38:25.122105,1130,0.693282,-1.137038,-28.263100,-0.035299,-0.210990,0.994566
2011-09-26T14:38:25.132105,1140,0.718310,-1.078021,-28.242145,-0.034256,-0.212134,0.994703
2011-09-26T14:38:25.142105,1150,0.668579,-1.058626,-28.267917,-0.035078,-0.211551,0.996818
2011-09-26T14:38:25.152105,1160,0.618849,-1.039230,-28.293690,-0.035901,-0.210968,0.998934
2011-09-26T14:38:25.162105,1170,0.569119,-1.019834,-28.319463,-0.036723,-0.210386,1.001049
2011-09-26T14:38:25.172105,1180,0.519389,-1.000438,-28.345236,-0.037545,-0.209803,1.003165
2011-09-26T14:38:25.182105,1190,0.469659,-0.981042,-28.371009,-0.038367,-0.209221,1.005281
2011-09-26T14:38:25.192105,1200,0.419928,-0.961646,-28.396782,-0.039189,-0.208638,1.007396
2011-09-26T14:38:25.202105,1210,0.370198,-0.942250,-28.422554,-0.040011,-0.208055,1.009512
2011-09-26T14:38:25.212105,1220,0.320468,-0.922854,-28.448327,-0.040833,-0.207473,1.011627
2011-09-26T14:38:25.222105,1230,0.270738,-0.903458,-28.474100,-0.041655,-0.206890,1.013743
2011-09-26T14:38:25.232105,1240,0.223795,-0.885555,-28.499382,-0.042388,-0.206381,1.015686
2011-09-26T14:38:25.242105,1250,0.228396,-0.895254,-28.515578,-0.041461,-0.207236,1.014435
2011-09-26T14:38:25.252105,1260,0.232998,-0.904953,-28.531774,-0.040535,-0.208092,1.013183
2011-09-26T14:38:25.262105,1270,0.237600,-0.914651,-28.547970,-0.039608,-0.208947,1.011932
2011-09-26T14:38:25.272105,1280,0.242202,-0.924350,-28.564167,-0.038681,-0.209802,1.010681
2011-09-26T14:38:25.282105,1290,0.246804,-0.934049,-28.580363,-0.037754,-0.210657,1.009430
2011-09-26T14:38:25.292105,1300,0.251406,-0.943748,-28.596559,-0.036828,-0.211513,1.008179
2011-09-26T14:38:25.302105,1310,0.256008,-0.953447,-28.612755,-0.035901,-0.212368,1.006927
2011-09-26T14:38:25.312105,1320,0.260610,-0.963146,-28.628951,-0.034974,-0.213223,1.005676
2011-09-26T14:38:25.322105,1330,0.265212,-0.972845,-28.645148,-0.034048,-0.214078,1.004425
2011-09-26T14:38:25.332105,1340,0.269814,-0.982543,-28.661344,-0.033121,-0.214933,1.003174
2011-09-26T14:38:25.342105,1350,0.273895,-0.992534,-28.676957,-0.032136,-0.215795,1.002144
2011-09-26T14:38:25.352105,1360,0.268719,-1.007717,-28.682188,-0.030115,-0.216769,1.005057
2011-09-26T14:38:25.362105,1370,0.263543,-1.022899,-28.687419,-0.028093,-0.217743,1.007969
2011-09-26T14:38:25.372105,1380,0.258366,-1.038082,-28.692650,-0.026071,-0.218717,1.010882
2011-09-26T14:38:25.382105,1390,0.253190,-1.053264,-28.697881,-0.024050,-0.219691,1.013794
2011-09-26T14:38:25.392105,1400,0.248014,-1.068447,-28.703111,-0.022028,-0.220665,1.016707
2011-09-26T14:38:25.402105,1410,0.242837,-1.083630,-28.708342,-0.020007,-0.221639,1.019620
2011-09-26T14:38:25.412105,1420,0.237661,-1.098812,-28.713573,-0.017985,-0.222613,1.022532
2011-09-26T14:38:25.422105,1430,0.232485,-1.113995,-28.718804,-0.015964,-0.223587,1.025445
2011-09-26T14:38:25.432105,1440,0.227308,-1.129177,-28.724035,-0.013942,-0.224561,1.028357
2011-09-26T14:38:25.442105,1450,0.227999,-1.141059,-28.731189,-0.011837,-0.225535,1.031121
2011-09-26T14:38:25.452105,1460,0.338536,-1.091149,-28.774336,-0.008175,-0.226505,1.031102
2011-09-26T14:38:25.462105,1470,0.449072,-1.041240,-28.817484,-0.004513,-0.227476,1.031083
2011-09-26T14:38:25.472105,1480,0.559609,-0.991330,-28.860632,-0.000851,-0.228447,1.031064
2011-09-26T14:38:25.482105,1490,0.670145,-0.941420,-28.903779,0.002811,-0.229417,1.031044
2011-09-26T14:38:25.492105,1500,0.780682,-0.891510,-28.946927,0.006473,-0.230388,1.031025
2011-09-26T14:38:25.502105,1510,0.891218,-0.841600,-28.990074,0.010134,-0.231359,1.031006
2011-09-26T14:38:25.512105,1520,1.001754,-0.791691,-29.033222,0.013796,-0.232329,1.030987
2011-09-26T14:38:25.522105,1530,1.112291,-0.741781,-29.076369,0.017458,-0.233300,1.030968
2011-09-26T14:38:25.532105,1540,1.222827,-0.691871,-29.119517,0.021120,-0.234271,1.030949
2011-09-26T14:38:25.542105,1550,1.333270,-0.641223,-29.159476,0.024642,-0.235244,1.030922
2011-09-26T14:38:25.552105,1560,1.442021,-0.577176,-29.141540,0.025620,-0.236257,1.030751
2011-09-26T14:38:25.562105,1570,1.550771,-0.513129,-29.123604,0.026598,-0.237271,1.030580
2011-09-26T14:38:25.572105,1580,1.659522,-0.449083,-29.105668,0.027575,-0.238285,1.030409
2011-09-26T14:38:25.582105,1590,1.768272,-0.385036,-29.087731,0.028553,-0.239299,1.030238
2011-09-26T14:38:25.592105,1600,1.877022,-0.320989,-29.069795,0.029531,-0.240312,1.030067
2011-09-26T14:38:25.602105,1610,1.985773,-0.256942,-29.051859,0.030508,-0.241326,1.029896
2011-09-26T14:38:25.612105,1620,2.094523,-0.192895,-29.033923,0.031486,-0.242340,1.029725
2011-09-26T14:38:25.622105,1630,2.203273,-0.128848,-29.015986,0.032464,-0.243354,1.029554
2011-09-26T14:38:25.632105,1640,2.312024,-0.064801,-28.998050,0.033441,-0.244368,1.029383
2011-09-26T14:38:25.642105,1650,2.420774,-0.000754,-28.980114,0.034419,-0.245381,1.029213
2011-09-26T14:38:25.652105,1660,2.529647,0.058688,-28.954282,0.035372,-0.246293,1.028851
2011-09-26T14:38:25.662105,1670,2.640274,0.052302,-28.815581,0.035972,-0.245745,1.025768
2011-09-26T14:38:25.672105,1680,2.750902,0.045917,-28.676880,0.036573,-0.245197,1.022684
2011-09-26T14:38:25.682105,1690,2.861529,0.039531,-28.538178,0.037173,-0.244650,1.019601
2011-09-26T14:38:25.692105,1700,2.972156,0.033145,-28.399477,0.037773,-0.244102,1.016518
2011-09-26T14:38:25.702105,1710,3.082783,0.026760,-28.260776,0.038373,-0.243554,1.013434
2011-09-26T14:38:25.712105,1720,3.193410,0.020374,-28.122074,0.038974,-0.243006,1.010351
2011-09-26T14:38:25.722105,1730,3.304038,0.013989,-27.983373,0.039574,-0.242458,1.007267
2011-09-26T14:38:25.732105,1740,3.414665,0.007603,-27.844672,0.040174,-0.241910,1.004184
2011-09-26T14:38:25.742105,1750,3.525292,0.001217,-27.705970,0.040774,-0.241363,1.001101
2011-09-26T14:38:25.752105,1760,3.624568,-0.001585,-27.563834,0.041384,-0.240423,0.998208
2011-09-26T14:38:25.762105,1770,3.591690,0.037332,-27.381711,0.042101,-0.234928,0.997537
2011-09-26T14:38:25.772105,1780,3.558812,0.076248,-27.199587,0.042818,-0.229432,0.996865
2011-09-26T14:38:25.782105,1790,3.525934,0.115165,-27.017463,0.043534,-0.223937,0.996194
2011-09-26T14:38:25.792105,1800,3.493057,0.154081,-26.835339,0.044251,-0.218441,0.995522
2011-09-26T14:38:25.802105,1810,3.460179,0.192998,-26.653215,0.044968,-0.212945,0.994851
2011-09-26T14:38:25.812105,1820,3.427301,0.231914,-26.471091,0.045685,-0.207450,0.994180
2011-09-26T14:38:25.822105,1830,3.394423,0.270831,-26.288968,0.046402,-0.201954,0.993508
2011-09-26T14:38:25.832105,1840,3.361546,0.309747,-26.106844,0.047118,-0.196459,0.992837
2011-09-26T14:38:25.842105,1850,3.328668,0.348664,-25.924720,0.047835,-0.190963,0.992165
2011-09-26T14:38:25.852105,1860,3.289037,0.386601,-25.741431,0.048551,-0.185839,0.991401
2011-09-26T14:38:25.862105,1870,3.174584,0.413687,-25.545232,0.049258,-0.184827,0.989600
2011-09-26T14:38:25.872105,1880,3.060132,0.440773,-25.349032,0.049964,-0.183815,0.987800
2011-09-26T14:38:25.882105,1890,2.945679,0.467859,-25.152833,0.050671,-0.182803,0.985999
2011-09-26T14:38:25.892105,1900,2.831227,0.494946,-24.956634,0.051377,-0.181791,0.984199
2011-09-26T14:38:25.902105,1910,2.716774,0.522032,-24.760435,0.052084,-0.180779,0.982398
2011-09-26T14:38:25.912105,1920,2.602322,0.549118,-24.564236,0.052790,-0.179767,0.980598
2011-09-26T14:38:25.922105,1930,2.487869,0.576204,-24.368036,0.053497,-0.178756,0.978797
2011-09-26T14:38:25.932105,1940,2.373417,0.603290,-24.171837,0.054203,-0.177744,0.976997
2011-09-26T14:38:25.942105,1950,2.258964,0.630377,-23.975638,0.054910,-0.176732,0.975197
2011-09-26T14:38:25.952105,1960,2.144512,0.657463,-23.779439,0.055617,-0.175720,0.973396
2011-09-26T14:38:25.962105,1970,2.030633,0.682052,-23.582396,0.056243,-0.174676,0.971755
2011-09-26T14:38:25.972105,1980,1.922659,0.680951,-23.376684,0.056040,-0.173302,0.971749
2011-09-26T14:38:25.982105,1990,1.814684,0.679850,-23.170971,0.055838,-0.171928,0.971744
2011-09-26T14:38:25.992105,2000,1.706710,0.678750,-22.965259,0.055636,-0.170554,0.971738
2011-09-26T14:38:26.002105,2010,1.598735,0.677649,-22.759546,0.055434,-0.169180,0.971733
2011-09-26T14:38:26.012105,2020,1.490760,0.676548,-22.553833,0.055232,-0.167806,0.971727
2011-09-26T14:38:26.022105,2030,1.382786,0.675447,-22.348121,0.055030,-0.166432,0.971722
2011-09-26T14:38:26.032105,2040,1.274811,0.674347,-22.142408,0.054827,-0.165058,0.971716
2011-09-26T14:38:26.042105,2050,1.166837,0.673246,-21.936696,0.054625,-0.163684,0.971710
2011-09-26T14:38:26.052105,2060,1.058862,0.672145,-21.730983,0.054423,-0.162310,0.971705
2011-09-26T14:38:26.062105,2070,0.955502,0.669868,-21.526392,0.054198,-0.161150,0.971905
2011-09-26T14:38:26.072105,2080,0.915980,0.651310,-21.337311,0.053653,-0.162949,0.974957
2011-09-26T14:38:26.082105,2090,0.876458,0.632753,-21.148230,0.053108,-0.164748,0.978009
2011-09-26T14:38:26.092105,2100,0.836936,0.614196,-20.959149,0.052563,-0.166547,0.981061
2011-09-26T14:38:26.102105,2110,0.797414,0.595639,-20.770068,0.052018,-0.168345,0.984112
2011-09-26T14:38:26.112105,2120,0.757892,0.577082,-20.580987,0.051473,-0.170144,0.987164
2011-09-26T14:38:26.122105,2130,0.718371,0.558524,-20.391906,0.050928,-0.171943,0.990216
2011-09-26T14:38:26.132105,2140,0.678849,0.539967,-20.202825,0.050383,-0.173742,0.993267
2011-09-26T14:38:26.142105,2150,0.639327,0.521410,-20.013744,0.049838,-0.175541,0.996319
2011-09-26T14:38:26.152105,2160,0.599805,0.502853,-19.824663,0.049293,-0.177339,0.999371
2011-09-26T14:38:26.162105,2170,0.564745,0.484541,-19.635904,0.048768,-0.178887,1.002256
2011-09-26T14:38:26.172105,2180,0.574962,0.468718,-19.450415,0.048438,-0.177881,1.003453
2011-09-26T14:38:26.182105,2190,0.585179,0.452895,-19.264925,0.048109,-0.176875,1.004649
2011-09-26T14:38:26.192105,2200,0.595397,0.437071,-19.079436,0.047779,-0.175870,1.005846
2011-09-26T14:38:26.202105,2210,0.605614,0.421248,-18.893946,0.047449,-0.174864,1.007043
2011-09-26T14:38:26.212105,2220,0.615832,0.405425,-18.708457,0.047120,-0.173859,1.008239
2011-09-26T14:38:26.222105,2230,0.626049,0.389602,-18.522967,0.046790,-0.172853,1.009436
2011-09-26T14:38:26.232105,2240,0.636266,0.373779,-18.337478,0.046460,-0.171847,1.010633
2011-09-26T14:38:26.242105,2250,0.646484,0.357956,-18.151988,0.046131,-0.170842,1.011830
2011-09-26T14:38:26.252105,2260,0.656701,0.342133,-17.966499,0.045801,-0.169836,1.013026
2011-09-26T14:38:26.262105,2270,0.666918,0.326310,-17.781009,0.045472,-0.168830,1.014223
2011-09-26T14:38:26.272105,2280,0.679093,0.309707,-17.597359,0.045138,-0.167911,1.015306
2011-09-26T14:38:26.282105,2290,0.708629,0.286183,-17.430023,0.044774,-0.167759,1.015377
2011-09-26T14:38:26.292105,2300,0.738165,0.262660,-17.262688,0.044410,-0.167607,1.015449
2011-09-26T14:38:26.302105,2310,0.767701,0.239136,-17.095353,0.044046,-0.167455,1.015521
2011-09-26T14:38:26.312105,2320,0.797237,0.215613,-16.928017,0.043681,-0.167303,1.015592
2011-09-26T14:38:26.322105,2330,0.826773,0.192089,-16.760682,0.043317,-0.167151,1.015664
2011-09-26T14:38:26.332105,2340,0.856309,0.168566,-16.593347,0.042953,-0.166999,1.015736
2011-09-26T14:38:26.342105,2350,0.885845,0.145042,-16.426011,0.042589,-0.166847,1.015807
2011-09-26T14:38:26.352105,2360,0.915381,0.121519,-16.258676,0.042224,-0.166695,1.015879
2011-09-26T14:38:26.362105,2370,0.944917,0.097995,-16.091340,0.041860,-0.166543,1.015951
2011-09-26T14:38:26.372105,2380,0.974061,0.080606,-15.926780,0.041600,-0.166162,1.015944
2011-09-26T14:38:26.382105,2390,0.999866,0.115498,-15.785867,0.042228,-0.163826,1.015268
2011-09-26T14:38:26.392105,2400,1.025670,0.150391,-15.644953,0.042856,-0.161490,1.014593
2011-09-26T14:38:26.402105,2410,1.051475,0.185284,-15.504040,0.043483,-0.159154,1.013918
2011-09-26T14:38:26.412105,2420,1.077279,0.220176,-15.363127,0.044111,-0.156818,1.013242
2011-09-26T14:38:26.422105,2430,1.103083,0.255069,-15.222214,0.044739,-0.154482,1.012567
2011-09-26T14:38:26.432105,2440,1.128888,0.289961,-15.081301,0.045367,-0.152146,1.011892
2011-09-26T14:38:26.442105,2450,1.154692,0.324854,-14.940388,0.045994,-0.149811,1.011216
2011-09-26T14:38:26.452105,2460,1.180497,0.359746,-14.799475,0.046622,-0.147475,1.010541
2011-09-26T14:38:26.462105,2470,1.206301,0.394639,-14.658562,0.047250,-0.145139,1.009866
2011-09-26T14:38:26.472105,2480,1.232105,0.429531,-14.517649,0.047878,-0.142803,1.009190
2011-09-26T14:38:26.482105,2490,1.254133,0.456612,-14.381710,0.048587,-0.140724,1.008098
2011-09-26T14:38:26.492105,2500,1.245817,0.420934,-14.285737,0.049948,-0.140707,1.003656
2011-09-26T14:38:26.502105,2510,1.237501,0.385255,-14.189764,0.051309,-0.140690,0.999213
2011-09-26T14:38:26.512105,2520,1.229184,0.349577,-14.093790,0.052670,-0.140673,0.994771
2011-09-26T14:38:26.522105,2530,1.220868,0.313898,-13.997817,0.054031,-0.140657,0.990328
2011-09-26T14:38:26.532105,2540,1.212552,0.278219,-13.901844,0.055392,-0.140640,0.985886
2011-09-26T14:38:26.542105,2550,1.204236,0.242541,-13.805870,0.056753,-0.140623,0.981443
2011-09-26T14:38:26.552105,2560,1.195920,0.206862,-13.709897,0.058114,-0.140606,0.977001
2011-09-26T14:38:26.562105,2570,1.187604,0.171184,-13.613923,0.059475,-0.140590,0.972558
2011-09-26T14:38:26.572105,2580,1.179288,0.135505,-13.517950,0.060835,-0.140573,0.968116
2011-09-26T14:38:26.582105,2590,1.173269,0.090841,-13.423121,0.062289,-0.140555,0.963984
2011-09-26T14:38:26.592105,2600,1.186832,-0.030407,-13.338041,0.064530,-0.140529,0.962503
2011-09-26T14:38:26.602105,2610,1.200395,-0.151655,-13.252962,0.066770,-0.140503,0.961021
2011-09-26T14:38:26.612105,2620,1.213958,-0.272904,-13.167883,0.069011,-0.140478,0.959540
2011-09-26T14:38:26.622105,2630,1.227520,-0.394152,-13.082803,0.071252,-0.140452,0.958058
2011-09-26T14:38:26.632105,2640,1.241083,-0.515401,-12.997724,0.073492,-0.140426,0.956576
2011-09-26T14:38:26.642105,2650,1.254646,-0.636649,-12.912644,0.075733,-0.140400,0.955095
2011-09-26T14:38:26.652105,2660,1.268209,-0.757898,-12.827565,0.077974,-0.140374,0.953613
2011-09-26T14:38:26.662105,2670,1.281772,-0.879146,-12.742486,0.080214,-0.140348,0.952132
2011-09-26T14:38:26.672105,2680,1.295334,-1.000395,-12.657406,0.082455,-0.140322,0.950650
2011-09-26T14:38:26.682105,2690,1.316745,-1.115196,-12.573796,0.084684,-0.140157,0.949717
2011-09-26T14:38:26.692105,2700,1.395103,-1.183210,-12.500843,0.086824,-0.138983,0.952767
2011-09-26T14:38:26.702105,2710,1.473461,-1.251225,-12.427891,0.088965,-0.137808,0.955816
2011-09-26T14:38:26.712105,2720,1.551818,-1.319240,-12.354938,0.091106,-0.136633,0.958866
2011-09-26T14:38:26.722105,2730,1.630176,-1.387254,-12.281986,0.093247,-0.135459,0.961915
2011-09-26T14:38:26.732105,2740,1.708534,-1.455269,-12.209034,0.095388,-0.134284,0.964964
2011-09-26T14:38:26.742105,2750,1.786891,-1.523284,-12.136081,0.097529,-0.133109,0.968014
2011-09-26T14:38:26.752105,2760,1.865249,-1.591298,-12.063129,0.099669,-0.131935,0.971063
2011-09-26T14:38:26.762105,2770,1.943607,-1.659313,-11.990176,0.101810,-0.130760,0.974113
2011-09-26T14:38:26.772105,2780,2.021965,-1.727328,-11.917224,0.103951,-0.129585,0.977162
2011-09-26T14:38:26.782105,2790,2.089779,-1.790956,-11.842826,0.106066,-0.128539,0.980060
2011-09-26T14:38:26.792105,2800,2.081714,-1.823010,-11.758025,0.107994,-0.128413,0.981870
2011-09-26T14:38:26.802105,2810,2.073649,-1.855065,-11.673224,0.109922,-0.128287,0.983681
2011-09-26T14:38:26.812105,2820,2.065583,-1.887120,-11.588423,0.111850,-0.128161,0.985491
2011-09-26T14:38:26.822105,2830,2.057518,-1.919175,-11.503622,0.113778,-0.128035,0.987301
2011-09-26T14:38:26.832105,2840,2.049453,-1.951230,-11.418820,0.115706,-0.127909,0.989111
2011-09-26T14:38:26.842105,2850,2.041388,-1.983285,-11.334019,0.117634,-0.127783,0.990921
2011-09-26T14:38:26.852105,2860,2.033322,-2.015340,-11.249218,0.119562,-0.127657,0.992731
2011-09-26T14:38:26.862105,2870,2.025257,-2.047395,-11.164417,0.121490,-0.127531,0.994542
2011-09-26T14:38:26.872105,2880,2.017192,-2.079450,-11.079616,0.123418,-0.127405,0.996352
2011-09-26T14:38:26.882105,2890,2.009127,-2.111504,-10.994815,0.125346,-0.127280,0.998162
2011-09-26T14:38:26.892105,2900,2.000817,-2.135075,-10.906557,0.127113,-0.126838,1.000285
2011-09-26T14:38:26.902105,2910,1.990878,-2.102211,-10.795301,0.127816,-0.124294,1.004492
2011-09-26T14:38:26.912105,2920,1.980939,-2.069347,-10.684045,0.128518,-0.121750,1.008698
2011-09-26T14:38:26.922105,2930,1.971000,-2.036482,-10.572789,0.129221,-0.119206,1.012905
2011-09-26T14:38:26.932105,2940,1.961061,-2.003618,-10.461533,0.129923,-0.116663,1.017111
2011-09-26T14:38:26.942105,2950,1.951123,-1.970754,-10.350278,0.130626,-0.114119,1.021318
2011-09-26T14:38:26.952105,2960,1.941184,-1.937889,-10.239022,0.131328,-0.111575,1.025525
2011-09-26T14:38:26.962105,2970,1.931245,-1.905025,-10.127766,0.132031,-0.109031,1.029731
2011-09-26T14:38:26.972105,2980,1.921306,-1.872161,-10.016510,0.132733,-0.106487,1.033938
2011-09-26T14:38:26.982105,2990,1.911367,-1.839296,-9.905254,0.133436,-0.103944,1.038144
2011-09-26T14:38:26.992105,3000,1.893281,-1.801331,-9.794916,0.134170,-0.101514,1.041800
2011-09-26T14:38:27.002105,3010,1.824087,-1.731372,-9.690331,0.135101,-0.099803,1.041998
2011-09-26T14:38:27.012105,3020,1.754893,-1.661413,-9.585746,0.136032,-0.098092,1.042197
2011-09-26T14:38:27.022105,3030,1.685699,-1.591454,-9.481161,0.136963,-0.096381,1.042395
2011-09-26T14:38:27.032105,3040,1.616505,-1.521496,-9.376575,0.137895,-0.094670,1.042594
2011-09-26T14:38:27.042105,3050,1.547311,-1.451537,-9.271990,0.138826,-0.092959,1.042792
2011-09-26T14:38:27.052105,3060,1.478117,-1.381578,-9.167405,0.139757,-0.091248,1.042990
2011-09-26T14:38:27.062105,3070,1.408922,-1.311619,-9.062820,0.140688,-0.089536,1.043189
2011-09-26T14:38:27.072105,3080,1.339728,-1.241660,-8.958235,0.141619,-0.087825,1.043387
2011-09-26T14:38:27.082105,3090,1.270534,-1.171701,-8.853650,0.142551,-0.086114,1.043586
2011-09-26T14:38:27.092105,3100,1.200541,-1.101805,-8.750101,0.143506,-0.084545,1.043519
2011-09-26T14:38:27.102105,3110,1.125144,-1.032340,-8.653551,0.144627,-0.083933,1.041665
2011-09-26T14:38:27.112105,3120,1.049748,-0.962875,-8.557001,0.145748,-0.083321,1.039811
2011-09-26T14:38:27.122105,3130,0.974351,-0.893409,-8.460451,0.146868,-0.082710,1.037957
2011-09-26T14:38:27.132105,3140,0.898955,-0.823944,-8.363901,0.147989,-0.082098,1.036102
2011-09-26T14:38:27.142105,3150,0.823558,-0.754479,-8.267352,0.149110,-0.081487,1.034248
2011-09-26T14:38:27.152105,3160,0.748162,-0.685013,-8.170802,0.150231,-0.080875,1.032394
2011-09-26T14:38:27.162105,3170,0.672765,-0.615548,-8.074252,0.151351,-0.080263,1.030540
2011-09-26T14:38:27.172105,3180,0.597369,-0.546082,-7.977702,0.152472,-0.079652,1.028685
2011-09-26T14:38:27.182105,3190,0.521972,-0.476617,-7.881152,0.153593,-0.079040,1.026831
2011-09-26T14:38:27.192105,3200,0.446576,-0.407152,-7.784602,0.154714,-0.078428,1.024977
2011-09-26T14:38:27.202105,3210,0.372816,-0.335414,-7.689153,0.155753,-0.078144,1.022760
2011-09-26T14:38:27.212105,3220,0.308580,-0.250450,-7.600108,0.156319,-0.079767,1.018432
2011-09-26T14:38:27.222105,3230,0.244344,-0.165485,-7.511064,0.156885,-0.081389,1.014104
2011-09-26T14:38:27.232105,3240,0.180108,-0.080520,-7.422019,0.157451,-0.083012,1.009776
2011-09-26T14:38:27.242105,3250,0.115872,0.004444,-7.332974,0.158017,-0.084634,1.005448
2011-09-26T14:38:27.252105,3260,0.051636,0.089409,-7.243930,0.158583,-0.086256,1.001120
2011-09-26T14:38:27.262105,3270,-0.012600,0.174373,-7.154885,0.159149,-0.087879,0.996792
2011-09-26T14:38:27.272105,3280,-0.076836,0.259338,-7.065840,0.159716,-0.089501,0.992464
2011-09-26T14:38:27.282105,3290,-0.141072,0.344303,-6.976796,0.160282,-0.091124,0.988136
2011-09-26T14:38:27.292105,3300,-0.205308,0.429267,-6.887751,0.160848,-0.092746,0.983808
2011-09-26T14:38:27.302105,3310,-0.250351,0.498554,-6.803593,0.161228,-0.094253,0.980090
2011-09-26T14:38:27.312105,3320,-0.185853,0.478364,-6.747321,0.160551,-0.095100,0.979851
2011-09-26T14:38:27.322105,3330,-0.121356,0.458175,-6.691049,0.159873,-0.095947,0.979613
2011-09-26T14:38:27.332105,3340,-0.056859,0.437986,-6.634776,0.159195,-0.096794,0.979375
2011-09-26T14:38:27.342105,3350,0.007638,0.417797,-6.578504,0.158518,-0.097642,0.979137
2011-09-26T14:38:27.352105,3360,0.072135,0.397607,-6.522232,0.157840,-0.098489,0.978899
2011-09-26T14:38:27.362105,3370,0.136633,0.377418,-6.465960,0.157162,-0.099336,0.978660
2011-09-26T14:38:27.372105,3380,0.201130,0.357229,-6.409688,0.156484,-0.100183,0.978422
2011-09-26T14:38:27.382105,3390,0.265627,0.337039,-6.353415,0.155807,-0.101030,0.978184
2011-09-26T14:38:27.392105,3400,0.330124,0.316850,-6.297143,0.155129,-0.101878,0.977946
2011-09-26T14:38:27.402105,3410,0.393831,0.290320,-6.243754,0.154349,-0.102342,0.977987
2011-09-26T14:38:27.412105,3420,0.453157,0.228630,-6.206347,0.153002,-0.100688,0.979580
2011-09-26T14:38:27.422105,3430,0.512483,0.166939,-6.168941,0.151656,-0.099033,0.981173
2011-09-26T14:38:27.432105,3440,0.571809,0.105249,-6.131535,0.150309,-0.097378,0.982766
2011-09-26T14:38:27.442105,3450,0.631135,0.043558,-6.094129,0.148962,-0.095723,0.984359
2011-09-26T14:38:27.452105,3460,0.690461,-0.018132,-6.056723,0.147615,-0.094068,0.985952
2011-09-26T14:38:27.462105,3470,0.749787,-0.079822,-6.019317,0.146268,-0.092413,0.987545
2011-09-26T14:38:27.472105,3480,0.809113,-0.141513,-5.981910,0.144922,-0.090759,0.989138
2011-09-26T14:38:27.482105,3490,0.868439,-0.203203,-5.944504,0.143575,-0.089104,0.990731
2011-09-26T14:38:27.492105,3500,0.927765,-0.264894,-5.907098,0.142228,-0.087449,0.992324
2011-09-26T14:38:27.502105,3510,0.982224,-0.319289,-5.865081,0.140857,-0.085813,0.994407
2011-09-26T14:38:27.512105,3520,1.009595,-0.333079,-5.797401,0.139353,-0.084283,0.999217
2011-09-26T14:38:27.522105,3530,1.036966,-0.346868,-5.729720,0.137849,-0.082753,1.004028
2011-09-26T14:38:27.532105,3540,1.064337,-0.360658,-5.662040,0.136345,-0.081223,1.008838
2011-09-26T14:38:27.542105,3550,1.091708,-0.374447,-5.594359,0.134841,-0.079693,1.013648
2011-09-26T14:38:27.552105,3560,1.119079,-0.388237,-5.526679,0.133337,-0.078162,1.018459
2011-09-26T14:38:27.562105,3570,1.146450,-0.402026,-5.458999,0.131833,-0.076632,1.023269
2011-09-26T14:38:27.572105,3580,1.173821,-0.415816,-5.391318,0.130329,-0.075102,1.028080
2011-09-26T14:38:27.582105,3590,1.201192,-0.429605,-5.323638,0.128825,-0.073572,1.032890
2011-09-26T14:38:27.592105,3600,1.228563,-0.443395,-5.255957,0.127320,-0.072042,1.037700
2011-09-26T14:38:27.602105,3610,1.255934,-0.457184,-5.188277,0.125816,-0.070512,1.042511
2011-09-26T14:38:27.612105,3620,1.266297,-0.444278,-5.117124,0.124015,-0.068997,1.046113
2011-09-26T14:38:27.622105,3630,1.184359,-0.286488,-5.027128,0.120599,-0.067564,1.043157
2011-09-26T14:38:27.632105,3640,1.102420,-0.128698,-4.937133,0.117183,-0.066132,1.040200
2011-09-26T14:38:27.642105,3650,1.020481,0.029092,-4.847137,0.113768,-0.064700,1.037244
2011-09-26T14:38:27.652105,3660,0.938543,0.186882,-4.757141,0.110352,-0.063267,1.034288
2011-09-26T14:38:27.662105,3670,0.856604,0.344672,-4.667145,0.106936,-0.061835,1.031331
2011-09-26T14:38:27.672105,3680,0.774666,0.502461,-4.577149,0.103521,-0.060402,1.028375
2011-09-26T14:38:27.682105,3690,0.692727,0.660251,-4.487154,0.100105,-0.058970,1.025419
2011-09-26T14:38:27.692105,3700,0.610789,0.818041,-4.397158,0.096689,-0.057537,1.022463
2011-09-26T14:38:27.702105,3710,0.528850,0.975831,-4.307162,0.093273,-0.056105,1.019506
2011-09-26T14:38:27.712105,3720,0.457082,1.114941,-4.215531,0.089507,-0.054924,1.016371
2011-09-26T14:38:27.722105,3730,0.436678,1.159713,-4.115641,0.083969,-0.055011,1.012333
2011-09-26T14:38:27.732105,3740,0.416274,1.204485,-4.015751,0.078431,-0.055098,1.008296
2011-09-26T14:38:27.742105,3750,0.395869,1.249256,-3.915860,0.072892,-0.055186,1.004258
2011-09-26T14:38:27.752105,3760,0.375465,1.294028,-3.815970,0.067354,-0.055273,1.000220
2011-09-26T14:38:27.762105,3770,0.355061,1.338800,-3.716080,0.061816,-0.055361,0.996182
2011-09-26T14:38:27.772105,3780,0.334656,1.383572,-3.616190,0.056278,-0.055448,0.992144
2011-09-26T14:38:27.782105,3790,0.314252,1.428344,-3.516300,0.050740,-0.055535,0.988106
2011-09-26T14:38:27.792105,3800,0.293848,1.473116,-3.416410,0.045202,-0.055623,0.984068
2011-09-26T14:38:27.802105,3810,0.273444,1.517888,-3.316520,0.039664,-0.055710,0.980030
2011-09-26T14:38:27.812105,3820,0.257061,1.543961,-3.222239,0.034445,-0.055784,0.976752
2011-09-26T14:38:27.822105,3830,0.260272,1.478938,-3.155287,0.030785,-0.055795,0.977172
2011-09-26T14:38:27.832105,3840,0.263483,1.413916,-3.088335,0.027125,-0.055806,0.977592
2011-09-26T14:38:27.842105,3850,0.266694,1.348893,-3.021383,0.023465,-0.055817,0.978012
2011-09-26T14:38:27.852105,3860,0.269905,1.283871,-2.954431,0.019805,-0.055828,0.978432
2011-09-26T14:38:27.862105,3870,0.273116,1.218849,-2.887479,0.016145,-0.055839,0.978852
2011-09-26T14:38:27.872105,3880,0.276327,1.153826,-2.820526,0.012485,-0.055850,0.979272
2011-09-26T14:38:27.882105,3890,0.279539,1.088804,-2.753574,0.008825,-0.055861,0.979692
2011-09-26T14:38:27.892105,3900,0.282750,1.023782,-2.686622,0.005165,-0.055872,0.980112
2011-09-26T14:38:27.902105,3910,0.285961,0.958759,-2.619670,0.001505,-0.055883,0.980532
2011-09-26T14:38:27.912105,3920,0.289172,0.893737,-2.552718,-0.002155,-0.055894,0.980952
2011-09-26T14:38:27.922105,3930,0.292330,0.830815,-2.485815,-0.005376,-0.055645,0.982109
2011-09-26T14:38:27.932105,3940,0.295242,0.777755,-2.419142,-0.006538,-0.054176,0.986726
2011-09-26T14:38:27.942105,3950,0.298153,0.724695,-2.352469,-0.007699,-0.052708,0.991342
2011-09-26T14:38:27.952105,3960,0.301064,0.671635,-2.285796,-0.008860,-0.051239,0.995959
2011-09-26T14:38:27.962105,3970,0.303976,0.618575,-2.219123,-0.010022,-0.049770,1.000576
2011-09-26T14:38:27.972105,3980,0.306887,0.565515,-2.152450,-0.011183,-0.048301,1.005193
2011-09-26T14:38:27.982105,3990,0.309799,0.512455,-2.085777,-0.012344,-0.046833,1.009809
2011-09-26T14:38:27.992105,4000,0.312710,0.459395,-2.019103,-0.013506,-0.045364,1.014426
2011-09-26T14:38:28.002105,4010,0.315622,0.406335,-1.952430,-0.014667,-0.043895,1.019043
2011-09-26T14:38:28.012105,4020,0.318533,0.353275,-1.885757,-0.015829,-0.042427,1.023660
2011-09-26T14:38:28.022105,4030,0.318965,0.316625,-1.819290,-0.016843,-0.041234,1.026939
2011-09-26T14:38:28.032105,4040,0.308049,0.355091,-1.753761,-0.017188,-0.041301,1.024094
2011-09-26T14:38:28.042105,4050,0.297133,0.393557,-1.688232,-0.017532,-0.041369,1.021250
2011-09-26T14:38:28.052105,4060,0.286216,0.432023,-1.622704,-0.017877,-0.041436,1.018405
2011-09-26T14:38:28.062105,4070,0.275300,0.470489,-1.557175,-0.018221,-0.041504,1.015561
2011-09-26T14:38:28.072105,4080,0.264384,0.508955,-1.491646,-0.018565,-0.041571,1.012716
2011-09-26T14:38:28.082105,4090,0.253467,0.547421,-1.426118,-0.018910,-0.041639,1.009872
2011-09-26T14:38:28.092105,4100,0.242551,0.585887,-1.360589,-0.019254,-0.041707,1.007028
2011-09-26T14:38:28.102105,4110,0.231635,0.624353,-1.295060,-0.019599,-0.041774,1.004183
2011-09-26T14:38:28.112105,4120,0.220719,0.662819,-1.229532,-0.019943,-0.041842,1.001339
2011-09-26T14:38:28.122105,4130,0.214192,0.688546,-1.165295,-0.020301,-0.041727,0.998725
2011-09-26T14:38:28.132105,4140,0.229885,0.649798,-1.107600,-0.020731,-0.040687,0.997276
2011-09-26T14:38:28.142105,4150,0.245577,0.611050,-1.049904,-0.021161,-0.039647,0.995827
2011-09-26T14:38:28.152105,4160,0.261269,0.572302,-0.992209,-0.021590,-0.038607,0.994379
2011-09-26T14:38:28.162105,4170,0.276961,0.533554,-0.934513,-0.022020,-0.037567,0.992930
2011-09-26T14:38:28.172105,4180,0.292654,0.494807,-0.876818,-0.022449,-0.036526,0.991481
2011-09-26T14:38:28.182105,4190,0.308346,0.456059,-0.819123,-0.022879,-0.035486,0.990033
2011-09-26T14:38:28.192105,4200,0.324038,0.417311,-0.761427,-0.023308,-0.034446,0.988584
2011-09-26T14:38:28.202105,4210,0.339730,0.378563,-0.703732,-0.023738,-0.033406,0.987136
2011-09-26T14:38:28.212105,4220,0.355423,0.339815,-0.646036,-0.024167,-0.032366,0.985687
2011-09-26T14:38:28.222105,4230,0.371115,0.301067,-0.588341,-0.024597,-0.031326,0.984238
2011-09-26T14:38:28.232105,4240,0.385945,0.257627,-0.534780,-0.024991,-0.030427,0.983291
2011-09-26T14:38:28.242105,4250,0.397088,0.194116,-0.498903,-0.025233,-0.030127,0.984487
2011-09-26T14:38:28.252105,4260,0.408231,0.130605,-0.463025,-0.025475,-0.029828,0.985684
2011-09-26T14:38:28.262105,4270,0.419373,0.067095,-0.427148,-0.025717,-0.029529,0.986880
2011-09-26T14:38:28.272105,4280,0.430516,0.003584,-0.391271,-0.025959,-0.029230,0.988076
2011-09-26T14:38:28.282105,4290,0.441659,-0.059927,-0.355393,-0.026201,-0.028930,0.989273
2011-09-26T14:38:28.292105,4300,0.452802,-0.123437,-0.319516,-0.026443,-0.028631,0.990469
2011-09-26T14:38:28.302105,4310,0.463945,-0.186948,-0.283639,-0.026685,-0.028332,0.991666
2011-09-26T14:38:28.312105,4320,0.475088,-0.250459,-0.247762,-0.026927,-0.028033,0.992862
2011-09-26T14:38:28.322105,4330,0.486230,-0.313970,-0.211884,-0.027169,-0.027733,0.994058
2011-09-26T14:38:28.332105,4340,0.507208,-0.364601,-0.174208,-0.027539,-0.027420,0.995273
2011-09-26T14:38:28.342105,4350,0.568998,-0.361790,-0.129066,-0.028440,-0.027049,0.996565
2011-09-26T14:38:28.352105,4360,0.630787,-0.358978,-0.083924,-0.029340,-0.026678,0.997858
2011-09-26T14:38:28.362105,4370,0.692577,-0.356166,-0.038782,-0.030240,-0.026306,0.999150
2011-09-26T14:38:28.372105,4380,0.754366,-0.353355,0.006360,-0.031141,-0.025935,1.000442
2011-09-26T14:38:28.382105,4390,0.816156,-0.350543,0.051502,-0.032041,-0.025564,1.001734
2011-09-26T14:38:28.392105,4400,0.877945,-0.347732,0.096644,-0.032942,-0.025193,1.003026
2011-09-26T14:38:28.402105,4410,0.939735,-0.344920,0.141786,-0.033842,-0.024821,1.004318
2011-09-26T14:38:28.412105,4420,1.001524,-0.342109,0.186927,-0.034742,-0.024450,1.005611
2011-09-26T14:38:28.422105,4430,1.063314,-0.339297,0.232069,-0.035643,-0.024079,1.006903
2011-09-26T14:38:28.432105,4440,1.125103,-0.336485,0.277211,-0.036543,-0.023708,1.008195
2011-09-26T14:38:28.442105,4450,1.163656,-0.334159,0.323416,-0.037301,-0.023114,1.009221
2011-09-26T14:38:28.452105,4460,1.099299,-0.333982,0.374328,-0.037426,-0.021534,1.009070
2011-09-26T14:38:28.462105,4470,1.034943,-0.333804,0.425239,-0.037551,-0.019954,1.008919
2011-09-26T14:38:28.472105,4480,0.970586,-0.333627,0.476150,-0.037676,-0.018374,1.008768
2011-09-26T14:38:28.482105,4490,0.906229,-0.333449,0.527062,-0.037801,-0.016795,1.008618
2011-09-26T14:38:28.492105,4500,0.841872,-0.333272,0.577973,-0.037926,-0.015215,1.008467
2011-09-26T14:38:28.502105,4510,0.777515,-0.333094,0.628885,-0.038051,-0.013635,1.008316
2011-09-26T14:38:28.512105,4520,0.713158,-0.332917,0.679796,-0.038176,-0.012055,1.008165
2011-09-26T14:38:28.522105,4530,0.648801,-0.332740,0.730708,-0.038301,-0.010475,1.008014
2011-09-26T14:38:28.532105,4540,0.584445,-0.332562,0.781619,-0.038426,-0.008895,1.007863
2011-09-26T14:38:28.542105,4550,0.519896,-0.338418,0.822172,-0.038502,-0.007526,1.007550
2011-09-26T14:38:28.552105,4560,0.454515,-0.370378,0.817900,-0.038365,-0.007065,1.006539
2011-09-26T14:38:28.562105,4570,0.389135,-0.402338,0.813628,-0.038228,-0.006604,1.005527
2011-09-26T14:38:28.572105,4580,0.323754,-0.434298,0.809356,-0.038090,-0.006143,1.004516
2011-09-26T14:38:28.582105,4590,0.258374,-0.466259,0.805085,-0.037953,-0.005683,1.003504
2011-09-26T14:38:28.592105,4600,0.192993,-0.498219,0.800813,-0.037816,-0.005222,1.002493
2011-09-26T14:38:28.602105,4610,0.127613,-0.530179,0.796541,-0.037679,-0.004761,1.001481
2011-09-26T14:38:28.612105,4620,0.062232,-0.562140,0.792269,-0.037541,-0.004300,1.000470
2011-09-26T14:38:28.622105,4630,-0.003148,-0.594100,0.787997,-0.037404,-0.003840,0.999458
2011-09-26T14:38:28.632105,4640,-0.068528,-0.626060,0.783726,-0.037267,-0.003379,0.998447
2011-09-26T14:38:28.642105,4650,-0.124296,-0.658967,0.779645,-0.037000,-0.003325,0.997592
2011-09-26T14:38:28.652105,4660,-0.139870,-0.695831,0.776364,-0.036191,-0.004970,0.997392
2011-09-26T14:38:28.662105,4670,-0.155443,-0.732694,0.773082,-0.035383,-0.006615,0.997193
2011-09-26T14:38:28.672105,4680,-0.171017,-0.769558,0.769801,-0.034574,-0.008260,0.996993
2011-09-26T14:38:28.682105,4690,-0.186590,-0.806422,0.766519,-0.033765,-0.009905,0.996794
2011-09-26T14:38:28.692105,4700,-0.202164,-0.843286,0.763238,-0.032957,-0.011550,0.996594
2011-09-26T14:38:28.702105,4710,-0.217737,-0.880150,0.759956,-0.032148,-0.013196,0.996395
2011-09-26T14:38:28.712105,4720,-0.233311,-0.917013,0.756675,-0.031340,-0.014841,0.996195
2011-09-26T14:38:28.722105,4730,-0.248884,-0.953877,0.753393,-0.030531,-0.016486,0.995996
2011-09-26T14:38:28.732105,4740,-0.264458,-0.990741,0.750112,-0.029723,-0.018131,0.995796
2011-09-26T14:38:28.742105,4750,-0.274251,-1.015571,0.750116,-0.028953,-0.019382,0.995847
2011-09-26T14:38:28.752105,4760,-0.261912,-0.994325,0.762698,-0.028333,-0.019122,0.996859
2011-09-26T14:38:28.762105,4770,-0.249573,-0.973078,0.775281,-0.027713,-0.018862,0.997871
2011-09-26T14:38:28.772105,4780,-0.237234,-0.951831,0.787863,-0.027093,-0.018603,0.998883
2011-09-26T14:38:28.782105,4790,-0.224895,-0.930584,0.800446,-0.026473,-0.018343,0.999894
2011-09-26T14:38:28.792105,4800,-0.212556,-0.909338,0.813029,-0.025853,-0.018083,1.000906
2011-09-26T14:38:28.802105,4810,-0.200216,-0.888091,0.825611,-0.025233,-0.017824,1.001918
2011-09-26T14:38:28.812105,4820,-0.187877,-0.866844,0.838194,-0.024613,-0.017564,1.002929
2011-09-26T14:38:28.822105,4830,-0.175538,-0.845597,0.850776,-0.023993,-0.017304,1.003941
2011-09-26T14:38:28.832105,4840,-0.163199,-0.824351,0.863359,-0.023373,-0.017044,1.004953
2011-09-26T14:38:28.842105,4850,-0.150860,-0.803104,0.875941,-0.022753,-0.016785,1.005964
2011-09-26T14:38:28.852105,4860,-0.123159,-0.786674,0.883281,-0.022146,-0.016786,1.006784
2011-09-26T14:38:28.862105,4870,-0.039073,-0.787926,0.871376,-0.021589,-0.017748,1.006897
2011-09-26T14:38:28.872105,4880,0.045013,-0.789178,0.859472,-0.021031,-0.018709,1.007011
2011-09-26T14:38:28.882105,4890,0.129099,-0.790430,0.847567,-0.020473,-0.019671,1.007125
2011-09-26T14:38:28.892105,4900,0.213185,-0.791682,0.835663,-0.019916,-0.020632,1.007239
2011-09-26T14:38:28.902105,4910,0.297271,-0.792933,0.823758,-0.019358,-0.021593,1.007353
2011-09-26T14:38:28.912105,4920,0.381357,-0.794185,0.811853,-0.018800,-0.022555,1.007466
2011-09-26T14:38:28.922105,4930,0.465443,-0.795437,0.799949,-0.018243,-0.023516,1.007580
2011-09-26T14:38:28.932105,4940,0.549529,-0.796689,0.788044,-0.017685,-0.024478,1.007694
2011-09-26T14:38:28.942105,4950,0.633615,-0.797941,0.776140,-0.017128,-0.025439,1.007808
2011-09-26T14:38:28.952105,4960,0.707993,-0.789560,0.763827,-0.016172,-0.025936,1.008120
2011-09-26T14:38:28.962105,4970,0.748384,-0.747461,0.750086,-0.013825,-0.024808,1.009127
2011-09-26T14:38:28.972105,4980,0.788775,-0.705362,0.736345,-0.011477,-0.023681,1.010134
2011-09-26T14:38:28.982105,4990,0.829165,-0.663263,0.722603,-0.009129,-0.022553,1.011141
2011-09-26T14:38:28.992105,5000,0.869556,-0.621164,0.708862,-0.006782,-0.021425,1.012148
2011-09-26T14:38:29.002105,5010,0.909947,-0.579065,0.695121,-0.004434,-0.020298,1.013155
2011-09-26T14:38:29.012105,5020,0.950338,-0.536966,0.681379,-0.002086,-0.019170,1.014162
2011-09-26T14:38:29.022105,5030,0.990729,-0.494867,0.667638,0.000261,-0.018042,1.015169
2011-09-26T14:38:29.032105,5040,1.031120,-0.452768,0.653897,0.002609,-0.016915,1.016176
2011-09-26T14:38:29.042105,5050,1.071511,-0.410669,0.640155,0.004956,-0.015787,1.017183
2011-09-26T14:38:29.052105,5060,1.098584,-0.366001,0.628139,0.007233,-0.014726,1.017780
2011-09-26T14:38:29.062105,5070,1.074636,-0.311495,0.622733,0.009239,-0.013918,1.016809
2011-09-26T14:38:29.072105,5080,1.050688,-0.256989,0.617327,0.011244,-0.013110,1.015837
2011-09-26T14:38:29.082105,5090,1.026740,-0.202483,0.611921,0.013250,-0.012303,1.014865
2011-09-26T14:38:29.092105,5100,1.002793,-0.147977,0.606515,0.015256,-0.011495,1.013894
2011-09-26T14:38:29.102105,5110,0.978845,-0.093471,0.601109,0.017261,-0.010687,1.012922
2011-09-26T14:38:29.112105,5120,0.954897,-0.038965,0.595702,0.019267,-0.009880,1.011950
2011-09-26T14:38:29.122105,5130,0.930949,0.015541,0.590296,0.021272,-0.009072,1.010979
2011-09-26T14:38:29.132105,5140,0.907002,0.070048,0.584890,0.023278,-0.008264,1.010007
2011-09-26T14:38:29.142105,5150,0.883054,0.124554,0.579484,0.025283,-0.007457,1.009036
2011-09-26T14:38:29.152105,5160,0.859106,0.179060,0.574078,0.027289,-0.006649,1.008064
2011-09-26T14:38:29.162105,5170,0.829914,0.219879,0.572142,0.028773,-0.006010,1.007273
2011-09-26T14:38:29.172105,5180,0.782983,0.214407,0.581946,0.028494,-0.005940,1.007093
2011-09-26T14:38:29.182105,5190,0.736051,0.208935,0.591749,0.028215,-0.005871,1.006912
2011-09-26T14:38:29.192105,5200,0.689120,0.203463,0.601553,0.027936,-0.005802,1.006732
2011-09-26T14:38:29.202105,5210,0.642189,0.197990,0.611356,0.027656,-0.005732,1.006552
2011-09-26T14:38:29.212105,5220,0.595258,0.192518,0.621160,0.027377,-0.005663,1.006372
2011-09-26T14:38:29.222105,5230,0.548327,0.187046,0.630963,0.027098,-0.005593,1.006192
2011-09-26T14:38:29.232105,5240,0.501396,0.181574,0.640767,0.026819,-0.005524,1.006012
2011-09-26T14:38:29.242105,5250,0.454465,0.176102,0.650570,0.026540,-0.005454,1.005831
2011-09-26T14:38:29.252105,5260,0.407534,0.170630,0.660374,0.026260,-0.005385,1.005651
2011-09-26T14:38:29.262105,5270,0.355656,0.160478,0.665685,0.026053,-0.005211,1.005415
2011-09-26T14:38:29.272105,5280,0.287761,0.135180,0.656452,0.026077,-0.004697,1.004997
2011-09-26T14:38:29.282105,5290,0.219867,0.109882,0.647219,0.026101,-0.004183,1.004579
2011-09-26T14:38:29.292105,5300,0.151972,0.084584,0.637986,0.026125,-0.003670,1.004161
2011-09-26T14:38:29.302105,5310,0.084078,0.059286,0.628753,0.026149,-0.003156,1.003743
2011-09-26T14:38:29.312105,5320,0.016183,0.033988,0.619521,0.026173,-0.002643,1.003325
2011-09-26T14:38:29.322105,5330,-0.051711,0.008690,0.610288,0.026197,-0.002129,1.002907
2011-09-26T14:38:29.332105,5340,-0.119605,-0.016608,0.601055,0.026221,-0.001615,1.002489
2011-09-26T14:38:29.342105,5350,-0.187500,-0.041906,0.591822,0.026246,-0.001102,1.002071
2011-09-26T14:38:29.352105,5360,-0.255394,-0.067204,0.582589,0.026270,-0.000588,1.001653
2011-09-26T14:38:29.362105,5370,-0.323289,-0.092502,0.573357,0.026294,-0.000074,1.001235
2011-09-26T14:38:29.372105,5380,-0.367277,-0.114916,0.562773,0.026349,-0.000243,1.000785
2011-09-26T14:38:29.382105,5390,-0.336869,-0.128352,0.547986,0.026503,-0.002534,1.000234
2011-09-26T14:38:29.392105,5400,-0.306460,-0.141789,0.533199,0.026657,-0.004825,0.999684
2011-09-26T14:38:29.402105,5410,-0.276052,-0.155226,0.518412,0.026811,-0.007115,0.999133
2011-09-26T14:38:29.412105,5420,-0.245643,-0.168663,0.503625,0.026965,-0.009406,0.998582
2011-09-26T14:38:29.422105,5430,-0.215235,-0.182100,0.488838,0.027119,-0.011697,0.998032
2011-09-26T14:38:29.432105,5440,-0.184826,-0.195537,0.474051,0.027273,-0.013988,0.997481
2011-09-26T14:38:29.442105,5450,-0.154418,-0.208974,0.459264,0.027427,-0.016279,0.996930
2011-09-26T14:38:29.452105,5460,-0.124009,-0.222410,0.444477,0.027581,-0.018570,0.996379
2011-09-26T14:38:29.462105,5470,-0.093600,-0.235847,0.429690,0.027735,-0.020861,0.995829
2011-09-26T14:38:29.472105,5480,-0.058045,-0.238443,0.416443,0.028062,-0.022690,0.995091
2011-09-26T14:38:29.482105,5490,-0.006621,-0.207610,0.407945,0.028924,-0.023097,0.993775
2011-09-26T14:38:29.492105,5500,0.044803,-0.176778,0.399447,0.029786,-0.023504,0.992460
2011-09-26T14:38:29.502105,5510,0.096226,-0.145946,0.390949,0.030648,-0.023911,0.991145
2011-09-26T14:38:29.512105,5520,0.147650,-0.115113,0.382451,0.031510,-0.024318,0.989830
2011-09-26T14:38:29.522105,5530,0.199074,-0.084281,0.373953,0.032372,-0.024725,0.988514
2011-09-26T14:38:29.532105,5540,0.250498,-0.053449,0.365455,0.033234,-0.025132,0.987199
2011-09-26T14:38:29.542105,5550,0.301922,-0.022616,0.356957,0.034096,-0.025539,0.985884
2011-09-26T14:38:29.552105,5560,0.353346,0.008216,0.348459,0.034958,-0.025946,0.984568
2011-09-26T14:38:29.562105,5570,0.404770,0.039048,0.339961,0.035820,-0.026353,0.983253
2011-09-26T14:38:29.572105,5580,0.454970,0.066034,0.324100,0.036447,-0.026504,0.982475
2011-09-26T14:38:29.582105,5590,0.501435,0.081280,0.285771,0.036356,-0.025873,0.983335
2011-09-26T14:38:29.592105,5600,0.547899,0.096527,0.247442,0.036265,-0.025243,0.984195
2011-09-26T14:38:29.602105,5610,0.594364,0.111773,0.209113,0.036174,-0.024612,0.985055
2011-09-26T14:38:29.612105,5620,0.640828,0.127019,0.170784,0.036084,-0.023981,0.985915
2011-09-26T14:38:29.622105,5630,0.687293,0.142266,0.132454,0.035993,-0.023351,0.986775
2011-09-26T14:38:29.632105,5640,0.733757,0.157512,0.094125,0.035902,-0.022720,0.987635
2011-09-26T14:38:29.642105,5650,0.780222,0.172759,0.055796,0.035811,-0.022089,0.988495
2011-09-26T14:38:29.652105,5660,0.826687,0.188005,0.017467,0.035720,-0.021459,0.989355
2011-09-26T14:38:29.662105,5670,0.873151,0.203251,-0.020862,0.035630,-0.020828,0.990216
2011-09-26T14:38:29.672105,5680,0.919616,0.218498,-0.059191,0.035539,-0.020197,0.991076
2011-09-26T14:38:29.682105,5690,0.958699,0.233606,-0.105127,0.035089,-0.019472,0.992402
2011-09-26T14:38:29.692105,5700,0.976216,0.248312,-0.173285,0.033592,-0.018468,0.995090
2011-09-26T14:38:29.702105,5710,0.993733,0.263018,-0.241442,0.032095,-0.017464,0.997778
2011-09-26T14:38:29.712105,5720,1.011251,0.277724,-0.309600,0.030598,-0.016460,1.000466
2011-09-26T14:38:29.722105,5730,1.028768,0.292430,-0.377757,0.029101,-0.015456,1.003155
2011-09-26T14:38:29.732105,5740,1.046285,0.307136,-0.445915,0.027604,-0.014452,1.005843
2011-09-26T14:38:29.742105,5750,1.063803,0.321842,-0.514072,0.026106,-0.013448,1.008531
2011-09-26T14:38:29.752105,5760,1.081320,0.336548,-0.582230,0.024609,-0.012444,1.011219
2011-09-26T14:38:29.762105,5770,1.098837,0.351254,-0.650387,0.023112,-0.011440,1.013907
2011-09-26T14:38:29.772105,5780,1.116355,0.365960,-0.718545,0.021615,-0.010437,1.016595
2011-09-26T14:38:29.782105,5790,1.089716,0.369586,-0.777879,0.020180,-0.009376,1.018731
2011-09-26T14:38:29.792105,5800,0.934339,0.340906,-0.811487,0.018929,-0.008151,1.019258
2011-09-26T14:38:29.802105,5810,0.778962,0.312226,-0.845095,0.017677,-0.006927,1.019784
2011-09-26T14:38:29.812105,5820,0.623586,0.283546,-0.878703,0.016425,-0.005702,1.020310
2011-09-26T14:38:29.822105,5830,0.468209,0.254866,-0.912312,0.015173,-0.004477,1.020837
2011-09-26T14:38:29.832105,5840,0.312832,0.226186,-0.945920,0.013922,-0.003252,1.021363
2011-09-26T14:38:29.842105,5850,0.157456,0.197506,-0.979528,0.012670,-0.002027,1.021889
2011-09-26T14:38:29.852105,5860,0.002079,0.168826,-1.013136,0.011418,-0.000803,1.022416
2011-09-26T14:38:29.862105,5870,-0.153297,0.140146,-1.046745,0.010166,0.000422,1.022942
2011-09-26T14:38:29.872105,5880,-0.308674,0.111467,-1.080353,0.008915,0.001647,1.023468
2011-09-26T14:38:29.882105,5890,-0.437146,0.085791,-1.112849,0.007961,0.001798,1.023120
2011-09-26T14:38:29.892105,5900,-0.490303,0.068525,-1.142234,0.007844,-0.001058,1.020322
2011-09-26T14:38:29.902105,5910,-0.543460,0.051259,-1.171618,0.007726,-0.003914,1.017524
2011-09-26T14:38:29.912105,5920,-0.596617,0.033994,-1.201002,0.007608,-0.006770,1.014726
2011-09-26T14:38:29.922105,5930,-0.649774,0.016728,-1.230386,0.007491,-0.009625,1.011928
2011-09-26T14:38:29.932105,5940,-0.702930,-0.000538,-1.259770,0.007373,-0.012481,1.009130
2011-09-26T14:38:29.942105,5950,-0.756087,-0.017803,-1.289154,0.007255,-0.015337,1.006333
2011-09-26T14:38:29.952105,5960,-0.809244,-0.035069,-1.318539,0.007138,-0.018193,1.003535
2011-09-26T14:38:29.962105,5970,-0.862401,-0.052335,-1.347923,0.007020,-0.021048,1.000737
2011-09-26T14:38:29.972105,5980,-0.915558,-0.069601,-1.377307,0.006903,-0.023904,0.997939
2011-09-26T14:38:29.982105,5990,-0.968715,-0.086866,-1.406691,0.006785,-0.026760,0.995141
2011-09-26T14:38:29.992105,6000,-0.986400,-0.111537,-1.448219,0.006952,-0.029307,0.992378
2011-09-26T14:38:30.002105,6010,-0.909620,-0.155926,-1.522088,0.007878,-0.031035,0.989708
2011-09-26T14:38:30.012105,6020,-0.832840,-0.200316,-1.595958,0.008805,-0.032762,0.987037
2011-09-26T14:38:30.022105,6030,-0.756060,-0.244705,-1.669827,0.009731,-0.034489,0.984367
2011-09-26T14:38:30.032105,6040,-0.679280,-0.289095,-1.743696,0.010657,-0.036217,0.981696
2011-09-26T14:38:30.042105,6050,-0.602500,-0.333484,-1.817565,0.011583,-0.037944,0.979026
2011-09-26T14:38:30.052105,6060,-0.525720,-0.377874,-1.891434,0.012509,-0.039672,0.976356
2011-09-26T14:38:30.062105,6070,-0.448940,-0.422263,-1.965303,0.013436,-0.041399,0.973685
2011-09-26T14:38:30.072105,6080,-0.372160,-0.466653,-2.039172,0.014362,-0.043126,0.971015
2011-09-26T14:38:30.082105,6090,-0.295380,-0.511042,-2.113041,0.015288,-0.044854,0.968344
2011-09-26T14:38:30.092105,6100,-0.205116,-0.550518,-2.186119,0.016086,-0.046564,0.966703
2011-09-26T14:38:30.102105,6110,-0.075083,-0.575498,-2.256864,0.016506,-0.048223,0.968099
2011-09-26T14:38:30.112105,6120,0.054951,-0.600479,-2.327609,0.016926,-0.049882,0.969494
2011-09-26T14:38:30.122105,6130,0.184984,-0.625460,-2.398355,0.017346,-0.051541,0.970890
2011-09-26T14:38:30.132105,6140,0.315017,-0.650441,-2.469100,0.017766,-0.053201,0.972285
2011-09-26T14:38:30.142105,6150,0.445050,-0.675421,-2.539845,0.018185,-0.054860,0.973681
2011-09-26T14:38:30.152105,6160,0.575084,-0.700402,-2.610590,0.018605,-0.056519,0.975076
2011-09-26T14:38:30.162105,6170,0.705117,-0.725383,-2.681336,0.019025,-0.058178,0.976471
2011-09-26T14:38:30.172105,6180,0.835150,-0.750364,-2.752081,0.019445,-0.059837,0.977867
2011-09-26T14:38:30.182105,6190,0.965183,-0.775345,-2.822826,0.019865,-0.061497,0.979262
2011-09-26T14:38:30.192105,6200,1.095217,-0.800325,-2.893571,0.020285,-0.063156,0.980658
2011-09-26T14:38:30.202105,6210,1.226134,-0.809031,-2.934445,0.020881,-0.063960,0.982811
2011-09-26T14:38:30.212105,6220,1.359290,-0.776521,-2.899667,0.021925,-0.062599,0.986882
2011-09-26T14:38:30.222105,6230,1.492446,-0.744010,-2.864888,0.022969,-0.061237,0.990953
2011-09-26T14:38:30.232105,6240,1.625602,-0.711500,-2.830110,0.024013,-0.059876,0.995024
2011-09-26T14:38:30.242105,6250,1.758758,-0.678989,-2.795332,0.025057,-0.058515,0.999095
2011-09-26T14:38:30.252105,6260,1.891914,-0.646479,-2.760554,0.026100,-0.057154,1.003166
2011-09-26T14:38:30.262105,6270,2.025069,-0.613968,-2.725776,0.027144,-0.055792,1.007237
2011-09-26T14:38:30.272105,6280,2.158225,-0.581457,-2.690998,0.028188,-0.054431,1.011308
2011-09-26T14:38:30.282105,6290,2.291381,-0.548947,-2.656219,0.029232,-0.053070,1.015379
2011-09-26T14:38:30.292105,6300,2.424537,-0.516436,-2.621441,0.030276,-0.051708,1.019450
2011-09-26T14:38:30.302105,6310,2.498667,-0.469435,-2.561410,0.031121,-0.049402,1.023091
2011-09-26T14:38:30.312105,6320,2.425359,-0.386237,-2.438301,0.031468,-0.044733,1.025657
2011-09-26T14:38:30.322105,6330,2.352051,-0.303039,-2.315191,0.031815,-0.040065,1.028223
2011-09-26T14:38:30.332105,6340,2.278743,-0.219841,-2.192082,0.032163,-0.035396,1.030790
2011-09-26T14:38:30.342105,6350,2.205434,-0.136644,-2.068972,0.032510,-0.030728,1.033356
2011-09-26T14:38:30.352105,6360,2.132126,-0.053446,-1.945862,0.032858,-0.026059,1.035922
2011-09-26T14:38:30.362105,6370,2.058818,0.029752,-1.822753,0.033205,-0.021391,1.038488
2011-09-26T14:38:30.372105,6380,1.985510,0.112950,-1.699643,0.033552,-0.016722,1.041055
2011-09-26T14:38:30.382105,6390,1.912202,0.196148,-1.576534,0.033900,-0.012054,1.043621
2011-09-26T14:38:30.392105,6400,1.838893,0.279345,-1.453424,0.034247,-0.007385,1.046187
2011-09-26T14:38:30.402105,6410,1.751694,0.359368,-1.338171,0.034640,-0.003785,1.047108
2011-09-26T14:38:30.412105,6420,1.630221,0.431554,-1.242301,0.035146,-0.002822,1.043971
2011-09-26T14:38:30.422105,6430,1.508748,0.503741,-1.146431,0.035652,-0.001858,1.040835
2011-09-26T14:38:30.432105,6440,1.387275,0.575927,-1.050561,0.036157,-0.000894,1.037698
2011-09-26T14:38:30.442105,6450,1.265802,0.648114,-0.954691,0.036663,0.000069,1.034561
2011-09-26T14:38:30.452105,6460,1.144329,0.720300,-0.858821,0.037168,0.001033,1.031424
2011-09-26T14:38:30.462105,6470,1.022855,0.792487,-0.762951,0.037674,0.001996,1.028287
2011-09-26T14:38:30.472105,6480,0.901382,0.864674,-0.667081,0.038180,0.002960,1.025150
2011-09-26T14:38:30.482105,6490,0.779909,0.936860,-0.571211,0.038685,0.003923,1.022013
2011-09-26T14:38:30.492105,6500,0.658436,1.009047,-0.475342,0.039191,0.004887,1.018876
2011-09-26T14:38:30.502105,6510,0.559466,1.054839,-0.379164,0.039493,0.005398,1.015686
2011-09-26T14:38:30.512105,6520,0.514901,1.036820,-0.282245,0.039302,0.004814,1.012368
2011-09-26T14:38:30.522105,6530,0.470336,1.018802,-0.185325,0.039111,0.004231,1.009050
2011-09-26T14:38:30.532105,6540,0.425771,1.000783,-0.088405,0.038920,0.003647,1.005732
2011-09-26T14:38:30.542105,6550,0.381206,0.982765,0.008515,0.038730,0.003064,1.002414
2011-09-26T14:38:30.552105,6560,0.336641,0.964746,0.105434,0.038539,0.002480,0.999096
2011-09-26T14:38:30.562105,6570,0.292076,0.946728,0.202354,0.038348,0.001897,0.995778
2011-09-26T14:38:30.572105,6580,0.247511,0.928709,0.299274,0.038158,0.001314,0.992460
2011-09-26T14:38:30.582105,6590,0.202946,0.910691,0.396194,0.037967,0.000730,0.989143
2011-09-26T14:38:30.592105,6600,0.158381,0.892672,0.493113,0.037776,0.000147,0.985825
2011-09-26T14:38:30.602105,6610,0.113816,0.874654,0.590033,0.037585,-0.000437,0.982507
2011-09-26T14:38:30.612105,6620,0.069376,0.851602,0.666553,0.037770,-0.000555,0.979426
2011-09-26T14:38:30.622105,6630,0.025234,0.816619,0.694719,0.038845,0.000428,0.976909
2011-09-26T14:38:30.632105,6640,-0.018909,0.781637,0.722885,0.039919,0.001412,0.974392
2011-09-26T14:38:30.642105,6650,-0.063051,0.746654,0.751052,0.040994,0.002395,0.971875
2011-09-26T14:38:30.652105,6660,-0.107194,0.711671,0.779218,0.042068,0.003378,0.969358
2011-09-26T14:38:30.662105,6670,-0.151336,0.676689,0.807384,0.043143,0.004362,0.966841
2011-09-26T14:38:30.672105,6680,-0.195479,0.641706,0.835550,0.044217,0.005345,0.964324
2011-09-26T14:38:30.682105,6690,-0.239622,0.606723,0.863716,0.045291,0.006329,0.961807
2011-09-26T14:38:30.692105,6700,-0.283764,0.571741,0.891882,0.046366,0.007312,0.959290
2011-09-26T14:38:30.702105,6710,-0.327907,0.536758,0.920048,0.047440,0.008295,0.956773
2011-09-26T14:38:30.712105,6720,-0.353366,0.480068,0.938352,0.048719,0.008819,0.955607
2011-09-26T14:38:30.722105,6730,-0.335538,0.373086,0.933809,0.050469,0.008277,0.957571
2011-09-26T14:38:30.732105,6740,-0.317711,0.266103,0.929267,0.052218,0.007734,0.959535
2011-09-26T14:38:30.742105,6750,-0.299883,0.159121,0.924724,0.053968,0.007192,0.961498
2011-09-26T14:38:30.752105,6760,-0.282056,0.052138,0.920181,0.055718,0.006650,0.963462
2011-09-26T14:38:30.762105,6770,-0.264228,-0.054844,0.915638,0.057468,0.006108,0.965426
2011-09-26T14:38:30.772105,6780,-0.246401,-0.161827,0.911096,0.059218,0.005566,0.967389
2011-09-26T14:38:30.782105,6790,-0.228573,-0.268809,0.906553,0.060968,0.005024,0.969353
2011-09-26T14:38:30.792105,6800,-0.210746,-0.375792,0.902010,0.062718,0.004481,0.971317
2011-09-26T14:38:30.802105,6810,-0.192918,-0.482774,0.897467,0.064468,0.003939,0.973280
2011-09-26T14:38:30.812105,6820,-0.178913,-0.561142,0.888636,0.066209,0.003612,0.975603
2011-09-26T14:38:30.822105,6830,-0.173431,-0.575698,0.870241,0.067929,0.003763,0.978726
2011-09-26T14:38:30.832105,6840,-0.167948,-0.590255,0.851846,0.069649,0.003914,0.981850
2011-09-26T14:38:30.842105,6850,-0.162466,-0.604811,0.833451,0.071369,0.004065,0.984973
2011-09-26T14:38:30.852105,6860,-0.156984,-0.619367,0.815056,0.073088,0.004216,0.988096
2011-09-26T14:38:30.862105,6870,-0.151502,-0.633924,0.796661,0.074808,0.004367,0.991220
2011-09-26T14:38:30.872105,6880,-0.146020,-0.648480,0.778267,0.076528,0.004518,0.994343
2011-09-26T14:38:30.882105,6890,-0.140538,-0.663036,0.759872,0.078248,0.004669,0.997466
2011-09-26T14:38:30.892105,6900,-0.135056,-0.677593,0.741477,0.079968,0.004820,1.000590
2011-09-26T14:38:30.902105,6910,-0.129574,-0.692149,0.723082,0.081688,0.004972,1.003713
2011-09-26T14:38:30.912105,6920,-0.124092,-0.706705,0.704687,0.083408,0.005123,1.006836
2011-09-26T14:38:30.922105,6930,-0.130287,-0.701302,0.687730,0.085175,0.005275,1.008965
2011-09-26T14:38:30.932105,6940,-0.161704,-0.652791,0.673879,0.087041,0.005430,1.008944
2011-09-26T14:38:30.942105,6950,-0.193121,-0.604281,0.660027,0.088907,0.005585,1.008923
2011-09-26T14:38:30.952105,6960,-0.224538,-0.555770,0.646176,0.090773,0.005741,1.008903
2011-09-26T14:38:30.962105,6970,-0.255955,-0.507259,0.632324,0.092639,0.005896,1.008882
2011-09-26T14:38:30.972105,6980,-0.287372,-0.458748,0.618473,0.094506,0.006051,1.008862
2011-09-26T14:38:30.982105,6990,-0.318789,-0.410237,0.604621,0.096372,0.006206,1.008841
2011-09-26T14:38:30.992105,7000,-0.350206,-0.361727,0.590770,0.098238,0.006361,1.008820
2011-09-26T14:38:31.002105,7010,-0.381623,-0.313216,0.576918,0.100104,0.006516,1.008800
2011-09-26T14:38:31.012105,7020,-0.413040,-0.264705,0.563067,0.101970,0.006672,1.008779
2011-09-26T14:38:31.022105,7030,-0.435977,-0.233000,0.537946,0.103545,0.006660,1.008745
2011-09-26T14:38:31.032105,7040,-0.440507,-0.237772,0.488366,0.104487,0.006286,1.008682
2011-09-26T14:38:31.042105,7050,-0.445037,-0.242545,0.438785,0.105429,0.005911,1.008618
2011-09-26T14:38:31.052105,7060,-0.449567,-0.247317,0.389204,0.106371,0.005537,1.008555
2011-09-26T14:38:31.062105,7070,-0.454097,-0.252090,0.339624,0.107313,0.005163,1.008492
2011-09-26T14:38:31.072105,7080,-0.458627,-0.256862,0.290043,0.108255,0.004789,1.008428
2011-09-26T14:38:31.082105,7090,-0.463157,-0.261635,0.240463,0.109197,0.004415,1.008365
2011-09-26T14:38:31.092105,7100,-0.467687,-0.266407,0.190882,0.110139,0.004041,1.008302
2011-09-26T14:38:31.102105,7110,-0.472218,-0.271180,0.141301,0.111081,0.003666,1.008238
2011-09-26T14:38:31.112105,7120,-0.476748,-0.275952,0.091721,0.112023,0.003292,1.008175
2011-09-26T14:38:31.122105,7130,-0.484413,-0.286541,0.033302,0.113124,0.002601,1.007861
2011-09-26T14:38:31.132105,7140,-0.498756,-0.309517,-0.043945,0.114564,0.001234,1.007011
2011-09-26T14:38:31.142105,7150,-0.513099,-0.332494,-0.121191,0.116004,-0.000133,1.006161
2011-09-26T14:38:31.152105,7160,-0.527442,-0.355470,-0.198437,0.117443,-0.001500,1.005312
2011-09-26T14:38:31.162105,7170,-0.541785,-0.378447,-0.275684,0.118883,-0.002868,1.004462
2011-09-26T14:38:31.172105,7180,-0.556128,-0.401423,-0.352930,0.120323,-0.004235,1.003612
2011-09-26T14:38:31.182105,7190,-0.570471,-0.424400,-0.430176,0.121762,-0.005602,1.002762
2011-09-26T14:38:31.192105,7200,-0.584814,-0.447376,-0.507423,0.123202,-0.006969,1.001913
2011-09-26T14:38:31.202105,7210,-0.599157,-0.470353,-0.584669,0.124642,-0.008336,1.001063
2011-09-26T14:38:31.212105,7220,-0.613500,-0.493329,-0.661915,0.126081,-0.009703,1.000213
2011-09-26T14:38:31.222105,7230,-0.627843,-0.516306,-0.739161,0.127521,-0.011070,0.999364
2011-09-26T14:38:31.232105,7240,-0.630077,-0.533860,-0.800994,0.129017,-0.012308,0.998761
2011-09-26T14:38:31.242105,7250,-0.606064,-0.539663,-0.829414,0.130636,-0.013265,0.998693
2011-09-26T14:38:31.252105,7260,-0.582051,-0.545466,-0.857835,0.132254,-0.014221,0.998625
2011-09-26T14:38:31.262105,7270,-0.558038,-0.551268,-0.886256,0.133873,-0.015178,0.998557
2011-09-26T14:38:31.272105,7280,-0.534025,-0.557071,-0.914677,0.135492,-0.016135,0.998490
2011-09-26T14:38:31.282105,7290,-0.510012,-0.562874,-0.943098,0.137110,-0.017091,0.998422
2011-09-26T14:38:31.292105,7300,-0.485999,-0.568676,-0.971519,0.138729,-0.018048,0.998354
2011-09-26T14:38:31.302105,7310,-0.461986,-0.574479,-0.999940,0.140347,-0.019005,0.998286
2011-09-26T14:38:31.312105,7320,-0.437973,-0.580281,-1.028361,0.141966,-0.019962,0.998218
2011-09-26T14:38:31.322105,7330,-0.413960,-0.586084,-1.056782,0.143585,-0.020918,0.998151
2011-09-26T14:38:31.332105,7340,-0.379259,-0.589705,-1.078858,0.144947,-0.021669,0.997807
2011-09-26T14:38:31.342105,7350,-0.323003,-0.588927,-1.088139,0.145791,-0.022005,0.996909
2011-09-26T14:38:31.352105,7360,-0.266748,-0.588149,-1.097420,0.146636,-0.022341,0.996010
2011-09-26T14:38:31.362105,7370,-0.210492,-0.587371,-1.106702,0.147481,-0.022677,0.995111
2011-09-26T14:38:31.372105,7380,-0.154236,-0.586593,-1.115983,0.148326,-0.023013,0.994213
2011-09-26T14:38:31.382105,7390,-0.097981,-0.585815,-1.125264,0.149170,-0.023349,0.993314
2011-09-26T14:38:31.392105,7400,-0.041725,-0.585037,-1.134546,0.150015,-0.023685,0.992415
2011-09-26T14:38:31.402105,7410,0.014531,-0.584259,-1.143827,0.150860,-0.024021,0.991517
2011-09-26T14:38:31.412105,7420,0.070787,-0.583481,-1.153108,0.151704,-0.024357,0.990618
2011-09-26T14:38:31.422105,7430,0.127042,-0.582702,-1.162389,0.152549,-0.024693,0.989719
2011-09-26T14:38:31.432105,7440,0.183298,-0.581924,-1.171671,0.153394,-0.025029,0.988821
2011-09-26T14:38:31.442105,7450,0.232849,-0.576329,-1.179500,0.154397,-0.025180,0.989075
2011-09-26T14:38:31.452105,7460,0.269097,-0.561176,-1.184447,0.155713,-0.024962,0.991618
2011-09-26T14:38:31.462105,7470,0.305344,-0.546022,-1.189394,0.157030,-0.024744,0.994162
2011-09-26T14:38:31.472105,7480,0.341592,-0.530869,-1.194341,0.158346,-0.024526,0.996705
2011-09-26T14:38:31.482105,7490,0.377839,-0.515715,-1.199288,0.159662,-0.024308,0.999248
2011-09-26T14:38:31.492105,7500,0.414087,-0.500562,-1.204235,0.160979,-0.024091,1.001791
2011-09-26T14:38:31.502105,7510,0.450334,-0.485408,-1.209183,0.162295,-0.023873,1.004334
2011-09-26T14:38:31.512105,7520,0.486582,-0.470255,-1.214130,0.163612,-0.023655,1.006877
2011-09-26T14:38:31.522105,7530,0.522829,-0.455102,-1.219077,0.164928,-0.023437,1.009420
2011-09-26T14:38:31.532105,7540,0.559077,-0.439948,-1.224024,0.166245,-0.023219,1.011963
2011-09-26T14:38:31.542105,7550,0.575337,-0.422365,-1.221815,0.167252,-0.022862,1.013518
2011-09-26T14:38:31.552105,7560,0.549876,-0.399712,-1.204669,0.167615,-0.022216,1.013010
2011-09-26T14:38:31.562105,7570,0.524416,-0.377058,-1.187522,0.167978,-0.021569,1.012501
2011-09-26T14:38:31.572105,7580,0.498955,-0.354405,-1.170376,0.168341,-0.020923,1.011993
2011-09-26T14:38:31.582105,7590,0.473495,-0.331751,-1.153229,0.168704,-0.020276,1.011485
2011-09-26T14:38:31.592105,7600,0.448034,-0.309097,-1.136083,0.169067,-0.019629,1.010976
2011-09-26T14:38:31.602105,7610,0.422574,-0.286444,-1.118936,0.169430,-0.018983,1.010468
2011-09-26T14:38:31.612105,7620,0.397114,-0.263790,-1.101790,0.169793,-0.018336,1.009960
2011-09-26T14:38:31.622105,7630,0.371653,-0.241137,-1.084643,0.170155,-0.017690,1.009452
2011-09-26T14:38:31.632105,7640,0.346193,-0.218483,-1.067497,0.170518,-0.017043,1.008943
2011-09-26T14:38:31.642105,7650,0.309765,-0.217868,-1.049733,0.171031,-0.016211,1.008112
2011-09-26T14:38:31.652105,7660,0.252873,-0.258381,-1.030815,0.171822,-0.015033,1.006678
2011-09-26T14:38:31.662105,7670,0.195980,-0.298893,-1.011898,0.172613,-0.013855,1.005244
2011-09-26T14:38:31.672105,7680,0.139088,-0.339405,-0.992981,0.173405,-0.012677,1.003810
2011-09-26T14:38:31.682105,7690,0.082195,-0.379918,-0.974063,0.174196,-0.011499,1.002376
2011-09-26T14:38:31.692105,7700,0.025303,-0.420430,-0.955146,0.174987,-0.010321,1.000941
2011-09-26T14:38:31.702105,7710,-0.031590,-0.460942,-0.936229,0.175778,-0.009143,0.999507
2011-09-26T14:38:31.712105,7720,-0.088482,-0.501455,-0.917312,0.176570,-0.007965,0.998073
2011-09-26T14:38:31.722105,7730,-0.145375,-0.541967,-0.898394,0.177361,-0.006787,0.996639
2011-09-26T14:38:31.732105,7740,-0.202267,-0.582479,-0.879477,0.178152,-0.005609,0.995205
2011-09-26T14:38:31.742105,7750,-0.259160,-0.622992,-0.860560,0.178943,-0.004431,0.993771
2011-09-26T14:38:31.752105,7760,-0.306698,-0.669709,-0.850131,0.179694,-0.004027,0.992967
2011-09-26T14:38:31.762105,7770,-0.336993,-0.727864,-0.855349,0.180371,-0.005052,0.993324
2011-09-26T14:38:31.772105,7780,-0.367288,-0.786019,-0.860568,0.181048,-0.006076,0.993681
2011-09-26T14:38:31.782105,7790,-0.397583,-0.844174,-0.865786,0.181726,-0.007101,0.994038
2011-09-26T14:38:31.792105,7800,-0.427878,-0.902329,-0.871005,0.182403,-0.008125,0.994395
2011-09-26T14:38:31.802105,7810,-0.458173,-0.960484,-0.876224,0.183080,-0.009150,0.994752
2011-09-26T14:38:31.812105,7820,-0.488468,-1.018639,-0.881442,0.183757,-0.010175,0.995109
2011-09-26T14:38:31.822105,7830,-0.518763,-1.076794,-0.886661,0.184434,-0.011199,0.995466
2011-09-26T14:38:31.832105,7840,-0.549058,-1.134949,-0.891879,0.185111,-0.012224,0.995823
2011-09-26T14:38:31.842105,7850,-0.579353,-1.193104,-0.897098,0.185788,-0.013248,0.996180
2011-09-26T14:38:31.852105,7860,-0.578513,-1.239484,-0.898796,0.186407,-0.014682,0.996144
2011-09-26T14:38:31.862105,7870,-0.521131,-1.264477,-0.894101,0.186922,-0.016859,0.995395
2011-09-26T14:38:31.872105,7880,-0.463748,-1.289470,-0.889405,0.187437,-0.019036,0.994645
2011-09-26T14:38:31.882105,7890,-0.406366,-1.314463,-0.884709,0.187951,-0.021213,0.993896
2011-09-26T14:38:31.892105,7900,-0.348983,-1.339456,-0.880014,0.188466,-0.023390,0.993146
2011-09-26T14:38:31.902105,7910,-0.291601,-1.364449,-0.875318,0.188981,-0.025566,0.992397
2011-09-26T14:38:31.912105,7920,-0.234218,-1.389442,-0.870623,0.189496,-0.027743,0.991647
2011-09-26T14:38:31.922105,7930,-0.176836,-1.414435,-0.865927,0.190011,-0.029920,0.990898
2011-09-26T14:38:31.932105,7940,-0.119453,-1.439428,-0.861231,0.190526,-0.032097,0.990148
2011-09-26T14:38:31.942105,7950,-0.062071,-1.464421,-0.856536,0.191040,-0.034274,0.989399
2011-09-26T14:38:31.952105,7960,-0.000208,-1.451116,-0.855225,0.191702,-0.034929,0.990232
2011-09-26T14:38:31.962105,7970,0.069516,-1.370606,-0.859853,0.192619,-0.032915,0.993840
2011-09-26T14:38:31.972105,7980,0.139240,-1.290096,-0.864482,0.193537,-0.030900,0.997449
2011-09-26T14:38:31.982105,7990,0.208965,-1.209586,-0.869110,0.194455,-0.028886,1.001057
2011-09-26T14:38:31.992105,8000,0.278689,-1.129077,-0.873739,0.195373,-0.026871,1.004666
2011-09-26T14:38:32.002105,8010,0.348413,-1.048567,-0.878367,0.196290,-0.024857,1.008274
2011-09-26T14:38:32.012105,8020,0.418137,-0.968057,-0.882996,0.197208,-0.022843,1.011883
2011-09-26T14:38:32.022105,8030,0.487862,-0.887547,-0.887625,0.198126,-0.020828,1.015491
2011-09-26T14:38:32.032105,8040,0.557586,-0.807037,-0.892253,0.199044,-0.018814,1.019100
2011-09-26T14:38:32.042105,8050,0.627310,-0.726528,-0.896882,0.199962,-0.016799,1.022708
2011-09-26T14:38:32.052105,8060,0.697034,-0.646018,-0.901510,0.200879,-0.014785,1.026317
2011-09-26T14:38:32.062105,8070,0.733651,-0.565553,-0.913445,0.201222,-0.013196,1.029120
2011-09-26T14:38:32.072105,8080,0.705969,-0.485177,-0.939569,0.200447,-0.012434,1.030358
2011-09-26T14:38:32.082105,8090,0.678287,-0.404800,-0.965693,0.199672,-0.011671,1.031597
2011-09-26T14:38:32.092105,8100,0.650605,-0.324424,-0.991817,0.198897,-0.010909,1.032835
2011-09-26T14:38:32.102105,8110,0.622923,-0.244047,-1.017941,0.198122,-0.010147,1.034074
2011-09-26T14:38:32.112105,8120,0.595241,-0.163671,-1.044065,0.197346,-0.009385,1.035312
2011-09-26T14:38:32.122105,8130,0.567559,-0.083294,-1.070189,0.196571,-0.008622,1.036550
2011-09-26T14:38:32.132105,8140,0.539877,-0.002918,-1.096313,0.195796,-0.007860,1.037789
2011-09-26T14:38:32.142105,8150,0.512195,0.077459,-1.122436,0.195021,-0.007098,1.039027
2011-09-26T14:38:32.152105,8160,0.484514,0.157835,-1.148560,0.194246,-0.006335,1.040266
2011-09-26T14:38:32.162105,8170,0.457628,0.247631,-1.161626,0.193262,-0.006445,1.040371
2011-09-26T14:38:32.172105,8180,0.432068,0.353125,-1.152929,0.191929,-0.008007,1.038587
2011-09-26T14:38:32.182105,8190,0.406508,0.458620,-1.144231,0.190595,-0.009570,1.036803
2011-09-26T14:38:32.192105,8200,0.380949,0.564114,-1.135533,0.189262,-0.011132,1.035020
2011-09-26T14:38:32.202105,8210,0.355389,0.669608,-1.126836,0.187929,-0.012695,1.033236
2011-09-26T14:38:32.212105,8220,0.329830,0.775103,-1.118138,0.186595,-0.014257,1.031452
2011-09-26T14:38:32.222105,8230,0.304270,0.880597,-1.109440,0.185262,-0.015820,1.029669
2011-09-26T14:38:32.232105,8240,0.278711,0.986091,-1.100742,0.183929,-0.017382,1.027885
2011-09-26T14:38:32.242105,8250,0.253151,1.091586,-1.092045,0.182596,-0.018945,1.026102
2011-09-26T14:38:32.252105,8260,0.227592,1.197080,-1.083347,0.181262,-0.020507,1.024318
2011-09-26T14:38:32.262105,8270,0.260884,1.245441,-1.069318,0.179642,-0.022220,1.021882
2011-09-26T14:38:32.272105,8280,0.393403,1.197472,-1.046300,0.177538,-0.024185,1.018345
2011-09-26T14:38:32.282105,8290,0.525923,1.149503,-1.023282,0.175434,-0.026150,1.014809
2011-09-26T14:38:32.292105,8300,0.658443,1.101534,-1.000264,0.173330,-0.028114,1.011273
2011-09-26T14:38:32.302105,8310,0.790963,1.053565,-0.977246,0.171226,-0.030079,1.007737
2011-09-26T14:38:32.312105,8320,0.923483,1.005596,-0.954228,0.169122,-0.032044,1.004200
2011-09-26T14:38:32.322105,8330,1.056003,0.957628,-0.931209,0.167018,-0.034009,1.000664
2011-09-26T14:38:32.332105,8340,1.188523,0.909659,-0.908191,0.164914,-0.035974,0.997128
2011-09-26T14:38:32.342105,8350,1.321043,0.861690,-0.885173,0.162810,-0.037939,0.993592
2011-09-26T14:38:32.352105,8360,1.453563,0.813721,-0.862155,0.160706,-0.039904,0.990055
2011-09-26T14:38:32.362105,8370,1.586083,0.765752,-0.839137,0.158602,-0.041869,0.986519
2011-09-26T14:38:32.372105,8380,1.673643,0.703649,-0.813419,0.156780,-0.042307,0.983367
2011-09-26T14:38:32.382105,8390,1.687475,0.618370,-0.783274,0.155420,-0.040240,0.980844
2011-09-26T14:38:32.392105,8400,1.701307,0.533091,-0.753129,0.154059,-0.038174,0.978322
2011-09-26T14:38:32.402105,8410,1.715139,0.447811,-0.722984,0.152699,-0.036108,0.975799
2011-09-26T14:38:32.412105,8420,1.728971,0.362532,-0.692839,0.151339,-0.034042,0.973277
2011-09-26T14:38:32.422105,8430,1.742803,0.277253,-0.662693,0.149978,-0.031976,0.970754
2011-09-26T14:38:32.432105,8440,1.756635,0.191974,-0.632548,0.148618,-0.029910,0.968232
2011-09-26T14:38:32.442105,8450,1.770467,0.106695,-0.602403,0.147258,-0.027844,0.965709
2011-09-26T14:38:32.452105,8460,1.784299,0.021415,-0.572258,0.145897,-0.025778,0.963187
2011-09-26T14:38:32.462105,8470,1.798131,-0.063864,-0.542113,0.144537,-0.023711,0.960664
2011-09-26T14:38:32.472105,8480,1.781345,-0.104735,-0.509250,0.143423,-0.020896,0.960303
2011-09-26T14:38:32.482105,8490,1.715156,-0.073951,-0.472000,0.142707,-0.016872,0.963430
2011-09-26T14:38:32.492105,8500,1.648967,-0.043166,-0.434751,0.141990,-0.012848,0.966556
2011-09-26T14:38:32.502105,8510,1.582778,-0.012382,-0.397502,0.141273,-0.008823,0.969682
2011-09-26T14:38:32.512105,8520,1.516589,0.018403,-0.360253,0.140557,-0.004799,0.972809
2011-09-26T14:38:32.522105,8530,1.450400,0.049187,-0.323004,0.139840,-0.000775,0.975935
2011-09-26T14:38:32.532105,8540,1.384211,0.079972,-0.285755,0.139123,0.003249,0.979061
2011-09-26T14:38:32.542105,8550,1.318022,0.110756,-0.248506,0.138407,0.007273,0.982188
2011-09-26T14:38:32.552105,8560,1.251833,0.141541,-0.211257,0.137690,0.011298,0.985314
2011-09-26T14:38:32.562105,8570,1.185644,0.172325,-0.174008,0.136973,0.015322,0.988440
2011-09-26T14:38:32.572105,8580,1.142143,0.198403,-0.125742,0.135904,0.017210,0.991516
2011-09-26T14:38:32.582105,8590,1.136149,0.216700,-0.059263,0.134250,0.015566,0.994508
2011-09-26T14:38:32.592105,8600,1.130154,0.234997,0.007215,0.132597,0.013922,0.997500
2011-09-26T14:38:32.602105,8610,1.124160,0.253294,0.073694,0.130944,0.012278,1.000492
2011-09-26T14:38:32.612105,8620,1.118166,0.271591,0.140173,0.129291,0.010634,1.003484
2011-09-26T14:38:32.622105,8630,1.112172,0.289888,0.206652,0.127637,0.008990,1.006476
2011-09-26T14:38:32.632105,8640,1.106178,0.308185,0.273131,0.125984,0.007347,1.009468
2011-09-26T14:38:32.642105,8650,1.100184,0.326482,0.339609,0.124331,0.005703,1.012460
2011-09-26T14:38:32.652105,8660,1.094190,0.344779,0.406088,0.122677,0.004059,1.015452
2011-09-26T14:38:32.662105,8670,1.088196,0.363077,0.472567,0.121024,0.002415,1.018444
2011-09-26T14:38:32.672105,8680,1.082202,0.381374,0.539046,0.119371,0.000771,1.021436
2011-09-26T14:38:32.682105,8690,1.087339,0.392159,0.605399,0.117769,-0.000033,1.022942
2011-09-26T14:38:32.692105,8700,1.109676,0.391337,0.671558,0.116247,0.000460,1.022153
2011-09-26T14:38:32.702105,8710,1.132013,0.390515,0.737717,0.114725,0.000952,1.021363
2011-09-26T14:38:32.712105,8720,1.154350,0.389693,0.803875,0.113203,0.001445,1.020573
2011-09-26T14:38:32.722105,8730,1.176687,0.388870,0.870034,0.111681,0.001938,1.019784
2011-09-26T14:38:32.732105,8740,1.199024,0.388048,0.936193,0.110159,0.002431,1.018994
2011-09-26T14:38:32.742105,8750,1.221362,0.387226,1.002352,0.108636,0.002924,1.018204
2011-09-26T14:38:32.752105,8760,1.243699,0.386404,1.068511,0.107114,0.003416,1.017414
2011-09-26T14:38:32.762105,8770,1.266036,0.385582,1.134670,0.105592,0.003909,1.016625
2011-09-26T14:38:32.772105,8780,1.288373,0.384760,1.200829,0.104070,0.004402,1.015835
2011-09-26T14:38:32.782105,8790,1.258273,0.370707,1.263606,0.102482,0.006685,1.012309
2011-09-26T14:38:32.792105,8800,1.147519,0.336305,1.321181,0.100793,0.011721,1.004575
2011-09-26T14:38:32.802105,8810,1.036765,0.301902,1.378757,0.099104,0.016757,0.996841
2011-09-26T14:38:32.812105,8820,0.926010,0.267499,1.436333,0.097414,0.021794,0.989107
2011-09-26T14:38:32.822105,8830,0.815256,0.233097,1.493909,0.095725,0.026830,0.981373
2011-09-26T14:38:32.832105,8840,0.704502,0.198694,1.551485,0.094036,0.031866,0.973638
2011-09-26T14:38:32.842105,8850,0.593748,0.164291,1.609060,0.092347,0.036902,0.965904
2011-09-26T14:38:32.852105,8860,0.482993,0.129889,1.666636,0.090657,0.041938,0.958170
2011-09-26T14:38:32.862105,8870,0.372239,0.095486,1.724212,0.088968,0.046975,0.950436
2011-09-26T14:38:32.872105,8880,0.261485,0.061083,1.781788,0.087279,0.052011,0.942702
2011-09-26T14:38:32.882105,8890,0.150731,0.026681,1.839363,0.085589,0.057047,0.934968
2011-09-26T14:38:32.892105,8900,0.080793,0.017423,1.884020,0.084463,0.059254,0.934246
2011-09-26T14:38:32.902105,8910,0.071270,0.045385,1.909554,0.084170,0.057273,0.943905
2011-09-26T14:38:32.912105,8920,0.061747,0.073347,1.935087,0.083877,0.055292,0.953563
2011-09-26T14:38:32.922105,8930,0.052224,0.101308,1.960621,0.083584,0.053311,0.963221
2011-09-26T14:38:32.932105,8940,0.042701,0.129270,1.986155,0.083291,0.051330,0.972880
2011-09-26T14:38:32.942105,8950,0.033178,0.157232,2.011688,0.082998,0.049349,0.982538
2011-09-26T14:38:32.952105,8960,0.023656,0.185193,2.037222,0.082705,0.047368,0.992197
2011-09-26T14:38:32.962105,8970,0.014133,0.213155,2.062756,0.082412,0.045387,1.001855
2011-09-26T14:38:32.972105,8980,0.004610,0.241117,2.088290,0.082119,0.043406,1.011514
2011-09-26T14:38:32.982105,8990,-0.004913,0.269079,2.113823,0.081826,0.041425,1.021172
2011-09-26T14:38:32.992105,9000,-0.003121,0.344543,2.154138,0.080246,0.039742,1.027238
2011-09-26T14:38:33.002105,9010,0.015088,0.488930,2.215900,0.076799,0.038492,1.028091
2011-09-26T14:38:33.012105,9020,0.033297,0.633318,2.277661,0.073352,0.037243,1.028944
2011-09-26T14:38:33.022105,9030,0.051506,0.777705,2.339422,0.069905,0.035993,1.029798
2011-09-26T14:38:33.032105,9040,0.069715,0.922093,2.401184,0.066458,0.034743,1.030651
2011-09-26T14:38:33.042105,9050,0.087924,1.066480,2.462945,0.063010,0.033494,1.031504
2011-09-26T14:38:33.052105,9060,0.106133,1.210868,2.524707,0.059563,0.032244,1.032357
2011-09-26T14:38:33.062105,9070,0.124342,1.355255,2.586468,0.056116,0.030994,1.033210
2011-09-26T14:38:33.072105,9080,0.142551,1.499643,2.648229,0.052669,0.029744,1.034064
2011-09-26T14:38:33.082105,9090,0.160760,1.644030,2.709991,0.049222,0.028495,1.034917
2011-09-26T14:38:33.092105,9100,0.139580,1.738961,2.766180,0.045721,0.028858,1.032885
2011-09-26T14:38:33.102105,9110,0.060865,1.761655,2.814232,0.042141,0.031577,1.026640
2011-09-26T14:38:33.112105,9120,-0.017850,1.784348,2.862283,0.038561,0.034297,1.020395
2011-09-26T14:38:33.122105,9130,-0.096565,1.807041,2.910335,0.034981,0.037016,1.014149
2011-09-26T14:38:33.132105,9140,-0.175279,1.829734,2.958386,0.031401,0.039736,1.007904
2011-09-26T14:38:33.142105,9150,-0.253994,1.852427,3.006437,0.027821,0.042455,1.001659
2011-09-26T14:38:33.152105,9160,-0.332709,1.875120,3.054489,0.024241,0.045174,0.995413
2011-09-26T14:38:33.162105,9170,-0.411424,1.897813,3.102540,0.020661,0.047894,0.989168
2011-09-26T14:38:33.172105,9180,-0.490138,1.920506,3.150592,0.017081,0.050613,0.982923
2011-09-26T14:38:33.182105,9190,-0.568853,1.943199,3.198643,0.013501,0.053333,0.976678
2011-09-26T14:38:33.192105,9200,-0.647568,1.965892,3.246694,0.009921,0.056052,0.970432
2011-09-26T14:38:33.202105,9210,-0.670879,1.912561,3.276644,0.006923,0.057129,0.966532
2011-09-26T14:38:33.212105,9220,-0.618525,1.755403,3.281871,0.004718,0.055963,0.965833
2011-09-26T14:38:33.222105,9230,-0.566170,1.598245,3.287099,0.002512,0.054797,0.965134
2011-09-26T14:38:33.232105,9240,-0.513815,1.441088,3.292326,0.000307,0.053631,0.964435
2011-09-26T14:38:33.242105,9250,-0.461461,1.283930,3.297554,-0.001898,0.052465,0.963736
2011-09-26T14:38:33.252105,9260,-0.409106,1.126772,3.302782,-0.004103,0.051299,0.963037
2011-09-26T14:38:33.262105,9270,-0.356752,0.969614,3.308009,-0.006308,0.050133,0.962338
2011-09-26T14:38:33.272105,9280,-0.304397,0.812456,3.313237,-0.008513,0.048968,0.961639
2011-09-26T14:38:33.282105,9290,-0.252043,0.655298,3.318464,-0.010718,0.047802,0.960940
2011-09-26T14:38:33.292105,9300,-0.199688,0.498140,3.323692,-0.012923,0.046636,0.960241
2011-09-26T14:38:33.302105,9310,-0.193871,0.331120,3.333360,-0.013833,0.046864,0.960763
2011-09-26T14:38:33.312105,9320,-0.250964,0.150769,3.349031,-0.012992,0.048977,0.962936
2011-09-26T14:38:33.322105,9330,-0.308057,-0.029582,3.364702,-0.012152,0.051091,0.965109
2011-09-26T14:38:33.332105,9340,-0.365151,-0.209934,3.380372,-0.011311,0.053204,0.967282
2011-09-26T14:38:33.342105,9350,-0.422244,-0.390285,3.396043,-0.010470,0.055318,0.969455
2011-09-26T14:38:33.352105,9360,-0.479337,-0.570637,3.411714,-0.009629,0.057431,0.971628
2011-09-26T14:38:33.362105,9370,-0.536431,-0.750988,3.427385,-0.008788,0.059544,0.973802
2011-09-26T14:38:33.372105,9380,-0.593524,-0.931340,3.443056,-0.007947,0.061658,0.975975
2011-09-26T14:38:33.382105,9390,-0.650618,-1.111691,3.458727,-0.007106,0.063771,0.978148
2011-09-26T14:38:33.392105,9400,-0.707711,-1.292043,3.474398,-0.006265,0.065885,0.980321
2011-09-26T14:38:33.402105,9410,-0.760064,-1.378418,3.480437,-0.005721,0.067136,0.983355
2011-09-26T14:38:33.412105,9420,-0.805910,-1.335807,3.473255,-0.005583,0.067204,0.987570
2011-09-26T14:38:33.422105,9430,-0.851756,-1.293195,3.466072,-0.005446,0.067272,0.991785
2011-09-26T14:38:33.432105,9440,-0.897602,-1.250583,3.458890,-0.005309,0.067340,0.996000
2011-09-26T14:38:33.442105,9450,-0.943449,-1.207971,3.451708,-0.005171,0.067409,1.000215
2011-09-26T14:38:33.452105,9460,-0.989295,-1.165359,3.444526,-0.005034,0.067477,1.004430
2011-09-26T14:38:33.462105,9470,-1.035141,-1.122748,3.437344,-0.004896,0.067545,1.008645
2011-09-26T14:38:33.472105,9480,-1.080987,-1.080136,3.430162,-0.004759,0.067613,1.012860
2011-09-26T14:38:33.482105,9490,-1.126833,-1.037524,3.422980,-0.004621,0.067681,1.017075
2011-09-26T14:38:33.492105,9500,-1.172680,-0.994912,3.415798,-0.004484,0.067749,1.021290
2011-09-26T14:38:33.502105,9510,-1.218526,-0.952300,3.408616,-0.004346,0.067818,1.025505
2011-09-26T14:38:33.512105,9520,-1.256630,-0.896852,3.404061,-0.004164,0.066859,1.028139
2011-09-26T14:38:33.522105,9530,-1.284442,-0.824340,3.403000,-0.003921,0.064535,1.028669
2011-09-26T14:38:33.532105,9540,-1.312255,-0.751827,3.401938,-0.003678,0.062211,1.029199
2011-09-26T14:38:33.542105,9550,-1.340067,-0.679315,3.400877,-0.003435,0.059888,1.029729
2011-09-26T14:38:33.552105,9560,-1.367879,-0.606802,3.399815,-0.003193,0.057564,1.030259
2011-09-26T14:38:33.562105,9570,-1.395691,-0.534290,3.398754,-0.002950,0.055240,1.030789
2011-09-26T14:38:33.572105,9580,-1.423503,-0.461777,3.397692,-0.002707,0.052916,1.031319
2011-09-26T14:38:33.582105,9590,-1.451316,-0.389265,3.396631,-0.002464,0.050592,1.031849
2011-09-26T14:38:33.592105,9600,-1.479128,-0.316752,3.395569,-0.002221,0.048269,1.032379
2011-09-26T14:38:33.602105,9610,-1.506940,-0.244240,3.394508,-0.001979,0.045945,1.032909
2011-09-26T14:38:33.612105,9620,-1.515786,-0.157488,3.391266,-0.002253,0.044483,1.032490
2011-09-26T14:38:33.622105,9630,-1.499611,-0.051953,3.385148,-0.003209,0.044160,1.030819
2011-09-26T14:38:33.632105,9640,-1.483435,0.053583,3.379031,-0.004165,0.043836,1.029147
2011-09-26T14:38:33.642105,9650,-1.467260,0.159118,3.372913,-0.005121,0.043512,1.027476
2011-09-26T14:38:33.652105,9660,-1.451085,0.264653,3.366795,-0.006077,0.043188,1.025805
2011-09-26T14:38:33.662105,9670,-1.434910,0.370189,3.360677,-0.007033,0.042864,1.024134
2011-09-26T14:38:33.672105,9680,-1.418735,0.475724,3.354559,-0.007990,0.042540,1.022463
2011-09-26T14:38:33.682105,9690,-1.402560,0.581260,3.348442,-0.008946,0.042216,1.020792
2011-09-26T14:38:33.692105,9700,-1.386385,0.686795,3.342324,-0.009902,0.041892,1.019120
2011-09-26T14:38:33.702105,9710,-1.370210,0.792331,3.336206,-0.010858,0.041569,1.017449
2011-09-26T14:38:33.712105,9720,-1.396783,0.846284,3.333588,-0.011807,0.042365,1.015081
2011-09-26T14:38:33.722105,9730,-1.477453,0.834959,3.335398,-0.012746,0.044580,1.011831
2011-09-26T14:38:33.732105,9740,-1.558124,0.823635,3.337208,-0.013686,0.046795,1.008582
2011-09-26T14:38:33.742105,9750,-1.638794,0.812311,3.339018,-0.014625,0.049010,1.005332
2011-09-26T14:38:33.752105,9760,-1.719465,0.800987,3.340828,-0.015564,0.051225,1.002082
2011-09-26T14:38:33.762105,9770,-1.800135,0.789663,3.342638,-0.016504,0.053440,0.998832
2011-09-26T14:38:33.772105,9780,-1.880806,0.778339,3.344448,-0.017443,0.055655,0.995583
2011-09-26T14:38:33.782105,9790,-1.961477,0.767014,3.346258,-0.018383,0.057870,0.992333
2011-09-26T14:38:33.792105,9800,-2.042147,0.755690,3.348068,-0.019322,0.060085,0.989083
2011-09-26T14:38:33.802105,9810,-2.122818,0.744366,3.349878,-0.020261,0.062300,0.985833
2011-09-26T14:38:33.812105,9820,-2.203488,0.733042,3.351689,-0.021201,0.064515,0.982584
2011-09-26T14:38:33.822105,9830,-2.234801,0.705064,3.324745,-0.022008,0.063664,0.980162
2011-09-26T14:38:33.832105,9840,-2.204456,0.656284,3.261884,-0.022650,0.058984,0.978776
2011-09-26T14:38:33.842105,9850,-2.174111,0.607503,3.199023,-0.023292,0.054304,0.977389
2011-09-26T14:38:33.852105,9860,-2.143766,0.558723,3.136161,-0.023934,0.049624,0.976003
2011-09-26T14:38:33.862105,9870,-2.113421,0.509942,3.073300,-0.024577,0.044944,0.974616
2011-09-26T14:38:33.872105,9880,-2.083077,0.461162,3.010438,-0.025219,0.040264,0.973230
2011-09-26T14:38:33.882105,9890,-2.052732,0.412381,2.947577,-0.025861,0.035583,0.971844
2011-09-26T14:38:33.892105,9900,-2.022387,0.363601,2.884716,-0.026503,0.030903,0.970457
2011-09-26T14:38:33.902105,9910,-1.992042,0.314820,2.821854,-0.027145,0.026223,0.969071
2011-09-26T14:38:33.912105,9920,-1.961697,0.266039,2.758993,-0.027787,0.021543,0.967684
2011-09-26T14:38:33.922105,9930,-1.862262,0.177454,2.711494,-0.028202,0.019255,0.967844
2011-09-26T14:38:33.932105,9940,-1.678724,0.040414,2.682696,-0.028339,0.019878,0.969887
2011-09-26T14:38:33.942105,9950,-1.495185,-0.096625,2.653898,-0.028476,0.020501,0.971930
2011-09-26T14:38:33.952105,9960,-1.311647,-0.233665,2.625100,-0.028613,0.021124,0.973972
2011-09-26T14:38:33.962105,9970,-1.128109,-0.370705,2.596301,-0.028750,0.021748,0.976015
2011-09-26T14:38:33.972105,9980,-0.944571,-0.507744,2.567503,-0.028887,0.022371,0.978058
2011-09-26T14:38:33.982105,9990,-0.761032,-0.644784,2.538705,-0.029025,0.022994,0.980101
2011-09-26T14:38:33.992105,10000,-0.577494,-0.781824,2.509907,-0.029162,0.023617,0.982144
2011-09-26T14:38:34.002105,10010,-0.393956,-0.918863,2.481109,-0.029299,0.024241,0.984186
2011-09-26T14:38:34.012105,10020,-0.210417,-1.055903,2.452311,-0.029436,0.024864,0.986229
2011-09-26T14:38:34.022105,10030,-0.132897,-1.130365,2.416603,-0.028898,0.025664,0.988374
2011-09-26T14:38:34.032105,10040,-0.183494,-1.129204,2.372545,-0.027542,0.026678,0.990641
2011-09-26T14:38:34.042105,10050,-0.234090,-1.128044,2.328487,-0.026187,0.027692,0.992909
2011-09-26T14:38:34.052105,10060,-0.284687,-1.126884,2.284429,-0.024832,0.028706,0.995176
2011-09-26T14:38:34.062105,10070,-0.335283,-1.125723,2.240371,-0.023477,0.029720,0.997444
2011-09-26T14:38:34.072105,10080,-0.385880,-1.124563,2.196312,-0.022122,0.030734,0.999712
2011-09-26T14:38:34.082105,10090,-0.436476,-1.123403,2.152254,-0.020767,0.031749,1.001979
2011-09-26T14:38:34.092105,10100,-0.487073,-1.122243,2.108196,-0.019412,0.032763,1.004247
2011-09-26T14:38:34.102105,10110,-0.537669,-1.121082,2.064138,-0.018057,0.033777,1.006515
2011-09-26T14:38:34.112105,10120,-0.588266,-1.119922,2.020080,-0.016702,0.034791,1.008782
2011-09-26T14:38:34.122105,10130,-0.638862,-1.118762,1.976022,-0.015347,0.035805,1.011050
2011-09-26T14:38:34.132105,10140,-0.707513,-1.083824,1.933905,-0.014191,0.035456,1.013786
2011-09-26T14:38:34.142105,10150,-0.798874,-1.006399,1.894228,-0.013284,0.033393,1.017113
2011-09-26T14:38:34.152105,10160,-0.890235,-0.928975,1.854551,-0.012378,0.031330,1.020439
2011-09-26T14:38:34.162105,10170,-0.981595,-0.851550,1.814875,-0.011471,0.029266,1.023765
2011-09-26T14:38:34.172105,10180,-1.072956,-0.774125,1.775198,-0.010565,0.027203,1.027092
2011-09-26T14:38:34.182105,10190,-1.164317,-0.696700,1.735522,-0.009658,0.025140,1.030418
2011-09-26T14:38:34.192105,10200,-1.255678,-0.619275,1.695845,-0.008752,0.023076,1.033745
2011-09-26T14:38:34.202105,10210,-1.347039,-0.541850,1.656169,-0.007845,0.021013,1.037071
2011-09-26T14:38:34.212105,10220,-1.438400,-0.464426,1.616492,-0.006939,0.018950,1.040397
2011-09-26T14:38:34.222105,10230,-1.529760,-0.387001,1.576816,-0.006032,0.016886,1.043724
2011-09-26T14:38:34.232105,10240,-1.535696,-0.301734,1.544797,-0.006362,0.013499,1.043818
2011-09-26T14:38:34.242105,10250,-1.441757,-0.207298,1.521730,-0.008139,0.008565,1.040134
2011-09-26T14:38:34.252105,10260,-1.347817,-0.112862,1.498663,-0.009915,0.003630,1.036449
2011-09-26T14:38:34.262105,10270,-1.253878,-0.018427,1.475597,-0.011692,-0.001304,1.032765
2011-09-26T14:38:34.272105,10280,-1.159939,0.076009,1.452530,-0.013468,-0.006239,1.029081
2011-09-26T14:38:34.282105,10290,-1.065999,0.170445,1.429464,-0.015245,-0.011174,1.025396
2011-09-26T14:38:34.292105,10300,-0.972060,0.264881,1.406397,-0.017022,-0.016108,1.021712
2011-09-26T14:38:34.302105,10310,-0.878121,0.359316,1.383331,-0.018798,-0.021043,1.018027
2011-09-26T14:38:34.312105,10320,-0.784181,0.453752,1.360264,-0.020575,-0.025978,1.014343
2011-09-26T14:38:34.322105,10330,-0.690242,0.548188,1.337197,-0.022351,-0.030912,1.010659
2011-09-26T14:38:34.332105,10340,-0.632682,0.604474,1.300098,-0.023011,-0.032559,1.008300
2011-09-26T14:38:34.342105,10350,-0.617605,0.616211,1.246611,-0.022368,-0.030367,1.007489
2011-09-26T14:38:34.352105,10360,-0.602529,0.627948,1.193124,-0.021724,-0.028174,1.006677
2011-09-26T14:38:34.362105,10370,-0.587452,0.639685,1.139638,-0.021081,-0.025982,1.005866
2011-09-26T14:38:34.372105,10380,-0.572375,0.651422,1.086151,-0.020437,-0.023789,1.005055
2011-09-26T14:38:34.382105,10390,-0.557298,0.663158,1.032664,-0.019794,-0.021597,1.004244
2011-09-26T14:38:34.392105,10400,-0.542221,0.674895,0.979177,-0.019150,-0.019404,1.003433
2011-09-26T14:38:34.402105,10410,-0.527145,0.686632,0.925690,-0.018507,-0.017212,1.002622
2011-09-26T14:38:34.412105,10420,-0.512068,0.698369,0.872204,-0.017863,-0.015019,1.001811
2011-09-26T14:38:34.422105,10430,-0.496991,0.710106,0.818717,-0.017219,-0.012827,1.001000
2011-09-26T14:38:34.432105,10440,-0.481914,0.721843,0.765230,-0.016576,-0.010634,1.000189
2011-09-26T14:38:34.442105,10450,-0.524742,0.710379,0.684222,-0.016033,-0.008639,0.997964
2011-09-26T14:38:34.452105,10460,-0.632084,0.673065,0.572549,-0.015603,-0.006864,0.994162
2011-09-26T14:38:34.462105,10470,-0.739427,0.635751,0.460876,-0.015173,-0.005089,0.990361
2011-09-26T14:38:34.472105,10480,-0.846770,0.598437,0.349203,-0.014743,-0.003313,0.986560
2011-09-26T14:38:34.482105,10490,-0.954113,0.561123,0.237530,-0.014312,-0.001538,0.982759
2011-09-26T14:38:34.492105,10500,-1.061456,0.523809,0.125857,-0.013882,0.000237,0.978958
2011-09-26T14:38:34.502105,10510,-1.168798,0.486495,0.014184,-0.013452,0.002012,0.975156
2011-09-26T14:38:34.512105,10520,-1.276141,0.449181,-0.097488,-0.013022,0.003787,0.971355
2011-09-26T14:38:34.522105,10530,-1.383484,0.411867,-0.209161,-0.012591,0.005563,0.967554
2011-09-26T14:38:34.532105,10540,-1.490827,0.374553,-0.320834,-0.012161,0.007338,0.963753
2011-09-26T14:38:34.542105,10550,-1.541311,0.303370,-0.441233,-0.012356,0.005942,0.963833
2011-09-26T14:38:34.552105,10560,-1.525207,0.192523,-0.571850,-0.013283,0.000831,0.968460
2011-09-26T14:38:34.562105,10570,-1.509104,0.081675,-0.702467,-0.014211,-0.004279,0.973086
2011-09-26T14:38:34.572105,10580,-1.493001,-0.029172,-0.833084,-0.015138,-0.009389,0.977712
2011-09-26T14:38:34.582105,10590,-1.476898,-0.140019,-0.963701,-0.016065,-0.014500,0.982339
2011-09-26T14:38:34.592105,10600,-1.460794,-0.250866,-1.094318,-0.016992,-0.019610,0.986965
2011-09-26T14:38:34.602105,10610,-1.444691,-0.361713,-1.224935,-0.017920,-0.024721,0.991592
2011-09-26T14:38:34.612105,10620,-1.428588,-0.472561,-1.355552,-0.018847,-0.029831,0.996218
2011-09-26T14:38:34.622105,10630,-1.412484,-0.583408,-1.486169,-0.019774,-0.034941,1.000844
2011-09-26T14:38:34.632105,10640,-1.396381,-0.694255,-1.616786,-0.020701,-0.040052,1.005471
2011-09-26T14:38:34.642105,10650,-1.412733,-0.782989,-1.736056,-0.020517,-0.043656,1.007647
2011-09-26T14:38:34.652105,10660,-1.464176,-0.847815,-1.843057,-0.019130,-0.045633,1.007174
2011-09-26T14:38:34.662105,10670,-1.515618,-0.912641,-1.950059,-0.017743,-0.047609,1.006702
2011-09-26T14:38:34.672105,10680,-1.567061,-0.977467,-2.057060,-0.016356,-0.049586,1.006229
2011-09-26T14:38:34.682105,10690,-1.618504,-1.042293,-2.164061,-0.014969,-0.051562,1.005756
2011-09-26T14:38:34.692105,10700,-1.669946,-1.107119,-2.271062,-0.013583,-0.053539,1.005284
2011-09-26T14:38:34.702105,10710,-1.721389,-1.171944,-2.378063,-0.012196,-0.055515,1.004811
2011-09-26T14:38:34.712105,10720,-1.772832,-1.236770,-2.485064,-0.010809,-0.057492,1.004338
2011-09-26T14:38:34.722105,10730,-1.824274,-1.301596,-2.592066,-0.009422,-0.059469,1.003866
2011-09-26T14:38:34.732105,10740,-1.875717,-1.366422,-2.699067,-0.008035,-0.061445,1.003393
2011-09-26T14:38:34.742105,10750,-1.927160,-1.431248,-2.806068,-0.006649,-0.063422,1.002920
2011-09-26T14:38:34.752105,10760,-1.924674,-1.462141,-2.907679,-0.005508,-0.065533,1.003475
2011-09-26T14:38:34.762105,10770,-1.865494,-1.457363,-3.003623,-0.004628,-0.067785,1.005111
2011-09-26T14:38:34.772105,10780,-1.806314,-1.452585,-3.099567,-0.003747,-0.070038,1.006746
2011-09-26T14:38:34.782105,10790,-1.747134,-1.447806,-3.195512,-0.002866,-0.072291,1.008381
2011-09-26T14:38:34.792105,10800,-1.687954,-1.443028,-3.291456,-0.001985,-0.074543,1.010016
2011-09-26T14:38:34.802105,10810,-1.628775,-1.438249,-3.387400,-0.001104,-0.076796,1.011651
2011-09-26T14:38:34.812105,10820,-1.569595,-1.433471,-3.483344,-0.000223,-0.079048,1.013287
2011-09-26T14:38:34.822105,10830,-1.510415,-1.428693,-3.579289,0.000658,-0.081301,1.014922
2011-09-26T14:38:34.832105,10840,-1.451235,-1.423914,-3.675233,0.001538,-0.083554,1.016557
2011-09-26T14:38:34.842105,10850,-1.392055,-1.419136,-3.771177,0.002419,-0.085806,1.018192
2011-09-26T14:38:34.852105,10860,-1.306538,-1.384256,-3.843094,0.003194,-0.088293,1.019042
2011-09-26T14:38:34.862105,10870,-1.194119,-1.318631,-3.890469,0.003862,-0.091019,1.019089
2011-09-26T14:38:34.872105,10880,-1.081699,-1.253006,-3.937844,0.004529,-0.093745,1.019136
2011-09-26T14:38:34.882105,10890,-0.969280,-1.187380,-3.985219,0.005196,-0.096471,1.019184
2011-09-26T14:38:34.892105,10900,-0.856861,-1.121755,-4.032594,0.005863,-0.099197,1.019231
2011-09-26T14:38:34.902105,10910,-0.744442,-1.056130,-4.079969,0.006530,-0.101922,1.019278
2011-09-26T14:38:34.912105,10920,-0.632022,-0.990505,-4.127344,0.007197,-0.104648,1.019325
2011-09-26T14:38:34.922105,10930,-0.519603,-0.924879,-4.174719,0.007864,-0.107374,1.019373
2011-09-26T14:38:34.932105,10940,-0.407184,-0.859254,-4.222094,0.008532,-0.110100,1.019420
2011-09-26T14:38:34.942105,10950,-0.294764,-0.793629,-4.269469,0.009199,-0.112826,1.019467
2011-09-26T14:38:34.952105,10960,-0.182345,-0.728003,-4.316844,0.009866,-0.115552,1.019514
2011-09-26T14:38:34.962105,10970,-0.074433,-0.638267,-4.346708,0.009754,-0.116692,1.021037
2011-09-26T14:38:34.972105,10980,0.028874,-0.523901,-4.358685,0.008847,-0.116213,1.024065
2011-09-26T14:38:34.982105,10990,0.132181,-0.409536,-4.370662,0.007940,-0.115734,1.027094
2011-09-26T14:38:34.992105,11000,0.235488,-0.295170,-4.382639,0.007033,-0.115255,1.030123
2011-09-26T14:38:35.002105,11010,0.338795,-0.180804,-4.394616,0.006126,-0.114776,1.033152
2011-09-26T14:38:35.012105,11020,0.442102,-0.066438,-4.406594,0.005219,-0.114297,1.036180
2011-09-26T14:38:35.022105,11030,0.545409,0.047928,-4.418571,0.004312,-0.113818,1.039209
2011-09-26T14:38:35.032105,11040,0.648716,0.162294,-4.430548,0.003405,-0.113338,1.042238
2011-09-26T14:38:35.042105,11050,0.752023,0.276660,-4.442525,0.002498,-0.112859,1.045266
2011-09-26T14:38:35.052105,11060,0.855330,0.391026,-4.454502,0.001591,-0.112380,1.048295
2011-09-26T14:38:35.062105,11070,0.915666,0.473803,-4.440853,0.001322,-0.111368,1.047025
2011-09-26T14:38:35.072105,11080,0.929563,0.522442,-4.399511,0.001744,-0.109779,1.041109
2011-09-26T14:38:35.082105,11090,0.943461,0.571082,-4.358169,0.002165,-0.108190,1.035194
2011-09-26T14:38:35.092105,11100,0.957359,0.619722,-4.316827,0.002586,-0.106601,1.029278
2011-09-26T14:38:35.102105,11110,0.971256,0.668361,-4.275486,0.003007,-0.105012,1.023363
2011-09-26T14:38:35.112105,11120,0.985154,0.717001,-4.234144,0.003428,-0.103423,1.017447
2011-09-26T14:38:35.122105,11130,0.999051,0.765641,-4.192802,0.003850,-0.101835,1.011531
2011-09-26T14:38:35.132105,11140,1.012949,0.814280,-4.151460,0.004271,-0.100246,1.005616
2011-09-26T14:38:35.142105,11150,1.026847,0.862920,-4.110118,0.004692,-0.098657,0.999700
2011-09-26T14:38:35.152105,11160,1.040744,0.911560,-4.068776,0.005113,-0.097068,0.993784
2011-09-26T14:38:35.162105,11170,1.022292,0.916935,-4.035230,0.005066,-0.095312,0.990013
2011-09-26T14:38:35.172105,11180,0.971759,0.879409,-4.009415,0.004556,-0.093390,0.988368
2011-09-26T14:38:35.182105,11190,0.921227,0.841882,-3.983600,0.004045,-0.091467,0.986723
2011-09-26T14:38:35.192105,11200,0.870694,0.804355,-3.957785,0.003534,-0.089545,0.985078
2011-09-26T14:38:35.202105,11210,0.820162,0.766828,-3.931970,0.003023,-0.087623,0.983433
2011-09-26T14:38:35.212105,11220,0.769629,0.729301,-3.906155,0.002512,-0.085701,0.981788
2011-09-26T14:38:35.222105,11230,0.719097,0.691775,-3.880339,0.002001,-0.083778,0.980143
2011-09-26T14:38:35.232105,11240,0.668565,0.654248,-3.854524,0.001491,-0.081856,0.978498
2011-09-26T14:38:35.242105,11250,0.618032,0.616721,-3.828709,0.000980,-0.079934,0.976853
2011-09-26T14:38:35.252105,11260,0.567500,0.579194,-3.802894,0.000469,-0.078012,0.975208
2011-09-26T14:38:35.262105,11270,0.516967,0.541667,-3.777079,-0.000042,-0.076089,0.973563
2011-09-26T14:38:35.272105,11280,0.483578,0.507972,-3.747542,0.000018,-0.075714,0.973778
2011-09-26T14:38:35.282105,11290,0.466520,0.477927,-3.714461,0.000622,-0.076813,0.975765
2011-09-26T14:38:35.292105,11300,0.449463,0.447882,-3.681379,0.001227,-0.077912,0.977752
2011-09-26T14:38:35.302105,11310,0.432405,0.417837,-3.648297,0.001831,-0.079011,0.979739
2011-09-26T14:38:35.312105,11320,0.415348,0.387792,-3.615215,0.002435,-0.080110,0.981727
2011-09-26T14:38:35.322105,11330,0.398290,0.357747,-3.582133,0.003039,-0.081209,0.983714
2011-09-26T14:38:35.332105,11340,0.381233,0.327702,-3.549051,0.003644,-0.082308,0.985701
2011-09-26T14:38:35.342105,11350,0.364175,0.297657,-3.515970,0.004248,-0.083407,0.987688
2011-09-26T14:38:35.352105,11360,0.347118,0.267611,-3.482888,0.004852,-0.084505,0.989675
2011-09-26T14:38:35.362105,11370,0.330060,0.237566,-3.449806,0.005456,-0.085604,0.991662
2011-09-26T14:38:35.372105,11380,0.299388,0.222277,-3.433700,0.005697,-0.085325,0.993730
2011-09-26T14:38:35.382105,11390,0.255930,0.220844,-3.433535,0.005596,-0.083751,0.995874
2011-09-26T14:38:35.392105,11400,0.212472,0.219412,-3.433371,0.005495,-0.082177,0.998018
2011-09-26T14:38:35.402105,11410,0.169015,0.217979,-3.433207,0.005394,-0.080603,1.000162
2011-09-26T14:38:35.412105,11420,0.125557,0.216547,-3.433043,0.005293,-0.079030,1.002306
2011-09-26T14:38:35.422105,11430,0.082099,0.215114,-3.432878,0.005192,-0.077456,1.004450
2011-09-26T14:38:35.432105,11440,0.038641,0.213682,-3.432714,0.005091,-0.075882,1.006594
2011-09-26T14:38:35.442105,11450,-0.004817,0.212249,-3.432550,0.004990,-0.074308,1.008738
2011-09-26T14:38:35.452105,11460,-0.048275,0.210817,-3.432386,0.004890,-0.072734,1.010882
2011-09-26T14:38:35.462105,11470,-0.091732,0.209384,-3.432221,0.004789,-0.071160,1.013026
2011-09-26T14:38:35.472105,11480,-0.087944,0.210135,-3.425384,0.004742,-0.070822,1.013722
2011-09-26T14:38:35.482105,11490,-0.040701,0.212894,-3.412409,0.004747,-0.071621,1.013085
2011-09-26T14:38:35.492105,11500,0.006543,0.215653,-3.399434,0.004751,-0.072419,1.012448
2011-09-26T14:38:35.502105,11510,0.053786,0.218413,-3.386460,0.004755,-0.073218,1.011812
2011-09-26T14:38:35.512105,11520,0.101030,0.221172,-3.373485,0.004759,-0.074017,1.011175
2011-09-26T14:38:35.522105,11530,0.148273,0.223931,-3.360510,0.004763,-0.074815,1.010538
2011-09-26T14:38:35.532105,11540,0.195517,0.226690,-3.347535,0.004767,-0.075614,1.009901
2011-09-26T14:38:35.542105,11550,0.242760,0.229449,-3.334560,0.004771,-0.076412,1.009264
2011-09-26T14:38:35.552105,11560,0.290004,0.232209,-3.321585,0.004775,-0.077211,1.008627
2011-09-26T14:38:35.562105,11570,0.337247,0.234968,-3.308610,0.004779,-0.078009,1.007991
2011-09-26T14:38:35.572105,11580,0.384491,0.237727,-3.295635,0.004783,-0.078808,1.007354
2011-09-26T14:38:35.582105,11590,0.395508,0.213093,-3.265265,0.004693,-0.078626,1.006055
2011-09-26T14:38:35.592105,11600,0.370901,0.161521,-3.217788,0.004511,-0.077480,1.004105
2011-09-26T14:38:35.602105,11610,0.346294,0.109950,-3.170311,0.004329,-0.076334,1.002156
2011-09-26T14:38:35.612105,11620,0.321688,0.058379,-3.122834,0.004147,-0.075187,1.000206
2011-09-26T14:38:35.622105,11630,0.297081,0.006808,-3.075357,0.003964,-0.074041,0.998257
2011-09-26T14:38:35.632105,11640,0.272474,-0.044764,-3.027880,0.003782,-0.072895,0.996307
2011-09-26T14:38:35.642105,11650,0.247868,-0.096335,-2.980403,0.003600,-0.071749,0.994357
2011-09-26T14:38:35.652105,11660,0.223261,-0.147906,-2.932926,0.003418,-0.070603,0.992408
2011-09-26T14:38:35.662105,11670,0.198655,-0.199478,-2.885449,0.003235,-0.069457,0.990458
2011-09-26T14:38:35.672105,11680,0.174048,-0.251049,-2.837972,0.003053,-0.068310,0.988508
2011-09-26T14:38:35.682105,11690,0.168844,-0.276577,-2.800762,0.003239,-0.067422,0.988496
2011-09-26T14:38:35.692105,11700,0.180751,-0.279139,-2.772606,0.003749,-0.066761,0.990191
2011-09-26T14:38:35.702105,11710,0.192657,-0.281702,-2.744449,0.004259,-0.066099,0.991887
2011-09-26T14:38:35.712105,11720,0.204564,-0.284264,-2.716292,0.004769,-0.065438,0.993583
2011-09-26T14:38:35.722105,11730,0.216470,-0.286826,-2.688136,0.005280,-0.064777,0.995278
2011-09-26T14:38:35.732105,11740,0.228377,-0.289389,-2.659979,0.005790,-0.064116,0.996974
2011-09-26T14:38:35.742105,11750,0.240283,-0.291951,-2.631823,0.006300,-0.063454,0.998670
2011-09-26T14:38:35.752105,11760,0.252190,-0.294514,-2.603666,0.006810,-0.062793,1.000365
2011-09-26T14:38:35.762105,11770,0.264096,-0.297076,-2.575510,0.007320,-0.062132,1.002061
2011-09-26T14:38:35.772105,11780,0.276003,-0.299638,-2.547353,0.007830,-0.061470,1.003756
2011-09-26T14:38:35.782105,11790,0.263447,-0.304111,-2.517919,0.007746,-0.061171,1.004708
2011-09-26T14:38:35.792105,11800,0.229208,-0.310278,-2.487351,0.007133,-0.061192,1.005001
2011-09-26T14:38:35.802105,11810,0.194969,-0.316444,-2.456782,0.006521,-0.061213,1.005293
2011-09-26T14:38:35.812105,11820,0.160730,-0.322611,-2.426214,0.005909,-0.061234,1.005586
2011-09-26T14:38:35.822105,11830,0.126491,-0.328777,-2.395646,0.005296,-0.061255,1.005879
2011-09-26T14:38:35.832105,11840,0.092252,-0.334943,-2.365078,0.004684,-0.061276,1.006171
2011-09-26T14:38:35.842105,11850,0.058012,-0.341110,-2.334510,0.004072,-0.061297,1.006464
2011-09-26T14:38:35.852105,11860,0.023773,-0.347276,-2.303942,0.003459,-0.061318,1.006756
2011-09-26T14:38:35.862105,11870,-0.010466,-0.353443,-2.273374,0.002847,-0.061339,1.007049
2011-09-26T14:38:35.872105,11880,-0.044705,-0.359609,-2.242806,0.002235,-0.061360,1.007342
2011-09-26T14:38:35.882105,11890,-0.078944,-0.365776,-2.212238,0.001622,-0.061381,1.007634
2011-09-26T14:38:35.892105,11900,-0.079106,-0.359278,-2.196192,0.001688,-0.060884,1.007947
2011-09-26T14:38:35.902105,11910,-0.050759,-0.342186,-2.192293,0.002320,-0.059953,1.008277
2011-09-26T14:38:35.912105,11920,-0.022412,-0.325093,-2.188395,0.002952,-0.059023,1.008606
2011-09-26T14:38:35.922105,11930,0.005935,-0.308001,-2.184497,0.003585,-0.058092,1.008936
2011-09-26T14:38:35.932105,11940,0.034282,-0.290908,-2.180599,0.004217,-0.057162,1.009266
2011-09-26T14:38:35.942105,11950,0.062629,-0.273816,-2.176700,0.004850,-0.056231,1.009595
2011-09-26T14:38:35.952105,11960,0.090976,-0.256724,-2.172802,0.005482,-0.055301,1.009925
2011-09-26T14:38:35.962105,11970,0.119324,-0.239631,-2.168904,0.006114,-0.054370,1.010255
2011-09-26T14:38:35.972105,11980,0.147671,-0.222539,-2.165006,0.006747,-0.053440,1.010584
2011-09-26T14:38:35.982105,11990,0.176018,-0.205446,-2.161107,0.007379,-0.052510,1.010914
2011-09-26T14:38:35.992105,12000,0.208680,-0.204676,-2.153053,0.007792,-0.052324,1.009953
2011-09-26T14:38:36.002105,12010,0.244893,-0.217334,-2.141578,0.008023,-0.052752,1.007930
2011-09-26T14:38:36.012105,12020,0.281107,-0.229993,-2.130103,0.008255,-0.053179,1.005907
2011-09-26T14:38:36.022105,12030,0.317320,-0.242651,-2.118628,0.008487,-0.053607,1.003884
2011-09-26T14:38:36.032105,12040,0.353533,-0.255310,-2.107154,0.008719,-0.054035,1.001861
2011-09-26T14:38:36.042105,12050,0.389746,-0.267968,-2.095679,0.008951,-0.054462,0.999838
2011-09-26T14:38:36.052105,12060,0.425959,-0.280627,-2.084204,0.009183,-0.054890,0.997815
2011-09-26T14:38:36.062105,12070,0.462172,-0.293285,-2.072729,0.009414,-0.055317,0.995792
2011-09-26T14:38:36.072105,12080,0.498386,-0.305944,-2.061254,0.009646,-0.055745,0.993769
2011-09-26T14:38:36.082105,12090,0.534599,-0.318602,-2.049780,0.009878,-0.056173,0.991746
2011-09-26T14:38:36.092105,12100,0.515720,-0.283637,-2.034703,0.010180,-0.055449,0.992752
2011-09-26T14:38:36.102105,12110,0.450437,-0.208559,-2.016594,0.010540,-0.053755,0.996308
2011-09-26T14:38:36.112105,12120,0.385153,-0.133481,-1.998484,0.010900,-0.052061,0.999864
2011-09-26T14:38:36.122105,12130,0.319870,-0.058402,-1.980375,0.011260,-0.050367,1.003421
2011-09-26T14:38:36.132105,12140,0.254587,0.016676,-1.962265,0.011620,-0.048674,1.006977
2011-09-26T14:38:36.142105,12150,0.189303,0.091754,-1.944156,0.011981,-0.046980,1.010534
2011-09-26T14:38:36.152105,12160,0.124020,0.166832,-1.926046,0.012341,-0.045286,1.014090
2011-09-26T14:38:36.162105,12170,0.058737,0.241911,-1.907937,0.012701,-0.043593,1.017646
2011-09-26T14:38:36.172105,12180,-0.006546,0.316989,-1.889827,0.013061,-0.041899,1.021203
2011-09-26T14:38:36.182105,12190,-0.071830,0.392067,-1.871718,0.013421,-0.040205,1.024759
2011-09-26T14:38:36.192105,12200,-0.137113,0.467145,-1.853608,0.013781,-0.038511,1.028316
2011-09-26T14:38:36.202105,12210,-0.161713,0.513739,-1.834385,0.013026,-0.038594,1.028215
2011-09-26T14:38:36.212105,12220,-0.154319,0.537932,-1.814287,0.011393,-0.040074,1.025239
2011-09-26T14:38:36.222105,12230,-0.146926,0.562125,-1.794188,0.009760,-0.041555,1.022263
2011-09-26T14:38:36.232105,12240,-0.139532,0.586318,-1.774090,0.008127,-0.043035,1.019286
2011-09-26T14:38:36.242105,12250,-0.132139,0.610511,-1.753992,0.006495,-0.044515,1.016310
2011-09-26T14:38:36.252105,12260,-0.124745,0.634704,-1.733893,0.004862,-0.045995,1.013334
2011-09-26T14:38:36.262105,12270,-0.117352,0.658897,-1.713795,0.003229,-0.047475,1.010358
2011-09-26T14:38:36.272105,12280,-0.109958,0.683090,-1.693697,0.001596,-0.048955,1.007381
2011-09-26T14:38:36.282105,12290,-0.102565,0.707283,-1.673598,-0.000037,-0.050436,1.004405
2011-09-26T14:38:36.292105,12300,-0.095172,0.731476,-1.653500,-0.001670,-0.051916,1.001429
2011-09-26T14:38:36.302105,12310,-0.080446,0.667592,-1.613220,-0.002517,-0.052320,0.999341
2011-09-26T14:38:36.312105,12320,-0.060043,0.535509,-1.557314,-0.002755,-0.051893,0.997942
2011-09-26T14:38:36.322105,12330,-0.039640,0.403426,-1.501408,-0.002993,-0.051465,0.996542
2011-09-26T14:38:36.332105,12340,-0.019237,0.271343,-1.445501,-0.003231,-0.051037,0.995143
2011-09-26T14:38:36.342105,12350,0.001166,0.139260,-1.389595,-0.003469,-0.050609,0.993743
2011-09-26T14:38:36.352105,12360,0.021569,0.007177,-1.333689,-0.003708,-0.050181,0.992344
2011-09-26T14:38:36.362105,12370,0.041972,-0.124906,-1.277783,-0.003946,-0.049753,0.990944
2011-09-26T14:38:36.372105,12380,0.062375,-0.256989,-1.221876,-0.004184,-0.049325,0.989545
2011-09-26T14:38:36.382105,12390,0.082778,-0.389072,-1.165970,-0.004422,-0.048897,0.988145
2011-09-26T14:38:36.392105,12400,0.103181,-0.521155,-1.110064,-0.004661,-0.048469,0.986746
2011-09-26T14:38:36.402105,12410,0.138833,-0.655875,-1.068273,-0.004187,-0.047819,0.985464
2011-09-26T14:38:36.412105,12420,0.186314,-0.792640,-1.037433,-0.003162,-0.046996,0.984273
2011-09-26T14:38:36.422105,12430,0.233796,-0.929406,-1.006593,-0.002136,-0.046174,0.983082
2011-09-26T14:38:36.432105,12440,0.281278,-1.066171,-0.975753,-0.001111,-0.045351,0.981892
2011-09-26T14:38:36.442105,12450,0.328759,-1.202937,-0.944913,-0.000085,-0.044529,0.980701
2011-09-26T14:38:36.452105,12460,0.376241,-1.339702,-0.914073,0.000941,-0.043706,0.979511
2011-09-26T14:38:36.462105,12470,0.423722,-1.476467,-0.883234,0.001966,-0.042883,0.978320
2011-09-26T14:38:36.472105,12480,0.471204,-1.613233,-0.852394,0.002992,-0.042061,0.977129
2011-09-26T14:38:36.482105,12490,0.518686,-1.749998,-0.821554,0.004017,-0.041238,0.975939
2011-09-26T14:38:36.492105,12500,0.566167,-1.886763,-0.790714,0.005043,-0.040416,0.974748
2011-09-26T14:38:36.502105,12510,0.613649,-2.023529,-0.759874,0.006068,-0.039593,0.973558
2011-09-26T14:38:36.512105,12520,0.695068,-2.095409,-0.741768,0.006736,-0.039164,0.976455
2011-09-26T14:38:36.522105,12530,0.801765,-2.118960,-0.733146,0.007136,-0.039026,0.982396
2011-09-26T14:38:36.532105,12540,0.908462,-2.142512,-0.724524,0.007537,-0.038889,0.988338
2011-09-26T14:38:36.542105,12550,1.015160,-2.166063,-0.715902,0.007938,-0.038752,0.994280
2011-09-26T14:38:36.552105,12560,1.121857,-2.189615,-0.707280,0.008339,-0.038615,1.000221
2011-09-26T14:38:36.562105,12570,1.228554,-2.213166,-0.698658,0.008740,-0.038478,1.006163
2011-09-26T14:38:36.572105,12580,1.335251,-2.236717,-0.690036,0.009141,-0.038340,1.012105
2011-09-26T14:38:36.582105,12590,1.441948,-2.260269,-0.681414,0.009541,-0.038203,1.018046
2011-09-26T14:38:36.592105,12600,1.548645,-2.283820,-0.672793,0.009942,-0.038066,1.023988
2011-09-26T14:38:36.602105,12610,1.655342,-2.307371,-0.664171,0.010343,-0.037929,1.029930
2011-09-26T14:38:36.612105,12620,1.698079,-2.262265,-0.663254,0.011030,-0.036936,1.033823
2011-09-26T14:38:36.622105,12630,1.692842,-2.165662,-0.668116,0.011932,-0.035302,1.036180
2011-09-26T14:38:36.632105,12640,1.687606,-2.069058,-0.672977,0.012835,-0.033668,1.038538
2011-09-26T14:38:36.642105,12650,1.682369,-1.972455,-0.677839,0.013737,-0.032034,1.040895
2011-09-26T14:38:36.652105,12660,1.677132,-1.875851,-0.682701,0.014639,-0.030400,1.043252
2011-09-26T14:38:36.662105,12670,1.671896,-1.779248,-0.687563,0.015541,-0.028766,1.045610
2011-09-26T14:38:36.672105,12680,1.666659,-1.682644,-0.692425,0.016443,-0.027132,1.047967
2011-09-26T14:38:36.682105,12690,1.661423,-1.586041,-0.697287,0.017345,-0.025498,1.050324
2011-09-26T14:38:36.692105,12700,1.656186,-1.489437,-0.702149,0.018247,-0.023864,1.052682
2011-09-26T14:38:36.702105,12710,1.650949,-1.392834,-0.707011,0.019150,-0.022230,1.055039
2011-09-26T14:38:36.712105,12720,1.645713,-1.296230,-0.711873,0.020052,-0.020596,1.057396
2011-09-26T14:38:36.722105,12730,1.561740,-1.192875,-0.705795,0.020221,-0.019228,1.056320
2011-09-26T14:38:36.732105,12740,1.421429,-1.084688,-0.691889,0.019866,-0.018052,1.052788
2011-09-26T14:38:36.742105,12750,1.281117,-0.976501,-0.677982,0.019512,-0.016875,1.049255
2011-09-26T14:38:36.752105,12760,1.140806,-0.868314,-0.664076,0.019157,-0.015698,1.045723
2011-09-26T14:38:36.762105,12770,1.000495,-0.760127,-0.650170,0.018802,-0.014522,1.042190
2011-09-26T14:38:36.772105,12780,0.860184,-0.651939,-0.636263,0.018448,-0.013345,1.038657
2011-09-26T14:38:36.782105,12790,0.719873,-0.543752,-0.622357,0.018093,-0.012169,1.035125
2011-09-26T14:38:36.792105,12800,0.579562,-0.435565,-0.608451,0.017738,-0.010992,1.031592
2011-09-26T14:38:36.802105,12810,0.439251,-0.327378,-0.594544,0.017384,-0.009815,1.028059
2011-09-26T14:38:36.812105,12820,0.298940,-0.219191,-0.580638,0.017029,-0.008639,1.024527
2011-09-26T14:38:36.822105,12830,0.238772,-0.116633,-0.585454,0.016991,-0.009541,1.022490
2011-09-26T14:38:36.832105,12840,0.235696,-0.018084,-0.603607,0.017179,-0.011924,1.021519
2011-09-26T14:38:36.842105,12850,0.232621,0.080464,-0.621760,0.017367,-0.014308,1.020548
2011-09-26T14:38:36.852105,12860,0.229545,0.179013,-0.639913,0.017554,-0.016691,1.019576
2011-09-26T14:38:36.862105,12870,0.226469,0.277561,-0.658066,0.017742,-0.019074,1.018605
2011-09-26T14:38:36.872105,12880,0.223394,0.376110,-0.676219,0.017930,-0.021458,1.017634
2011-09-26T14:38:36.882105,12890,0.220318,0.474659,-0.694371,0.018118,-0.023841,1.016663
2011-09-26T14:38:36.892105,12900,0.217242,0.573207,-0.712524,0.018306,-0.026224,1.015692
2011-09-26T14:38:36.902105,12910,0.214167,0.671756,-0.730677,0.018494,-0.028608,1.014720
2011-09-26T14:38:36.912105,12920,0.211091,0.770304,-0.748830,0.018681,-0.030991,1.013749
2011-09-26T14:38:36.922105,12930,0.241794,0.803335,-0.777385,0.017946,-0.031964,1.013241
2011-09-26T14:38:36.932105,12940,0.296164,0.790461,-0.813229,0.016563,-0.031949,1.013058
2011-09-26T14:38:36.942105,12950,0.350534,0.777586,-0.849072,0.015181,-0.031933,1.012874
2011-09-26T14:38:36.952105,12960,0.404904,0.764712,-0.884916,0.013798,-0.031918,1.012691
2011-09-26T14:38:36.962105,12970,0.459273,0.751838,-0.920759,0.012415,-0.031903,1.012507
2011-09-26T14:38:36.972105,12980,0.513643,0.738964,-0.956603,0.011033,-0.031888,1.012324
2011-09-26T14:38:36.982105,12990,0.568013,0.726090,-0.992446,0.009650,-0.031872,1.012141
2011-09-26T14:38:36.992105,13000,0.622383,0.713216,-1.028290,0.008268,-0.031857,1.011957
2011-09-26T14:38:37.002105,13010,0.676753,0.700341,-1.064133,0.006885,-0.031842,1.011774
2011-09-26T14:38:37.012105,13020,0.731123,0.687467,-1.099977,0.005502,-0.031827,1.011590
2011-09-26T14:38:37.022105,13030,0.785493,0.674593,-1.135820,0.004120,-0.031811,1.011407
2011-09-26T14:38:37.032105,13040,0.735216,0.621768,-1.206643,0.003994,-0.030750,1.008423
2011-09-26T14:38:37.042105,13050,0.609753,0.540238,-1.302598,0.004771,-0.028936,1.003428
2011-09-26T14:38:37.052105,13060,0.484290,0.458708,-1.398554,0.005548,-0.027122,0.998433
2011-09-26T14:38:37.062105,13070,0.358827,0.377179,-1.494509,0.006325,-0.025308,0.993437
2011-09-26T14:38:37.072105,13080,0.233363,0.295649,-1.590464,0.007102,-0.023494,0.988442
2011-09-26T14:38:37.082105,13090,0.107900,0.214119,-1.686419,0.007879,-0.021680,0.983447
2011-09-26T14:38:37.092105,13100,-0.017563,0.132590,-1.782375,0.008656,-0.019866,0.978452
2011-09-26T14:38:37.102105,13110,-0.143026,0.051060,-1.878330,0.009433,-0.018052,0.973456
2011-09-26T14:38:37.112105,13120,-0.268489,-0.030470,-1.974285,0.010210,-0.016238,0.968461
2011-09-26T14:38:37.122105,13130,-0.393952,-0.111999,-2.070241,0.010987,-0.014425,0.963466
2011-09-26T14:38:37.132105,13140,-0.436498,-0.202995,-2.156637,0.011136,-0.016273,0.962325
2011-09-26T14:38:37.142105,13150,-0.422695,-0.300424,-2.236539,0.010857,-0.020611,0.963805
2011-09-26T14:38:37.152105,13160,-0.408892,-0.397853,-2.316440,0.010578,-0.024948,0.965284
2011-09-26T14:38:37.162105,13170,-0.395089,-0.495283,-2.396341,0.010299,-0.029286,0.966764
2011-09-26T14:38:37.172105,13180,-0.381287,-0.592712,-2.476243,0.010020,-0.033623,0.968243
2011-09-26T14:38:37.182105,13190,-0.367484,-0.690141,-2.556144,0.009741,-0.037961,0.969723
2011-09-26T14:38:37.192105,13200,-0.353681,-0.787570,-2.636045,0.009462,-0.042298,0.971202
2011-09-26T14:38:37.202105,13210,-0.339878,-0.884999,-2.715946,0.009183,-0.046636,0.972682
2011-09-26T14:38:37.212105,13220,-0.326075,-0.982428,-2.795848,0.008905,-0.050973,0.974161
2011-09-26T14:38:37.222105,13230,-0.312272,-1.079858,-2.875749,0.008626,-0.055311,0.975641
2011-09-26T14:38:37.232105,13240,-0.299810,-1.121946,-2.908619,0.008606,-0.057712,0.978981
2011-09-26T14:38:37.242105,13250,-0.288269,-1.126036,-2.909195,0.008763,-0.058783,0.983598
2011-09-26T14:38:37.252105,13260,-0.276728,-1.130126,-2.909771,0.008920,-0.059854,0.988216
2011-09-26T14:38:37.262105,13270,-0.265187,-1.134216,-2.910347,0.009078,-0.060925,0.992833
2011-09-26T14:38:37.272105,13280,-0.253645,-1.138306,-2.910923,0.009235,-0.061996,0.997450
2011-09-26T14:38:37.282105,13290,-0.242104,-1.142395,-2.911499,0.009393,-0.063067,1.002068
2011-09-26T14:38:37.292105,13300,-0.230563,-1.146485,-2.912075,0.009550,-0.064138,1.006685
2011-09-26T14:38:37.302105,13310,-0.219022,-1.150575,-2.912651,0.009707,-0.065209,1.011303
2011-09-26T14:38:37.312105,13320,-0.207480,-1.154665,-2.913227,0.009865,-0.066281,1.015920
2011-09-26T14:38:37.322105,13330,-0.195939,-1.158755,-2.913803,0.010022,-0.067352,1.020538
2011-09-26T14:38:37.332105,13340,-0.184398,-1.162844,-2.914379,0.010180,-0.068423,1.025155
2011-09-26T14:38:37.342105,13350,-0.119671,-1.114491,-2.935814,0.010773,-0.069119,1.028336
2011-09-26T14:38:37.352105,13360,-0.020496,-1.032170,-2.970758,0.011649,-0.069571,1.030587
2011-09-26T14:38:37.362105,13370,0.078680,-0.949850,-3.005701,0.012526,-0.070024,1.032837
2011-09-26T14:38:37.372105,13380,0.177855,-0.867529,-3.040645,0.013402,-0.070476,1.035088
2011-09-26T14:38:37.382105,13390,0.277030,-0.785209,-3.075589,0.014278,-0.070929,1.037339
2011-09-26T14:38:37.392105,13400,0.376205,-0.702888,-3.110533,0.015154,-0.071381,1.039589
2011-09-26T14:38:37.402105,13410,0.475381,-0.620567,-3.145477,0.016030,-0.071834,1.041840
2011-09-26T14:38:37.412105,13420,0.574556,-0.538247,-3.180421,0.016906,-0.072286,1.044090
2011-09-26T14:38:37.422105,13430,0.673731,-0.455926,-3.215365,0.017782,-0.072739,1.046341
2011-09-26T14:38:37.432105,13440,0.772907,-0.373606,-3.250309,0.018658,-0.073191,1.048592
