pc_time,ts_ms,gyroX,gyroY,gyroZ,accelX,accelY,accelZ
2011-09-30T13:16:05.640352,0,0.407008,-1.078262,-5.623545,0.210881,0.039389,0.995610
2011-09-30T13:16:05.650352,10,0.299583,-1.037850,-5.880592,0.212177,0.038955,0.996529
2011-09-30T13:16:05.660352,20,0.192158,-0.997438,-6.137639,0.213473,0.038522,0.997448
2011-09-30T13:16:05.670352,30,0.084732,-0.957026,-6.394687,0.214770,0.038088,0.998367
2011-09-30T13:16:05.680352,40,-0.022693,-0.916614,-6.651734,0.216066,0.037655,0.999286
2011-09-30T13:16:05.690352,50,-0.130118,-0.876202,-6.908781,0.217362,0.037221,1.000205
2011-09-30T13:16:05.700352,60,-0.237543,-0.835790,-7.165828,0.218658,0.036788,1.001124
2011-09-30T13:16:05.710352,70,-0.344968,-0.795377,-7.422875,0.219954,0.036354,1.002043
2011-09-30T13:16:05.720352,80,-0.452394,-0.754965,-7.679923,0.221251,0.035920,1.002962
2011-09-30T13:16:05.730352,90,-0.559819,-0.714553,-7.936970,0.222547,0.035487,1.003881
2011-09-30T13:16:05.740352,100,-0.667090,-0.674002,-8.194131,0.223839,0.035041,1.004796
2011-09-30T13:16:05.750352,110,-0.737838,-0.600467,-8.478277,0.224134,0.031702,1.004770
2011-09-30T13:16:05.760352,120,-0.808586,-0.526932,-8.762423,0.224430,0.028363,1.004745
2011-09-30T13:16:05.770352,130,-0.879334,-0.453398,-9.046569,0.224726,0.025024,1.004719
2011-09-30T13:16:05.780352,140,-0.950081,-0.379863,-9.330715,0.225022,0.021685,1.004693
2011-09-30T13:16:05.790352,150,-1.020829,-0.306328,-9.614861,0.225317,0.018347,1.004667
2011-09-30T13:16:05.800352,160,-1.091577,-0.232793,-9.899007,0.225613,0.015008,1.004641
2011-09-30T13:16:05.810352,170,-1.162325,-0.159259,-10.183153,0.225909,0.011669,1.004616
2011-09-30T13:16:05.820352,180,-1.233073,-0.085724,-10.467299,0.226204,0.008330,1.004590
2011-09-30T13:16:05.830352,190,-1.303821,-0.012189,-10.751445,0.226500,0.004991,1.004564
2011-09-30T13:16:05.840352,200,-1.374568,0.061346,-11.035591,0.226796,0.001652,1.004538
2011-09-30T13:16:05.850352,210,-1.445316,0.134880,-11.319737,0.227091,-0.001687,1.004512
2011-09-30T13:16:05.860352,220,-1.404069,0.183628,-11.622206,0.225575,-0.003457,1.005161
2011-09-30T13:16:05.870352,230,-1.359855,0.231719,-11.925161,0.224010,-0.005186,1.005827
2011-09-30T13:16:05.880352,240,-1.315640,0.279810,-12.228116,0.222445,-0.006915,1.006494
2011-09-30T13:16:05.890352,250,-1.271426,0.327901,-12.531071,0.220880,-0.008644,1.007160
2011-09-30T13:16:05.900352,260,-1.227212,0.375992,-12.834026,0.219315,-0.010373,1.007827
2011-09-30T13:16:05.910352,270,-1.182998,0.424083,-13.136981,0.217750,-0.012101,1.008493
2011-09-30T13:16:05.920352,280,-1.138784,0.472174,-13.439936,0.216185,-0.013830,1.009160
2011-09-30T13:16:05.930352,290,-1.094569,0.520265,-13.742891,0.214620,-0.015559,1.009826
2011-09-30T13:16:05.940352,300,-1.050355,0.568356,-14.045846,0.213056,-0.017288,1.010493
2011-09-30T13:16:05.950352,310,-1.006141,0.616448,-14.348801,0.211491,-0.019017,1.011159
2011-09-30T13:16:05.960352,320,-0.928460,0.668195,-14.703123,0.210356,-0.020381,1.010798
2011-09-30T13:16:05.970352,330,-0.850745,0.719947,-15.057497,0.209222,-0.021744,1.010436
2011-09-30T13:16:05.980352,340,-0.773031,0.771699,-15.411871,0.208087,-0.023108,1.010073
2011-09-30T13:16:05.990352,350,-0.695316,0.823450,-15.766246,0.206953,-0.024472,1.009711
2011-09-30T13:16:06.000352,360,-0.617601,0.875202,-16.120620,0.205819,-0.025835,1.009349
2011-09-30T13:16:06.010352,370,-0.539887,0.926953,-16.474994,0.204684,-0.027199,1.008986
2011-09-30T13:16:06.020352,380,-0.462172,0.978705,-16.829368,0.203550,-0.028563,1.008624
2011-09-30T13:16:06.030352,390,-0.384457,1.030457,-17.183742,0.202416,-0.029927,1.008262
2011-09-30T13:16:06.040352,400,-0.306743,1.082208,-17.538116,0.201281,-0.031290,1.007899
2011-09-30T13:16:06.050352,410,-0.228911,1.133835,-17.892263,0.200148,-0.032657,1.007534
2011-09-30T13:16:06.060352,420,-0.092532,1.122997,-18.133553,0.199719,-0.035529,1.005484
2011-09-30T13:16:06.070352,430,0.043846,1.112159,-18.374843,0.199289,-0.038400,1.003434
2011-09-30T13:16:06.080352,440,0.180224,1.101321,-18.616133,0.198860,-0.041272,1.001383
2011-09-30T13:16:06.090352,450,0.316602,1.090483,-18.857422,0.198431,-0.044144,0.999333
2011-09-30T13:16:06.100352,460,0.452980,1.079645,-19.098712,0.198001,-0.047015,0.997283
2011-09-30T13:16:06.110352,470,0.589359,1.068807,-19.340002,0.197572,-0.049887,0.995233
2011-09-30T13:16:06.120352,480,0.725737,1.057969,-19.581292,0.197143,-0.052758,0.993183
2011-09-30T13:16:06.130352,490,0.862115,1.047131,-19.822581,0.196713,-0.055630,0.991133
2011-09-30T13:16:06.140352,500,0.998493,1.036293,-20.063871,0.196284,-0.058502,0.989083
2011-09-30T13:16:06.150352,510,1.134871,1.025455,-20.305161,0.195855,-0.061373,0.987033
2011-09-30T13:16:06.160352,520,1.270986,1.014458,-20.546161,0.195425,-0.064234,0.984986
2011-09-30T13:16:06.170352,530,1.298158,0.937934,-20.667831,0.194843,-0.062331,0.984220
2011-09-30T13:16:06.180352,540,1.325330,0.861410,-20.789501,0.194260,-0.060429,0.983454
2011-09-30T13:16:06.190352,550,1.352502,0.784886,-20.911170,0.193678,-0.058527,0.982688
2011-09-30T13:16:06.200352,560,1.379674,0.708362,-21.032840,0.193096,-0.056625,0.981922
2011-09-30T13:16:06.210352,570,1.406846,0.631838,-21.154509,0.192514,-0.054723,0.981156
2011-09-30T13:16:06.220352,580,1.434018,0.555314,-21.276179,0.191931,-0.052821,0.980390
2011-09-30T13:16:06.230352,590,1.461190,0.478790,-21.397849,0.191349,-0.050919,0.979624
2011-09-30T13:16:06.240352,600,1.488362,0.402266,-21.519518,0.190767,-0.049017,0.978858
2011-09-30T13:16:06.250352,610,1.515534,0.325742,-21.641188,0.190185,-0.047115,0.978092
2011-09-30T13:16:06.260352,620,1.542484,0.249350,-21.762977,0.189602,-0.045210,0.977328
2011-09-30T13:16:06.270352,630,1.384305,0.283698,-21.984640,0.188969,-0.041369,0.977517
2011-09-30T13:16:06.280352,640,1.226126,0.318047,-22.206304,0.188335,-0.037529,0.977707
2011-09-30T13:16:06.290352,650,1.067947,0.352395,-22.427967,0.187701,-0.033688,0.977896
2011-09-30T13:16:06.300352,660,0.909768,0.386743,-22.649630,0.187067,-0.029847,0.978086
2011-09-30T13:16:06.310352,670,0.751589,0.421091,-22.871293,0.186434,-0.026007,0.978276
2011-09-30T13:16:06.320352,680,0.593410,0.455439,-23.092956,0.185800,-0.022166,0.978465
2011-09-30T13:16:06.330352,690,0.435231,0.489787,-23.314619,0.185166,-0.018325,0.978655
2011-09-30T13:16:06.340352,700,0.277052,0.524135,-23.536282,0.184533,-0.014485,0.978845
2011-09-30T13:16:06.350352,710,0.118873,0.558484,-23.757946,0.183899,-0.010644,0.979034
2011-09-30T13:16:06.360352,720,-0.039306,0.592832,-23.979609,0.183265,-0.006803,0.979224
2011-09-30T13:16:06.370352,730,-0.197485,0.627180,-24.201272,0.182632,-0.002963,0.979413
2011-09-30T13:16:06.380352,740,-0.221368,0.691416,-24.458850,0.180240,-0.007252,0.986501
2011-09-30T13:16:06.390352,750,-0.244575,0.755802,-24.716610,0.177840,-0.011582,0.993622
2011-09-30T13:16:06.400352,760,-0.267782,0.820189,-24.974369,0.175439,-0.015913,1.000744
2011-09-30T13:16:06.410352,770,-0.290989,0.884575,-25.232128,0.173039,-0.020243,1.007866
2011-09-30T13:16:06.420352,780,-0.314197,0.948962,-25.489887,0.170638,-0.024573,1.014988
2011-09-30T13:16:06.430352,790,-0.337404,1.013348,-25.747646,0.168238,-0.028904,1.022109
2011-09-30T13:16:06.440352,800,-0.360611,1.077735,-26.005406,0.165837,-0.033234,1.029231
2011-09-30T13:16:06.450352,810,-0.383819,1.142121,-26.263165,0.163437,-0.037564,1.036353
2011-09-30T13:16:06.460352,820,-0.407026,1.206508,-26.520924,0.161036,-0.041895,1.043475
2011-09-30T13:16:06.470352,830,-0.430233,1.270894,-26.778683,0.158636,-0.046225,1.050596
2011-09-30T13:16:06.480352,840,-0.332535,1.491732,-26.814671,0.157770,-0.058938,1.053473
2011-09-30T13:16:06.490352,850,-0.234630,1.712837,-26.850278,0.156908,-0.071665,1.056343
2011-09-30T13:16:06.500352,860,-0.136725,1.933942,-26.885886,0.156045,-0.084392,1.059212
2011-09-30T13:16:06.510352,870,-0.038820,2.155047,-26.921494,0.155182,-0.097119,1.062081
2011-09-30T13:16:06.520352,880,0.059085,2.376152,-26.957102,0.154319,-0.109847,1.064951
2011-09-30T13:16:06.530352,890,0.156990,2.597258,-26.992709,0.153456,-0.122574,1.067820
2011-09-30T13:16:06.540352,900,0.254895,2.818363,-27.028317,0.152593,-0.135301,1.070690
2011-09-30T13:16:06.550352,910,0.352800,3.039468,-27.063925,0.151731,-0.148028,1.073559
2011-09-30T13:16:06.560352,920,0.450705,3.260573,-27.099533,0.150868,-0.160755,1.076429
2011-09-30T13:16:06.570352,930,0.548609,3.481678,-27.135141,0.150005,-0.173482,1.079298
2011-09-30T13:16:06.580352,940,0.646940,3.702308,-27.170746,0.149141,-0.186153,1.082127
2011-09-30T13:16:06.590352,950,0.915802,3.732573,-27.205492,0.147741,-0.176239,1.068724
2011-09-30T13:16:06.600352,960,1.184663,3.762839,-27.240237,0.146341,-0.166325,1.055322
2011-09-30T13:16:06.610352,970,1.453524,3.793104,-27.274982,0.144941,-0.156411,1.041919
2011-09-30T13:16:06.620352,980,1.722386,3.823369,-27.309728,0.143542,-0.146497,1.028516
2011-09-30T13:16:06.630352,990,1.991247,3.853634,-27.344473,0.142142,-0.136583,1.015114
2011-09-30T13:16:06.640352,1000,2.260108,3.883899,-27.379219,0.140742,-0.126669,1.001711
2011-09-30T13:16:06.650352,1010,2.528970,3.914164,-27.413964,0.139342,-0.116755,0.988309
2011-09-30T13:16:06.660352,1020,2.797831,3.944429,-27.448710,0.137943,-0.106841,0.974906
2011-09-30T13:16:06.670352,1030,3.066692,3.974694,-27.483455,0.136543,-0.096927,0.961503
2011-09-30T13:16:06.680352,1040,3.333691,4.003956,-27.519230,0.135146,-0.087028,0.948168
2011-09-30T13:16:06.690352,1050,3.244446,3.841288,-27.751863,0.134252,-0.079923,0.947642
2011-09-30T13:16:06.700352,1060,3.155200,3.678619,-27.984497,0.133358,-0.072819,0.947117
2011-09-30T13:16:06.710352,1070,3.065954,3.515951,-28.217130,0.132464,-0.065714,0.946592
2011-09-30T13:16:06.720352,1080,2.976709,3.353283,-28.449764,0.131570,-0.058610,0.946067
2011-09-30T13:16:06.730352,1090,2.887463,3.190615,-28.682398,0.130676,-0.051506,0.945542
2011-09-30T13:16:06.740352,1100,2.798217,3.027946,-28.915031,0.129782,-0.044401,0.945017
2011-09-30T13:16:06.750352,1110,2.708972,2.865278,-29.147665,0.128888,-0.037297,0.944492
2011-09-30T13:16:06.760352,1120,2.619726,2.702610,-29.380299,0.127994,-0.030193,0.943966
2011-09-30T13:16:06.770352,1130,2.530480,2.539941,-29.612932,0.127100,-0.023088,0.943441
2011-09-30T13:16:06.780352,1140,2.440985,2.377465,-29.845407,0.126209,-0.016010,0.942924
2011-09-30T13:16:06.790352,1150,2.213573,2.320784,-29.989958,0.127226,-0.023496,0.946756
2011-09-30T13:16:06.800352,1160,1.986161,2.264103,-30.134510,0.128243,-0.030982,0.950588
2011-09-30T13:16:06.810352,1170,1.758750,2.207422,-30.279062,0.129260,-0.038468,0.954420
2011-09-30T13:16:06.820352,1180,1.531338,2.150741,-30.423613,0.130276,-0.045955,0.958252
2011-09-30T13:16:06.830352,1190,1.303926,2.094060,-30.568165,0.131293,-0.053441,0.962084
2011-09-30T13:16:06.840352,1200,1.076514,2.037378,-30.712716,0.132310,-0.060927,0.965916
2011-09-30T13:16:06.850352,1210,0.849103,1.980697,-30.857268,0.133327,-0.068413,0.969748
2011-09-30T13:16:06.860352,1220,0.621691,1.924016,-31.001820,0.134343,-0.075899,0.973580
2011-09-30T13:16:06.870352,1230,0.394279,1.867335,-31.146371,0.135360,-0.083385,0.977412
2011-09-30T13:16:06.880352,1240,0.166867,1.810654,-31.290923,0.136377,-0.090871,0.981244
2011-09-30T13:16:06.890352,1250,-0.060544,1.753973,-31.435474,0.137394,-0.098358,0.985075
2011-09-30T13:16:06.900352,1260,-0.051762,1.797176,-31.478527,0.137191,-0.102546,0.985130
2011-09-30T13:16:06.910352,1270,-0.040762,1.841316,-31.520627,0.136977,-0.106704,0.985149
2011-09-30T13:16:06.920352,1280,-0.029762,1.885456,-31.562727,0.136762,-0.110861,0.985169
2011-09-30T13:16:06.930352,1290,-0.018762,1.929597,-31.604827,0.136548,-0.115019,0.985188
2011-09-30T13:16:06.940352,1300,-0.007762,1.973737,-31.646927,0.136334,-0.119176,0.985207
2011-09-30T13:16:06.950352,1310,0.003238,2.017877,-31.689027,0.136119,-0.123334,0.985226
2011-09-30T13:16:06.960352,1320,0.014238,2.062017,-31.731127,0.135905,-0.127491,0.985246
2011-09-30T13:16:06.970352,1330,0.025238,2.106158,-31.773227,0.135691,-0.131649,0.985265
2011-09-30T13:16:06.980352,1340,0.036238,2.150298,-31.815327,0.135476,-0.135806,0.985284
2011-09-30T13:16:06.990352,1350,0.047658,2.194189,-31.857578,0.135258,-0.139945,0.985310
2011-09-30T13:16:07.000352,1360,0.182346,2.164794,-31.944453,0.133783,-0.138438,0.987150
2011-09-30T13:16:07.010352,1370,0.317035,2.135399,-32.031327,0.132309,-0.136932,0.988991
2011-09-30T13:16:07.020352,1380,0.451724,2.106005,-32.118201,0.130835,-0.135426,0.990831
2011-09-30T13:16:07.030352,1390,0.586412,2.076610,-32.205076,0.129361,-0.133920,0.992672
2011-09-30T13:16:07.040352,1400,0.721101,2.047215,-32.291950,0.127886,-0.132414,0.994512
2011-09-30T13:16:07.050352,1410,0.855789,2.017821,-32.378824,0.126412,-0.130908,0.996353
2011-09-30T13:16:07.060352,1420,0.990478,1.988426,-32.465698,0.124938,-0.129401,0.998193
2011-09-30T13:16:07.070352,1430,1.125166,1.959031,-32.552573,0.123463,-0.127895,1.000034
2011-09-30T13:16:07.080352,1440,1.259855,1.929637,-32.639447,0.121989,-0.126389,1.001874
2011-09-30T13:16:07.090352,1450,1.394543,1.900242,-32.726321,0.120515,-0.124883,1.003715
2011-09-30T13:16:07.100352,1460,1.529014,1.870825,-32.813108,0.119046,-0.123386,1.005544
2011-09-30T13:16:07.110352,1470,1.595596,1.834399,-32.872507,0.119305,-0.124905,1.003959
2011-09-30T13:16:07.120352,1480,1.662178,1.797974,-32.931906,0.119563,-0.126424,1.002374
2011-09-30T13:16:07.130352,1490,1.728760,1.761548,-32.991306,0.119821,-0.127943,1.000789
2011-09-30T13:16:07.140352,1500,1.795342,1.725122,-33.050705,0.120080,-0.129462,0.999204
2011-09-30T13:16:07.150352,1510,1.861924,1.688697,-33.110104,0.120338,-0.130981,0.997619
2011-09-30T13:16:07.160352,1520,1.928506,1.652271,-33.169504,0.120597,-0.132500,0.996034
2011-09-30T13:16:07.170352,1530,1.995088,1.615846,-33.228903,0.120855,-0.134019,0.994449
2011-09-30T13:16:07.180352,1540,2.061670,1.579420,-33.288302,0.121113,-0.135538,0.992864
2011-09-30T13:16:07.190352,1550,2.128252,1.542994,-33.347702,0.121372,-0.137057,0.991279
2011-09-30T13:16:07.200352,1560,2.194182,1.506514,-33.406348,0.121645,-0.138568,0.989680
2011-09-30T13:16:07.210352,1570,2.162221,1.461787,-33.351955,0.124055,-0.139030,0.986010
2011-09-30T13:16:07.220352,1580,2.130260,1.417061,-33.297562,0.126465,-0.139491,0.982340
2011-09-30T13:16:07.230352,1590,2.098300,1.372334,-33.243170,0.128875,-0.139953,0.978670
2011-09-30T13:16:07.240352,1600,2.066339,1.327607,-33.188777,0.131285,-0.140414,0.974999
2011-09-30T13:16:07.250352,1610,2.034378,1.282881,-33.134384,0.133695,-0.140876,0.971329
2011-09-30T13:16:07.260352,1620,2.002417,1.238154,-33.079991,0.136105,-0.141337,0.967659
2011-09-30T13:16:07.270352,1630,1.970457,1.193427,-33.025598,0.138515,-0.141799,0.963988
2011-09-30T13:16:07.280352,1640,1.938496,1.148701,-32.971205,0.140925,-0.142260,0.960318
2011-09-30T13:16:07.290352,1650,1.906535,1.103974,-32.916812,0.143335,-0.142721,0.956648
2011-09-30T13:16:07.300352,1660,1.874829,1.058927,-32.862470,0.145737,-0.143165,0.953003
2011-09-30T13:16:07.310352,1670,1.877651,0.970474,-32.814900,0.147098,-0.141218,0.952833
2011-09-30T13:16:07.320352,1680,1.880473,0.882020,-32.767331,0.148458,-0.139271,0.952663
2011-09-30T13:16:07.330352,1690,1.883295,0.793566,-32.719761,0.149819,-0.137323,0.952493
2011-09-30T13:16:07.340352,1700,1.886117,0.705112,-32.672192,0.151180,-0.135376,0.952323
2011-09-30T13:16:07.350352,1710,1.888939,0.616659,-32.624623,0.152540,-0.133429,0.952153
2011-09-30T13:16:07.360352,1720,1.891760,0.528205,-32.577053,0.153901,-0.131482,0.951983
2011-09-30T13:16:07.370352,1730,1.894582,0.439751,-32.529484,0.155261,-0.129534,0.951813
2011-09-30T13:16:07.380352,1740,1.897404,0.351298,-32.481915,0.156622,-0.127587,0.951643
2011-09-30T13:16:07.390352,1750,1.900226,0.262844,-32.434345,0.157982,-0.125640,0.951473
2011-09-30T13:16:07.400352,1760,1.903048,0.174390,-32.386776,0.159343,-0.123692,0.951303
2011-09-30T13:16:07.410352,1770,1.905870,0.085936,-32.339207,0.160704,-0.121745,0.951133
2011-09-30T13:16:07.420352,1780,1.823428,0.081306,-32.305808,0.160084,-0.120570,0.956199
2011-09-30T13:16:07.430352,1790,1.740011,0.077634,-32.272572,0.159442,-0.119405,0.961325
2011-09-30T13:16:07.440352,1800,1.656594,0.073962,-32.239335,0.158799,-0.118239,0.966450
2011-09-30T13:16:07.450352,1810,1.573178,0.070290,-32.206099,0.158157,-0.117073,0.971576
2011-09-30T13:16:07.460352,1820,1.489761,0.066618,-32.172863,0.157515,-0.115907,0.976702
2011-09-30T13:16:07.470352,1830,1.406344,0.062946,-32.139626,0.156872,-0.114741,0.981828
2011-09-30T13:16:07.480352,1840,1.322928,0.059274,-32.106390,0.156230,-0.113576,0.986954
2011-09-30T13:16:07.490352,1850,1.239511,0.055602,-32.073153,0.155588,-0.112410,0.992080
2011-09-30T13:16:07.500352,1860,1.156094,0.051930,-32.039917,0.154945,-0.111244,0.997206
2011-09-30T13:16:07.510352,1870,1.072012,0.048741,-32.006319,0.154311,-0.110097,1.002307
2011-09-30T13:16:07.520352,1880,0.892306,0.114967,-31.920741,0.154895,-0.111692,1.003754
2011-09-30T13:16:07.530352,1890,0.712600,0.181194,-31.835162,0.155478,-0.113287,1.005200
2011-09-30T13:16:07.540352,1900,0.532894,0.247420,-31.749584,0.156061,-0.114882,1.006647
2011-09-30T13:16:07.550352,1910,0.353188,0.313647,-31.664006,0.156645,-0.116477,1.008094
2011-09-30T13:16:07.560352,1920,0.173481,0.379873,-31.578427,0.157228,-0.118072,1.009541
2011-09-30T13:16:07.570352,1930,-0.006225,0.446099,-31.492849,0.157811,-0.119667,1.010988
2011-09-30T13:16:07.580352,1940,-0.185931,0.512326,-31.407271,0.158395,-0.121262,1.012435
2011-09-30T13:16:07.590352,1950,-0.365637,0.578552,-31.321692,0.158978,-0.122857,1.013882
2011-09-30T13:16:07.600352,1960,-0.545343,0.644779,-31.236114,0.159561,-0.124452,1.015329
2011-09-30T13:16:07.610352,1970,-0.725049,0.711005,-31.150535,0.160145,-0.126047,1.016776
2011-09-30T13:16:07.620352,1980,-0.903783,0.776812,-31.064592,0.160728,-0.127656,1.018202
2011-09-30T13:16:07.630352,1990,-0.840612,0.738251,-30.887827,0.161379,-0.132829,1.014622
2011-09-30T13:16:07.640352,2000,-0.777441,0.699690,-30.711063,0.162029,-0.138002,1.011041
2011-09-30T13:16:07.650352,2010,-0.714270,0.661129,-30.534298,0.162680,-0.143175,1.007460
2011-09-30T13:16:07.660352,2020,-0.651099,0.622569,-30.357534,0.163330,-0.148348,1.003879
2011-09-30T13:16:07.670352,2030,-0.587928,0.584008,-30.180770,0.163980,-0.153521,1.000298
2011-09-30T13:16:07.680352,2040,-0.524757,0.545447,-30.004005,0.164631,-0.158694,0.996717
2011-09-30T13:16:07.690352,2050,-0.461586,0.506886,-29.827241,0.165281,-0.163867,0.993136
2011-09-30T13:16:07.700352,2060,-0.398415,0.468325,-29.650476,0.165932,-0.169040,0.989556
2011-09-30T13:16:07.710352,2070,-0.335244,0.429765,-29.473712,0.166582,-0.174213,0.985975
2011-09-30T13:16:07.720352,2080,-0.272106,0.391558,-29.296727,0.167241,-0.179318,0.982464
2011-09-30T13:16:07.730352,2090,-0.212452,0.391056,-29.096337,0.168805,-0.177187,0.986395
2011-09-30T13:16:07.740352,2100,-0.152798,0.390554,-28.895946,0.170370,-0.175056,0.990327
2011-09-30T13:16:07.750352,2110,-0.093144,0.390053,-28.695555,0.171934,-0.172924,0.994259
2011-09-30T13:16:07.760352,2120,-0.033490,0.389551,-28.495164,0.173498,-0.170793,0.998190
2011-09-30T13:16:07.770352,2130,0.026165,0.389049,-28.294774,0.175062,-0.168662,1.002122
2011-09-30T13:16:07.780352,2140,0.085819,0.388547,-28.094383,0.176626,-0.166531,1.006053
2011-09-30T13:16:07.790352,2150,0.145473,0.388046,-27.893992,0.178190,-0.164400,1.009985
2011-09-30T13:16:07.800352,2160,0.205127,0.387544,-27.693601,0.179754,-0.162269,1.013917
2011-09-30T13:16:07.810352,2170,0.264781,0.387042,-27.493211,0.181318,-0.160138,1.017848
2011-09-30T13:16:07.820352,2180,0.324035,0.386833,-27.292968,0.182876,-0.158005,1.021736
2011-09-30T13:16:07.830352,2190,0.318164,0.434169,-27.116799,0.183419,-0.155585,1.018439
2011-09-30T13:16:07.840352,2200,0.312293,0.481505,-26.940630,0.183963,-0.153164,1.015142
2011-09-30T13:16:07.850352,2210,0.306422,0.528841,-26.764461,0.184506,-0.150744,1.011845
2011-09-30T13:16:07.860352,2220,0.300551,0.576177,-26.588292,0.185049,-0.148324,1.008548
2011-09-30T13:16:07.870352,2230,0.294679,0.623513,-26.412123,0.185592,-0.145903,1.005251
2011-09-30T13:16:07.880352,2240,0.288808,0.670849,-26.235953,0.186135,-0.143483,1.001954
2011-09-30T13:16:07.890352,2250,0.282937,0.718185,-26.059784,0.186678,-0.141062,0.998658
2011-09-30T13:16:07.900352,2260,0.277066,0.765521,-25.883615,0.187222,-0.138642,0.995361
2011-09-30T13:16:07.910352,2270,0.271195,0.812857,-25.707446,0.187765,-0.136222,0.992064
2011-09-30T13:16:07.920352,2280,0.265324,0.860193,-25.531277,0.188308,-0.133801,0.988767
2011-09-30T13:16:07.930352,2290,0.259453,0.907529,-25.355108,0.188851,-0.131381,0.985470
2011-09-30T13:16:07.940352,2300,0.207305,0.817575,-25.216696,0.187829,-0.131654,0.984884
2011-09-30T13:16:07.950352,2310,0.154783,0.726513,-25.078589,0.186795,-0.131948,0.984320
2011-09-30T13:16:07.960352,2320,0.102262,0.635451,-24.940481,0.185760,-0.132243,0.983755
2011-09-30T13:16:07.970352,2330,0.049740,0.544389,-24.802374,0.184726,-0.132538,0.983191
2011-09-30T13:16:07.980352,2340,-0.002781,0.453326,-24.664266,0.183691,-0.132832,0.982627
2011-09-30T13:16:07.990352,2350,-0.055303,0.362264,-24.526159,0.182657,-0.133127,0.982063
2011-09-30T13:16:08.000352,2360,-0.107824,0.271202,-24.388051,0.181622,-0.133421,0.981498
2011-09-30T13:16:08.010352,2370,-0.160345,0.180139,-24.249944,0.180587,-0.133716,0.980934
2011-09-30T13:16:08.020352,2380,-0.212867,0.089077,-24.111836,0.179553,-0.134011,0.980370
2011-09-30T13:16:08.030352,2390,-0.265028,-0.001918,-23.973808,0.178523,-0.134314,0.979804
2011-09-30T13:16:08.040352,2400,-0.205765,-0.072180,-23.860430,0.178764,-0.137351,0.978720
2011-09-30T13:16:08.050352,2410,-0.146501,-0.142442,-23.747052,0.179006,-0.140389,0.977636
2011-09-30T13:16:08.060352,2420,-0.087238,-0.212704,-23.633674,0.179248,-0.143426,0.976552
2011-09-30T13:16:08.070352,2430,-0.027974,-0.282966,-23.520296,0.179490,-0.146464,0.975468
2011-09-30T13:16:08.080352,2440,0.031289,-0.353228,-23.406918,0.179731,-0.149501,0.974384
2011-09-30T13:16:08.090352,2450,0.090552,-0.423490,-23.293540,0.179973,-0.152538,0.973300
2011-09-30T13:16:08.100352,2460,0.149816,-0.493752,-23.180162,0.180215,-0.155576,0.972216
2011-09-30T13:16:08.110352,2470,0.209079,-0.564014,-23.066784,0.180457,-0.158613,0.971132
2011-09-30T13:16:08.120352,2480,0.268343,-0.634276,-22.953406,0.180699,-0.161650,0.970048
2011-09-30T13:16:08.130352,2490,0.327975,-0.704671,-22.839381,0.180943,-0.164664,0.968990
2011-09-30T13:16:08.140352,2500,0.439857,-0.793977,-22.633673,0.181485,-0.164296,0.971574
2011-09-30T13:16:08.150352,2510,0.551739,-0.883283,-22.427966,0.182027,-0.163928,0.974158
2011-09-30T13:16:08.160352,2520,0.663621,-0.972589,-22.222258,0.182569,-0.163560,0.976742
2011-09-30T13:16:08.170352,2530,0.775503,-1.061895,-22.016550,0.183111,-0.163192,0.979326
2011-09-30T13:16:08.180352,2540,0.887385,-1.151201,-21.810842,0.183654,-0.162824,0.981909
2011-09-30T13:16:08.190352,2550,0.999267,-1.240507,-21.605135,0.184196,-0.162456,0.984493
2011-09-30T13:16:08.200352,2560,1.111149,-1.329813,-21.399427,0.184738,-0.162088,0.987077
2011-09-30T13:16:08.210352,2570,1.223031,-1.419119,-21.193719,0.185280,-0.161720,0.989661
2011-09-30T13:16:08.220352,2580,1.334914,-1.508424,-20.988011,0.185823,-0.161352,0.992245
2011-09-30T13:16:08.230352,2590,1.446796,-1.597730,-20.782304,0.186365,-0.160983,0.994829
2011-09-30T13:16:08.240352,2600,1.558428,-1.686840,-20.576459,0.186907,-0.160604,0.997405
2011-09-30T13:16:08.250352,2610,1.584315,-1.708505,-20.323612,0.187483,-0.156375,0.997414
2011-09-30T13:16:08.260352,2620,1.610201,-1.730171,-20.070765,0.188058,-0.152145,0.997422
2011-09-30T13:16:08.270352,2630,1.636088,-1.751836,-19.817917,0.188634,-0.147915,0.997431
2011-09-30T13:16:08.280352,2640,1.661975,-1.773501,-19.565070,0.189209,-0.143685,0.997440
2011-09-30T13:16:08.290352,2650,1.687861,-1.795167,-19.312223,0.189785,-0.139456,0.997448
2011-09-30T13:16:08.300352,2660,1.713748,-1.816832,-19.059376,0.190360,-0.135226,0.997457
2011-09-30T13:16:08.310352,2670,1.739635,-1.838498,-18.806529,0.190936,-0.130996,0.997465
2011-09-30T13:16:08.320352,2680,1.765521,-1.860163,-18.553681,0.191511,-0.126766,0.997474
2011-09-30T13:16:08.330352,2690,1.791408,-1.881828,-18.300834,0.192087,-0.122537,0.997483
2011-09-30T13:16:08.340352,2700,1.816934,-1.903302,-18.048001,0.192661,-0.118314,0.997502
2011-09-30T13:16:08.350352,2710,1.773586,-1.888030,-17.797893,0.192992,-0.115337,0.999513
2011-09-30T13:16:08.360352,2720,1.730238,-1.872759,-17.547785,0.193323,-0.112361,1.001525
2011-09-30T13:16:08.370352,2730,1.686890,-1.857487,-17.297677,0.193654,-0.109384,1.003536
2011-09-30T13:16:08.380352,2740,1.643541,-1.842216,-17.047568,0.193985,-0.106408,1.005548
2011-09-30T13:16:08.390352,2750,1.600193,-1.826944,-16.797460,0.194316,-0.103431,1.007559
2011-09-30T13:16:08.400352,2760,1.556845,-1.811673,-16.547352,0.194647,-0.100455,1.009571
2011-09-30T13:16:08.410352,2770,1.513497,-1.796401,-16.297243,0.194979,-0.097478,1.011582
2011-09-30T13:16:08.420352,2780,1.470148,-1.781130,-16.047135,0.195310,-0.094502,1.013594
2011-09-30T13:16:08.430352,2790,1.426800,-1.765858,-15.797027,0.195641,-0.091525,1.015605
2011-09-30T13:16:08.440352,2800,1.383524,-1.750424,-15.546789,0.195970,-0.088556,1.017614
2011-09-30T13:16:08.450352,2810,1.366055,-1.677107,-15.250440,0.195520,-0.088247,1.018540
2011-09-30T13:16:08.460352,2820,1.348586,-1.603790,-14.954091,0.195071,-0.087939,1.019466
2011-09-30T13:16:08.470352,2830,1.331117,-1.530474,-14.657743,0.194621,-0.087630,1.020392
2011-09-30T13:16:08.480352,2840,1.313648,-1.457157,-14.361394,0.194172,-0.087321,1.021319
2011-09-30T13:16:08.490352,2850,1.296179,-1.383840,-14.065045,0.193722,-0.087012,1.022245
2011-09-30T13:16:08.500352,2860,1.278710,-1.310523,-13.768696,0.193273,-0.086703,1.023171
2011-09-30T13:16:08.510352,2870,1.261241,-1.237206,-13.472347,0.192823,-0.086395,1.024098
2011-09-30T13:16:08.520352,2880,1.243772,-1.163890,-13.175999,0.192374,-0.086086,1.025024
2011-09-30T13:16:08.530352,2890,1.226303,-1.090573,-12.879650,0.191924,-0.085777,1.025950
2011-09-30T13:16:08.540352,2900,1.208834,-1.017256,-12.583301,0.191475,-0.085468,1.026876
2011-09-30T13:16:08.550352,2910,1.191342,-0.943931,-12.286921,0.191025,-0.085155,1.027802
2011-09-30T13:16:08.560352,2920,1.163898,-0.866647,-11.976402,0.190272,-0.082722,1.028323
2011-09-30T13:16:08.570352,2930,1.136453,-0.789363,-11.665882,0.189519,-0.080289,1.028844
2011-09-30T13:16:08.580352,2940,1.109009,-0.712080,-11.355363,0.188766,-0.077857,1.029365
2011-09-30T13:16:08.590352,2950,1.081564,-0.634796,-11.044844,0.188013,-0.075424,1.029886
2011-09-30T13:16:08.600352,2960,1.054120,-0.557513,-10.734325,0.187261,-0.072991,1.030407
2011-09-30T13:16:08.610352,2970,1.026675,-0.480229,-10.423805,0.186508,-0.070558,1.030927
2011-09-30T13:16:08.620352,2980,0.999231,-0.402946,-10.113286,0.185755,-0.068125,1.031448
2011-09-30T13:16:08.630352,2990,0.971786,-0.325662,-9.802767,0.185002,-0.065693,1.031969
2011-09-30T13:16:08.640352,3000,0.944342,-0.248379,-9.492248,0.184249,-0.063260,1.032490
2011-09-30T13:16:08.650352,3010,0.916993,-0.171166,-9.182666,0.183503,-0.060808,1.032991
2011-09-30T13:16:08.660352,3020,0.900691,-0.102068,-8.980989,0.183465,-0.056189,1.031217
2011-09-30T13:16:08.670352,3030,0.884388,-0.032970,-8.779312,0.183427,-0.051570,1.029442
2011-09-30T13:16:08.680352,3040,0.868086,0.036128,-8.577635,0.183389,-0.046952,1.027667
2011-09-30T13:16:08.690352,3050,0.851783,0.105226,-8.375958,0.183351,-0.042333,1.025892
2011-09-30T13:16:08.700352,3060,0.835481,0.174324,-8.174281,0.183313,-0.037714,1.024117
2011-09-30T13:16:08.710352,3070,0.819178,0.243422,-7.972604,0.183275,-0.033095,1.022342
2011-09-30T13:16:08.720352,3080,0.802876,0.312520,-7.770927,0.183237,-0.028476,1.020567
2011-09-30T13:16:08.730352,3090,0.786573,0.381617,-7.569250,0.183200,-0.023857,1.018792
2011-09-30T13:16:08.740352,3100,0.770270,0.450715,-7.367573,0.183162,-0.019238,1.017017
2011-09-30T13:16:08.750352,3110,0.753968,0.519813,-7.165896,0.183124,-0.014620,1.015242
2011-09-30T13:16:08.760352,3120,0.737099,0.588848,-6.965225,0.183083,-0.010016,1.013461
2011-09-30T13:16:08.770352,3130,0.633623,0.648223,-6.918530,0.182571,-0.007770,1.010724
2011-09-30T13:16:08.780352,3140,0.530146,0.707598,-6.871835,0.182059,-0.005524,1.007988
2011-09-30T13:16:08.790352,3150,0.426669,0.766973,-6.825140,0.181548,-0.003277,1.005251
2011-09-30T13:16:08.800352,3160,0.323192,0.826348,-6.778444,0.181036,-0.001031,1.002514
2011-09-30T13:16:08.810352,3170,0.219716,0.885724,-6.731749,0.180524,0.001215,0.999778
2011-09-30T13:16:08.820352,3180,0.116239,0.945099,-6.685054,0.180013,0.003462,0.997041
2011-09-30T13:16:08.830352,3190,0.012762,1.004474,-6.638359,0.179501,0.005708,0.994304
2011-09-30T13:16:08.840352,3200,-0.090714,1.063849,-6.591664,0.178989,0.007954,0.991568
2011-09-30T13:16:08.850352,3210,-0.194191,1.123224,-6.544969,0.178478,0.010200,0.988831
2011-09-30T13:16:08.860352,3220,-0.297668,1.182599,-6.498273,0.177966,0.012447,0.986094
2011-09-30T13:16:08.870352,3230,-0.321007,1.187891,-6.465087,0.177378,0.009742,0.986287
2011-09-30T13:16:08.880352,3240,-0.343307,1.192483,-6.432076,0.176789,0.006973,0.986518
2011-09-30T13:16:08.890352,3250,-0.365608,1.197075,-6.399065,0.176200,0.004204,0.986750
2011-09-30T13:16:08.900352,3260,-0.387908,1.201666,-6.366054,0.175611,0.001435,0.986981
2011-09-30T13:16:08.910352,3270,-0.410209,1.206258,-6.333043,0.175022,-0.001334,0.987212
2011-09-30T13:16:08.920352,3280,-0.432509,1.210850,-6.300032,0.174433,-0.004102,0.987443
2011-09-30T13:16:08.930352,3290,-0.454809,1.215441,-6.267021,0.173844,-0.006871,0.987674
2011-09-30T13:16:08.940352,3300,-0.477110,1.220033,-6.234010,0.173255,-0.009640,0.987905
2011-09-30T13:16:08.950352,3310,-0.499410,1.224624,-6.200999,0.172666,-0.012409,0.988136
2011-09-30T13:16:08.960352,3320,-0.521528,1.229170,-6.168009,0.172075,-0.015170,0.988370
2011-09-30T13:16:08.970352,3330,-0.489996,1.220308,-6.141127,0.170832,-0.015596,0.989402
2011-09-30T13:16:08.980352,3340,-0.458463,1.211445,-6.114246,0.169589,-0.016023,0.990435
2011-09-30T13:16:08.990352,3350,-0.426931,1.202582,-6.087365,0.168346,-0.016449,0.991467
2011-09-30T13:16:09.000352,3360,-0.395398,1.193719,-6.060484,0.167103,-0.016876,0.992499
2011-09-30T13:16:09.010352,3370,-0.363866,1.184856,-6.033603,0.165860,-0.017302,0.993532
2011-09-30T13:16:09.020352,3380,-0.332334,1.175994,-6.006722,0.164618,-0.017729,0.994564
2011-09-30T13:16:09.030352,3390,-0.300801,1.167131,-5.979840,0.163375,-0.018155,0.995596
2011-09-30T13:16:09.040352,3400,-0.269269,1.158268,-5.952959,0.162132,-0.018582,0.996629
2011-09-30T13:16:09.050352,3410,-0.237737,1.149405,-5.926078,0.160889,-0.019008,0.997661
2011-09-30T13:16:09.060352,3420,-0.206204,1.140542,-5.899197,0.159646,-0.019435,0.998693
2011-09-30T13:16:09.070352,3430,-0.175323,1.131798,-5.872558,0.158400,-0.019855,0.999698
2011-09-30T13:16:09.080352,3440,-0.206252,1.134277,-5.868906,0.156808,-0.019729,0.998031
2011-09-30T13:16:09.090352,3450,-0.237182,1.136756,-5.865253,0.155217,-0.019604,0.996365
2011-09-30T13:16:09.100352,3460,-0.268111,1.139235,-5.861601,0.153626,-0.019478,0.994699
2011-09-30T13:16:09.110352,3470,-0.299040,1.141714,-5.857948,0.152034,-0.019352,0.993033
2011-09-30T13:16:09.120352,3480,-0.329969,1.144192,-5.854296,0.150443,-0.019226,0.991366
2011-09-30T13:16:09.130352,3490,-0.360899,1.146671,-5.850643,0.148851,-0.019100,0.989700
2011-09-30T13:16:09.140352,3500,-0.391828,1.149150,-5.846991,0.147260,-0.018974,0.988034
2011-09-30T13:16:09.150352,3510,-0.422757,1.151629,-5.843339,0.145669,-0.018848,0.986368
2011-09-30T13:16:09.160352,3520,-0.453687,1.154108,-5.839686,0.144077,-0.018722,0.984702
2011-09-30T13:16:09.170352,3530,-0.483904,1.156353,-5.836211,0.142488,-0.018594,0.983053
2011-09-30T13:16:09.180352,3540,-0.418642,1.127211,-5.856580,0.141115,-0.018236,0.983756
2011-09-30T13:16:09.190352,3550,-0.353379,1.098069,-5.876949,0.139742,-0.017877,0.984459
2011-09-30T13:16:09.200352,3560,-0.288116,1.068927,-5.897318,0.138368,-0.017519,0.985162
2011-09-30T13:16:09.210352,3570,-0.222853,1.039785,-5.917687,0.136995,-0.017161,0.985865
2011-09-30T13:16:09.220352,3580,-0.157591,1.010642,-5.938056,0.135622,-0.016802,0.986568
2011-09-30T13:16:09.230352,3590,-0.092328,0.981500,-5.958425,0.134249,-0.016444,0.987271
2011-09-30T13:16:09.240352,3600,-0.027065,0.952358,-5.978794,0.132876,-0.016085,0.987974
2011-09-30T13:16:09.250352,3610,0.038198,0.923216,-5.999162,0.131503,-0.015727,0.988676
2011-09-30T13:16:09.260352,3620,0.103460,0.894074,-6.019531,0.130130,-0.015368,0.989379
2011-09-30T13:16:09.270352,3630,0.168723,0.864932,-6.039900,0.128757,-0.015010,0.990082
2011-09-30T13:16:09.280352,3640,0.181843,0.844946,-6.026920,0.126372,-0.015134,0.991120
2011-09-30T13:16:09.290352,3650,0.194763,0.824995,-6.013811,0.123984,-0.015261,0.992159
2011-09-30T13:16:09.300352,3660,0.207683,0.805044,-6.000703,0.121595,-0.015387,0.993199
2011-09-30T13:16:09.310352,3670,0.220604,0.785093,-5.987595,0.119206,-0.015513,0.994238
2011-09-30T13:16:09.320352,3680,0.233524,0.765143,-5.974487,0.116818,-0.015640,0.995277
2011-09-30T13:16:09.330352,3690,0.246444,0.745192,-5.961379,0.114429,-0.015766,0.996316
2011-09-30T13:16:09.340352,3700,0.259365,0.725241,-5.948271,0.112040,-0.015893,0.997355
2011-09-30T13:16:09.350352,3710,0.272285,0.705290,-5.935163,0.109652,-0.016019,0.998394
2011-09-30T13:16:09.360352,3720,0.285205,0.685339,-5.922055,0.107263,-0.016145,0.999433
2011-09-30T13:16:09.370352,3730,0.298125,0.665389,-5.908947,0.104874,-0.016272,1.000473
2011-09-30T13:16:09.380352,3740,0.311046,0.645438,-5.895839,0.102486,-0.016398,1.001512
2011-09-30T13:16:09.390352,3750,0.238494,0.761439,-5.903937,0.097840,-0.014265,0.999777
2011-09-30T13:16:09.400352,3760,0.165367,0.878355,-5.912179,0.093180,-0.012117,0.998024
2011-09-30T13:16:09.410352,3770,0.092239,0.995271,-5.920420,0.088520,-0.009969,0.996271
2011-09-30T13:16:09.420352,3780,0.019112,1.112188,-5.928661,0.083859,-0.007820,0.994517
2011-09-30T13:16:09.430352,3790,-0.054015,1.229104,-5.936903,0.079199,-0.005672,0.992764
2011-09-30T13:16:09.440352,3800,-0.127143,1.346020,-5.945144,0.074539,-0.003524,0.991011
2011-09-30T13:16:09.450352,3810,-0.200270,1.462936,-5.953385,0.069878,-0.001376,0.989258
2011-09-30T13:16:09.460352,3820,-0.273397,1.579853,-5.961627,0.065218,0.000773,0.987504
2011-09-30T13:16:09.470352,3830,-0.346525,1.696769,-5.969868,0.060558,0.002921,0.985751
2011-09-30T13:16:09.480352,3840,-0.419003,1.812573,-5.978439,0.055904,0.005016,0.984040
2011-09-30T13:16:09.490352,3850,-0.423732,1.812355,-6.021456,0.051979,0.001517,0.986760
2011-09-30T13:16:09.500352,3860,-0.428460,1.812137,-6.064472,0.048053,-0.001981,0.989480
2011-09-30T13:16:09.510352,3870,-0.433189,1.811919,-6.107488,0.044128,-0.005480,0.992200
2011-09-30T13:16:09.520352,3880,-0.437918,1.811701,-6.150504,0.040203,-0.008978,0.994920
2011-09-30T13:16:09.530352,3890,-0.442647,1.811483,-6.193521,0.036277,-0.012476,0.997640
2011-09-30T13:16:09.540352,3900,-0.447376,1.811266,-6.236537,0.032352,-0.015975,1.000360
2011-09-30T13:16:09.550352,3910,-0.452105,1.811048,-6.279553,0.028427,-0.019473,1.003080
2011-09-30T13:16:09.560352,3920,-0.456834,1.810830,-6.322569,0.024501,-0.022972,1.005800
2011-09-30T13:16:09.570352,3930,-0.461563,1.810612,-6.365586,0.020576,-0.026470,1.008520
2011-09-30T13:16:09.580352,3940,-0.465982,1.811000,-6.408576,0.016662,-0.029949,1.011187
2011-09-30T13:16:09.590352,3950,-0.443784,1.863394,-6.449340,0.013695,-0.031709,1.009314
2011-09-30T13:16:09.600352,3960,-0.421585,1.915788,-6.490104,0.010728,-0.033470,1.007441
2011-09-30T13:16:09.610352,3970,-0.399387,1.968183,-6.530869,0.007762,-0.035231,1.005567
2011-09-30T13:16:09.620352,3980,-0.377188,2.020577,-6.571633,0.004795,-0.036991,1.003694
2011-09-30T13:16:09.630352,3990,-0.354990,2.072971,-6.612397,0.001828,-0.038752,1.001821
2011-09-30T13:16:09.640352,4000,-0.332792,2.125365,-6.653161,-0.001138,-0.040513,0.999948
2011-09-30T13:16:09.650352,4010,-0.310593,2.177759,-6.693925,-0.004105,-0.042273,0.998075
2011-09-30T13:16:09.660352,4020,-0.288395,2.230153,-6.734689,-0.007072,-0.044034,0.996202
2011-09-30T13:16:09.670352,4030,-0.266196,2.282547,-6.775454,-0.010039,-0.045795,0.994329
2011-09-30T13:16:09.680352,4040,-0.243998,2.334942,-6.816218,-0.013005,-0.047555,0.992456
2011-09-30T13:16:09.690352,4050,-0.221887,2.386169,-6.857004,-0.015955,-0.049295,0.990576
2011-09-30T13:16:09.700352,4060,-0.210742,2.291127,-6.900499,-0.016839,-0.048357,0.987806
2011-09-30T13:16:09.710352,4070,-0.199597,2.196085,-6.943994,-0.017722,-0.047420,0.985037
2011-09-30T13:16:09.720352,4080,-0.188452,2.101043,-6.987490,-0.018606,-0.046482,0.982268
2011-09-30T13:16:09.730352,4090,-0.177307,2.006001,-7.030985,-0.019489,-0.045545,0.979499
2011-09-30T13:16:09.740352,4100,-0.166162,1.910959,-7.074481,-0.020373,-0.044607,0.976730
2011-09-30T13:16:09.750352,4110,-0.155017,1.815917,-7.117976,-0.021256,-0.043670,0.973961
2011-09-30T13:16:09.760352,4120,-0.143872,1.720875,-7.161471,-0.022140,-0.042732,0.971192
2011-09-30T13:16:09.770352,4130,-0.132727,1.625833,-7.204967,-0.023023,-0.041795,0.968423
2011-09-30T13:16:09.780352,4140,-0.121581,1.530791,-7.248462,-0.023906,-0.040857,0.965654
2011-09-30T13:16:09.790352,4150,-0.110347,1.435678,-7.292027,-0.024784,-0.039946,0.962920
2011-09-30T13:16:09.800352,4160,-0.091014,1.334192,-7.341850,-0.025112,-0.041451,0.963414
2011-09-30T13:16:09.810352,4170,-0.071681,1.232706,-7.391674,-0.025439,-0.042956,0.963908
2011-09-30T13:16:09.820352,4180,-0.052348,1.131219,-7.441497,-0.025767,-0.044461,0.964403
2011-09-30T13:16:09.830352,4190,-0.033015,1.029733,-7.491321,-0.026095,-0.045967,0.964897
2011-09-30T13:16:09.840352,4200,-0.013682,0.928247,-7.541144,-0.026423,-0.047472,0.965391
2011-09-30T13:16:09.850352,4210,0.005652,0.826761,-7.590968,-0.026751,-0.048977,0.965885
2011-09-30T13:16:09.860352,4220,0.024985,0.725274,-7.640791,-0.027079,-0.050482,0.966379
2011-09-30T13:16:09.870352,4230,0.044318,0.623788,-7.690615,-0.027407,-0.051987,0.966873
2011-09-30T13:16:09.880352,4240,0.063651,0.522302,-7.740438,-0.027734,-0.053492,0.967367
2011-09-30T13:16:09.890352,4250,0.082984,0.420816,-7.790261,-0.028062,-0.054997,0.967861
2011-09-30T13:16:09.900352,4260,0.102317,0.319330,-7.840085,-0.028390,-0.056502,0.968355
2011-09-30T13:16:09.910352,4270,0.076980,0.239528,-7.865973,-0.028127,-0.057957,0.970388
2011-09-30T13:16:09.920352,4280,0.051487,0.159802,-7.891776,-0.027862,-0.059411,0.972427
2011-09-30T13:16:09.930352,4290,0.025993,0.080076,-7.917580,-0.027597,-0.060865,0.974465
2011-09-30T13:16:09.940352,4300,0.000500,0.000350,-7.943384,-0.027332,-0.062319,0.976504
2011-09-30T13:16:09.950352,4310,-0.024994,-0.079376,-7.969187,-0.027066,-0.063773,0.978542
2011-09-30T13:16:09.960352,4320,-0.050487,-0.159102,-7.994991,-0.026801,-0.065227,0.980580
2011-09-30T13:16:09.970352,4330,-0.075981,-0.238828,-8.020795,-0.026536,-0.066681,0.982619
2011-09-30T13:16:09.980352,4340,-0.101474,-0.318554,-8.046598,-0.026271,-0.068135,0.984657
2011-09-30T13:16:09.990352,4350,-0.126968,-0.398280,-8.072402,-0.026006,-0.069590,0.986696
2011-09-30T13:16:10.000352,4360,-0.151885,-0.477311,-8.098866,-0.025742,-0.071022,0.988726
2011-09-30T13:16:10.010352,4370,-0.119792,-0.487595,-8.190655,-0.025583,-0.070344,0.989914
2011-09-30T13:16:10.020352,4380,-0.087699,-0.497879,-8.282444,-0.025425,-0.069666,0.991102
2011-09-30T13:16:10.030352,4390,-0.055605,-0.508163,-8.374234,-0.025267,-0.068987,0.992290
2011-09-30T13:16:10.040352,4400,-0.023512,-0.518447,-8.466023,-0.025109,-0.068309,0.993478
2011-09-30T13:16:10.050352,4410,0.008581,-0.528731,-8.557812,-0.024951,-0.067630,0.994666
2011-09-30T13:16:10.060352,4420,0.040675,-0.539015,-8.649601,-0.024792,-0.066952,0.995854
2011-09-30T13:16:10.070352,4430,0.072768,-0.549299,-8.741390,-0.024634,-0.066274,0.997042
2011-09-30T13:16:10.080352,4440,0.104861,-0.559583,-8.833179,-0.024476,-0.065595,0.998230
2011-09-30T13:16:10.090352,4450,0.136954,-0.569867,-8.924968,-0.024318,-0.064917,0.999419
2011-09-30T13:16:10.100352,4460,0.168068,-0.580357,-9.017824,-0.024160,-0.064273,1.000598
2011-09-30T13:16:10.110352,4470,0.098352,-0.612069,-9.220518,-0.024060,-0.067222,1.000840
2011-09-30T13:16:10.120352,4480,0.028636,-0.643782,-9.423212,-0.023960,-0.070171,1.001082
2011-09-30T13:16:10.130352,4490,-0.041080,-0.675495,-9.625906,-0.023859,-0.073120,1.001324
2011-09-30T13:16:10.140352,4500,-0.110796,-0.707207,-9.828600,-0.023759,-0.076069,1.001566
2011-09-30T13:16:10.150352,4510,-0.180512,-0.738920,-10.031294,-0.023659,-0.079018,1.001808
2011-09-30T13:16:10.160352,4520,-0.250228,-0.770633,-10.233988,-0.023558,-0.081967,1.002050
2011-09-30T13:16:10.170352,4530,-0.319944,-0.802345,-10.436682,-0.023458,-0.084916,1.002292
2011-09-30T13:16:10.180352,4540,-0.389661,-0.834058,-10.639376,-0.023358,-0.087865,1.002534
2011-09-30T13:16:10.190352,4550,-0.459377,-0.865771,-10.842070,-0.023257,-0.090814,1.002776
2011-09-30T13:16:10.200352,4560,-0.529093,-0.897483,-11.044764,-0.023157,-0.093763,1.003018
2011-09-30T13:16:10.210352,4570,-0.599012,-0.928437,-11.248210,-0.023057,-0.096702,1.003273
2011-09-30T13:16:10.220352,4580,-0.683995,-0.903110,-11.507407,-0.023009,-0.098893,1.004425
2011-09-30T13:16:10.230352,4590,-0.768978,-0.877783,-11.766604,-0.022961,-0.101085,1.005578
2011-09-30T13:16:10.240352,4600,-0.853960,-0.852455,-12.025801,-0.022913,-0.103277,1.006730
2011-09-30T13:16:10.250352,4610,-0.938943,-0.827128,-12.284998,-0.022865,-0.105468,1.007883
2011-09-30T13:16:10.260352,4620,-1.023926,-0.801801,-12.544195,-0.022817,-0.107660,1.009035
2011-09-30T13:16:10.270352,4630,-1.108909,-0.776474,-12.803392,-0.022769,-0.109852,1.010188
2011-09-30T13:16:10.280352,4640,-1.193891,-0.751147,-13.062589,-0.022721,-0.112043,1.011341
2011-09-30T13:16:10.290352,4650,-1.278874,-0.725820,-13.321786,-0.022673,-0.114235,1.012493
2011-09-30T13:16:10.300352,4660,-1.363857,-0.700493,-13.580983,-0.022625,-0.116426,1.013646
2011-09-30T13:16:10.310352,4670,-1.447746,-0.674901,-13.840114,-0.022578,-0.118666,1.014762
2011-09-30T13:16:10.320352,4680,-1.443116,-0.627879,-14.093891,-0.022585,-0.124759,1.012970
2011-09-30T13:16:10.330352,4690,-1.438485,-0.580857,-14.347668,-0.022593,-0.130852,1.011178
2011-09-30T13:16:10.340352,4700,-1.433855,-0.533835,-14.601445,-0.022600,-0.136945,1.009386
2011-09-30T13:16:10.350352,4710,-1.429225,-0.486813,-14.855222,-0.022608,-0.143038,1.007594
2011-09-30T13:16:10.360352,4720,-1.424595,-0.439791,-15.108999,-0.022616,-0.149131,1.005802
2011-09-30T13:16:10.370352,4730,-1.419964,-0.392770,-15.362776,-0.022623,-0.155224,1.004009
2011-09-30T13:16:10.380352,4740,-1.415334,-0.345748,-15.616553,-0.022631,-0.161318,1.002217
2011-09-30T13:16:10.390352,4750,-1.410704,-0.298726,-15.870330,-0.022638,-0.167411,1.000425
2011-09-30T13:16:10.400352,4760,-1.406074,-0.251704,-16.124108,-0.022646,-0.173504,0.998633
2011-09-30T13:16:10.410352,4770,-1.401443,-0.204682,-16.377885,-0.022654,-0.179597,0.996841
2011-09-30T13:16:10.420352,4780,-1.341382,-0.212219,-16.535358,-0.023309,-0.184473,0.999414
2011-09-30T13:16:10.430352,4790,-1.280665,-0.220401,-16.691692,-0.023972,-0.189335,1.002039
2011-09-30T13:16:10.440352,4800,-1.219947,-0.228584,-16.848026,-0.024635,-0.194197,1.004664
2011-09-30T13:16:10.450352,4810,-1.159230,-0.236766,-17.004359,-0.025298,-0.199059,1.007289
2011-09-30T13:16:10.460352,4820,-1.098512,-0.244948,-17.160693,-0.025962,-0.203921,1.009914
2011-09-30T13:16:10.470352,4830,-1.037795,-0.253130,-17.317027,-0.026625,-0.208783,1.012539
2011-09-30T13:16:10.480352,4840,-0.977077,-0.261313,-17.473361,-0.027288,-0.213644,1.015164
2011-09-30T13:16:10.490352,4850,-0.916360,-0.269495,-17.629695,-0.027951,-0.218506,1.017789
2011-09-30T13:16:10.500352,4860,-0.855643,-0.277677,-17.786028,-0.028614,-0.223368,1.020413
2011-09-30T13:16:10.510352,4870,-0.794925,-0.285859,-17.942362,-0.029277,-0.228230,1.023038
2011-09-30T13:16:10.520352,4880,-0.734237,-0.293985,-18.097546,-0.029940,-0.233040,1.025601
2011-09-30T13:16:10.530352,4890,-0.675661,-0.297970,-18.168721,-0.030599,-0.234072,1.023586
2011-09-30T13:16:10.540352,4900,-0.617085,-0.301955,-18.239896,-0.031257,-0.235104,1.021572
2011-09-30T13:16:10.550352,4910,-0.558509,-0.305941,-18.311071,-0.031915,-0.236136,1.019558
2011-09-30T13:16:10.560352,4920,-0.499933,-0.309926,-18.382246,-0.032573,-0.237168,1.017544
2011-09-30T13:16:10.570352,4930,-0.441357,-0.313911,-18.453420,-0.033232,-0.238199,1.015529
2011-09-30T13:16:10.580352,4940,-0.382781,-0.317896,-18.524595,-0.033890,-0.239231,1.013515
2011-09-30T13:16:10.590352,4950,-0.324205,-0.321881,-18.595770,-0.034548,-0.240263,1.011501
2011-09-30T13:16:10.600352,4960,-0.265628,-0.325866,-18.666945,-0.035206,-0.241295,1.009487
2011-09-30T13:16:10.610352,4970,-0.207052,-0.329851,-18.738120,-0.035865,-0.242327,1.007472
2011-09-30T13:16:10.620352,4980,-0.148594,-0.334096,-18.808678,-0.036524,-0.243358,1.005461
2011-09-30T13:16:10.630352,4990,-0.105797,-0.373092,-18.796818,-0.037331,-0.244328,1.003811
2011-09-30T13:16:10.640352,5000,-0.063000,-0.412088,-18.784959,-0.038139,-0.245298,1.002162
2011-09-30T13:16:10.650352,5010,-0.020203,-0.451084,-18.773099,-0.038946,-0.246269,1.000512
2011-09-30T13:16:10.660352,5020,0.022594,-0.490080,-18.761239,-0.039753,-0.247239,0.998862
2011-09-30T13:16:10.670352,5030,0.065390,-0.529076,-18.749379,-0.040561,-0.248209,0.997213
2011-09-30T13:16:10.680352,5040,0.108187,-0.568072,-18.737519,-0.041368,-0.249179,0.995563
2011-09-30T13:16:10.690352,5050,0.150984,-0.607068,-18.725659,-0.042175,-0.250149,0.993913
2011-09-30T13:16:10.700352,5060,0.193781,-0.646064,-18.713799,-0.042983,-0.251119,0.992264
2011-09-30T13:16:10.710352,5070,0.236578,-0.685060,-18.701939,-0.043790,-0.252090,0.990614
2011-09-30T13:16:10.720352,5080,0.279374,-0.724056,-18.690080,-0.044597,-0.253060,0.988965
2011-09-30T13:16:10.730352,5090,0.321197,-0.763107,-18.677840,-0.045389,-0.253983,0.987359
2011-09-30T13:16:10.740352,5100,0.281524,-0.806764,-18.633858,-0.044915,-0.250979,0.989468
2011-09-30T13:16:10.750352,5110,0.241852,-0.850421,-18.589876,-0.044441,-0.247976,0.991577
2011-09-30T13:16:10.760352,5120,0.202180,-0.894079,-18.545893,-0.043966,-0.244972,0.993685
2011-09-30T13:16:10.770352,5130,0.162507,-0.937736,-18.501911,-0.043492,-0.241968,0.995794
2011-09-30T13:16:10.780352,5140,0.122835,-0.981393,-18.457929,-0.043018,-0.238965,0.997903
2011-09-30T13:16:10.790352,5150,0.083163,-1.025051,-18.413947,-0.042543,-0.235961,1.000011
2011-09-30T13:16:10.800352,5160,0.043490,-1.068708,-18.369964,-0.042069,-0.232957,1.002120
2011-09-30T13:16:10.810352,5170,0.003818,-1.112365,-18.325982,-0.041594,-0.229953,1.004229
2011-09-30T13:16:10.820352,5180,-0.035855,-1.156023,-18.282000,-0.041120,-0.226950,1.006337
2011-09-30T13:16:10.830352,5190,-0.075498,-1.199565,-18.238352,-0.040657,-0.224012,1.008438
2011-09-30T13:16:10.840352,5200,-0.112781,-1.233781,-18.221800,-0.041112,-0.226368,1.009910
2011-09-30T13:16:10.850352,5210,-0.150065,-1.267997,-18.205247,-0.041567,-0.228724,1.011382
2011-09-30T13:16:10.860352,5220,-0.187348,-1.302213,-18.188694,-0.042022,-0.231080,1.012854
2011-09-30T13:16:10.870352,5230,-0.224632,-1.336428,-18.172141,-0.042477,-0.233437,1.014326
2011-09-30T13:16:10.880352,5240,-0.261915,-1.370644,-18.155589,-0.042931,-0.235793,1.015798
2011-09-30T13:16:10.890352,5250,-0.299199,-1.404860,-18.139036,-0.043386,-0.238149,1.017270
2011-09-30T13:16:10.900352,5260,-0.336482,-1.439076,-18.122483,-0.043841,-0.240505,1.018742
2011-09-30T13:16:10.910352,5270,-0.373766,-1.473292,-18.105931,-0.044296,-0.242862,1.020214
2011-09-30T13:16:10.920352,5280,-0.411049,-1.507508,-18.089378,-0.044751,-0.245218,1.021686
2011-09-30T13:16:10.930352,5290,-0.448015,-1.541774,-18.072830,-0.045206,-0.247575,1.023155
2011-09-30T13:16:10.940352,5300,-0.239659,-1.614952,-18.059918,-0.045831,-0.250523,1.022584
2011-09-30T13:16:10.950352,5310,-0.031304,-1.688129,-18.047006,-0.046456,-0.253471,1.022013
2011-09-30T13:16:10.960352,5320,0.177052,-1.761307,-18.034094,-0.047082,-0.256419,1.021442
2011-09-30T13:16:10.970352,5330,0.385407,-1.834484,-18.021182,-0.047707,-0.259368,1.020871
2011-09-30T13:16:10.980352,5340,0.593763,-1.907662,-18.008270,-0.048332,-0.262316,1.020299
2011-09-30T13:16:10.990352,5350,0.802118,-1.980839,-17.995358,-0.048957,-0.265264,1.019728
2011-09-30T13:16:11.000352,5360,1.010473,-2.054017,-17.982446,-0.049582,-0.268212,1.019157
2011-09-30T13:16:11.010352,5370,1.218829,-2.127194,-17.969534,-0.050208,-0.271161,1.018586
2011-09-30T13:16:11.020352,5380,1.427184,-2.200372,-17.956622,-0.050833,-0.274109,1.018015
2011-09-30T13:16:11.030352,5390,1.635540,-2.273549,-17.943710,-0.051458,-0.277057,1.017444
2011-09-30T13:16:11.040352,5400,1.843165,-2.346230,-17.930582,-0.052077,-0.279935,1.016891
2011-09-30T13:16:11.050352,5410,1.981453,-2.371793,-17.896921,-0.052098,-0.276193,1.018018
2011-09-30T13:16:11.060352,5420,2.119741,-2.397357,-17.863260,-0.052118,-0.272450,1.019145
2011-09-30T13:16:11.070352,5430,2.258029,-2.422920,-17.829599,-0.052139,-0.268707,1.020273
2011-09-30T13:16:11.080352,5440,2.396317,-2.448483,-17.795938,-0.052159,-0.264964,1.021400
2011-09-30T13:16:11.090352,5450,2.534606,-2.474046,-17.762278,-0.052180,-0.261221,1.022527
2011-09-30T13:16:11.100352,5460,2.672894,-2.499610,-17.728617,-0.052200,-0.257478,1.023655
2011-09-30T13:16:11.110352,5470,2.811182,-2.525173,-17.694956,-0.052221,-0.253735,1.024782
2011-09-30T13:16:11.120352,5480,2.949470,-2.550736,-17.661295,-0.052241,-0.249992,1.025909
2011-09-30T13:16:11.130352,5490,3.087758,-2.576299,-17.627635,-0.052262,-0.246249,1.027037
2011-09-30T13:16:11.140352,5500,3.224539,-2.602286,-17.593615,-0.052264,-0.242587,1.028184
2011-09-30T13:16:11.150352,5510,3.275126,-2.652470,-17.539103,-0.051247,-0.243538,1.030463
2011-09-30T13:16:11.160352,5520,3.325712,-2.702654,-17.484591,-0.050229,-0.244489,1.032742
2011-09-30T13:16:11.170352,5530,3.376299,-2.752838,-17.430078,-0.049211,-0.245440,1.035021
2011-09-30T13:16:11.180352,5540,3.426886,-2.803022,-17.375566,-0.048193,-0.246391,1.037300
2011-09-30T13:16:11.190352,5550,3.477472,-2.853207,-17.321053,-0.047176,-0.247342,1.039579
2011-09-30T13:16:11.200352,5560,3.528059,-2.903391,-17.266541,-0.046158,-0.248294,1.041858
2011-09-30T13:16:11.210352,5570,3.578645,-2.953575,-17.212028,-0.045140,-0.249245,1.044137
2011-09-30T13:16:11.220352,5580,3.629232,-3.003759,-17.157516,-0.044122,-0.250196,1.046416
2011-09-30T13:16:11.230352,5590,3.679819,-3.053943,-17.103004,-0.043104,-0.251147,1.048695
2011-09-30T13:16:11.240352,5600,3.730405,-3.104127,-17.048491,-0.042087,-0.252098,1.050974
2011-09-30T13:16:11.250352,5610,3.780570,-3.153582,-16.993889,-0.041077,-0.253020,1.053243
2011-09-30T13:16:11.260352,5620,3.763101,-3.086158,-16.924893,-0.041414,-0.249185,1.053903
2011-09-30T13:16:11.270352,5630,3.745632,-3.018734,-16.855897,-0.041751,-0.245350,1.054564
2011-09-30T13:16:11.280352,5640,3.728162,-2.951310,-16.786902,-0.042088,-0.241515,1.055224
2011-09-30T13:16:11.290352,5650,3.710693,-2.883886,-16.717906,-0.042425,-0.237680,1.055885
2011-09-30T13:16:11.300352,5660,3.693224,-2.816462,-16.648910,-0.042762,-0.233846,1.056545
2011-09-30T13:16:11.310352,5670,3.675755,-2.749038,-16.579915,-0.043099,-0.230011,1.057206
2011-09-30T13:16:11.320352,5680,3.658286,-2.681614,-16.510919,-0.043436,-0.226176,1.057867
2011-09-30T13:16:11.330352,5690,3.640817,-2.614190,-16.441923,-0.043773,-0.222341,1.058527
2011-09-30T13:16:11.340352,5700,3.623347,-2.546766,-16.372927,-0.044110,-0.218506,1.059188
2011-09-30T13:16:11.350352,5710,3.605878,-2.479342,-16.303932,-0.044447,-0.214672,1.059848
2011-09-30T13:16:11.360352,5720,3.729461,-2.477980,-16.256908,-0.045809,-0.214395,1.056564
2011-09-30T13:16:11.370352,5730,3.855059,-2.477563,-16.210198,-0.047186,-0.214169,1.053222
2011-09-30T13:16:11.380352,5740,3.980658,-2.477145,-16.163488,-0.048562,-0.213943,1.049881
2011-09-30T13:16:11.390352,5750,4.106256,-2.476728,-16.116778,-0.049939,-0.213717,1.046540
2011-09-30T13:16:11.400352,5760,4.231854,-2.476310,-16.070068,-0.051315,-0.213491,1.043199
2011-09-30T13:16:11.410352,5770,4.357452,-2.475892,-16.023358,-0.052691,-0.213265,1.039858
2011-09-30T13:16:11.420352,5780,4.483051,-2.475475,-15.976648,-0.054068,-0.213039,1.036517
2011-09-30T13:16:11.430352,5790,4.608649,-2.475057,-15.929938,-0.055444,-0.212813,1.033176
2011-09-30T13:16:11.440352,5800,4.734247,-2.474640,-15.883228,-0.056821,-0.212587,1.029835
2011-09-30T13:16:11.450352,5810,4.857261,-2.476183,-15.836208,-0.058199,-0.212316,1.026515
2011-09-30T13:16:11.460352,5820,4.736633,-2.662562,-15.760006,-0.059715,-0.207801,1.025200
2011-09-30T13:16:11.470352,5830,4.616006,-2.848941,-15.683803,-0.061232,-0.203286,1.023886
2011-09-30T13:16:11.480352,5840,4.495379,-3.035320,-15.607600,-0.062748,-0.198771,1.022571
2011-09-30T13:16:11.490352,5850,4.374752,-3.221698,-15.531397,-0.064265,-0.194256,1.021257
2011-09-30T13:16:11.500352,5860,4.254125,-3.408077,-15.455195,-0.065781,-0.189741,1.019942
2011-09-30T13:16:11.510352,5870,4.133498,-3.594456,-15.378992,-0.067298,-0.185226,1.018628
2011-09-30T13:16:11.520352,5880,4.012871,-3.780835,-15.302789,-0.068814,-0.180711,1.017313
2011-09-30T13:16:11.530352,5890,3.892244,-3.967214,-15.226587,-0.070331,-0.176196,1.015999
2011-09-30T13:16:11.540352,5900,3.771617,-4.153593,-15.150384,-0.071847,-0.171680,1.014684
2011-09-30T13:16:11.550352,5910,3.650990,-4.339972,-15.074181,-0.073364,-0.167165,1.013370
2011-09-30T13:16:11.560352,5920,3.530448,-4.526697,-14.998088,-0.074875,-0.162655,1.012059
2011-09-30T13:16:11.570352,5930,3.442848,-4.846963,-14.964295,-0.074357,-0.160026,1.012295
2011-09-30T13:16:11.580352,5940,3.355247,-5.167228,-14.930502,-0.073840,-0.157398,1.012530
2011-09-30T13:16:11.590352,5950,3.267646,-5.487494,-14.896708,-0.073322,-0.154769,1.012766
2011-09-30T13:16:11.600352,5960,3.180046,-5.807759,-14.862915,-0.072804,-0.152140,1.013002
2011-09-30T13:16:11.610352,5970,3.092445,-6.128025,-14.829122,-0.072286,-0.149511,1.013237
2011-09-30T13:16:11.620352,5980,3.004845,-6.448290,-14.795328,-0.071769,-0.146882,1.013473
2011-09-30T13:16:11.630352,5990,2.917244,-6.768556,-14.761535,-0.071251,-0.144254,1.013709
2011-09-30T13:16:11.640352,6000,2.829643,-7.088822,-14.727742,-0.070733,-0.141625,1.013944
2011-09-30T13:16:11.650352,6010,2.742043,-7.409087,-14.693948,-0.070216,-0.138996,1.014180
2011-09-30T13:16:11.660352,6020,2.653351,-7.727957,-14.660276,-0.069678,-0.136389,1.014446
2011-09-30T13:16:11.670352,6030,2.472612,-7.929124,-14.636783,-0.067437,-0.135594,1.017290
2011-09-30T13:16:11.680352,6040,2.291873,-8.130291,-14.613290,-0.065195,-0.134799,1.020135
2011-09-30T13:16:11.690352,6050,2.111134,-8.331458,-14.589797,-0.062954,-0.134003,1.022979
2011-09-30T13:16:11.700352,6060,1.930395,-8.532626,-14.566304,-0.060713,-0.133208,1.025824
2011-09-30T13:16:11.710352,6070,1.749657,-8.733793,-14.542811,-0.058472,-0.132413,1.028668
2011-09-30T13:16:11.720352,6080,1.568918,-8.934960,-14.519318,-0.056231,-0.131618,1.031513
2011-09-30T13:16:11.730352,6090,1.388179,-9.136127,-14.495825,-0.053990,-0.130823,1.034357
2011-09-30T13:16:11.740352,6100,1.207440,-9.337294,-14.472332,-0.051749,-0.130028,1.037202
2011-09-30T13:16:11.750352,6110,1.026701,-9.538461,-14.448839,-0.049508,-0.129233,1.040046
2011-09-30T13:16:11.760352,6120,0.847085,-9.736468,-14.425933,-0.047274,-0.128462,1.042991
2011-09-30T13:16:11.770352,6130,0.758284,-9.678715,-14.450513,-0.045643,-0.129662,1.053999
2011-09-30T13:16:11.780352,6140,0.669483,-9.620961,-14.475094,-0.044012,-0.130861,1.065007
2011-09-30T13:16:11.790352,6150,0.580682,-9.563208,-14.499674,-0.042381,-0.132061,1.076016
2011-09-30T13:16:11.800352,6160,0.491881,-9.505455,-14.524255,-0.040750,-0.133260,1.087024
2011-09-30T13:16:11.810352,6170,0.403081,-9.447702,-14.548835,-0.039119,-0.134460,1.098033
2011-09-30T13:16:11.820352,6180,0.314280,-9.389949,-14.573416,-0.037488,-0.135659,1.109041
2011-09-30T13:16:11.830352,6190,0.225479,-9.332196,-14.597996,-0.035857,-0.136859,1.120050
2011-09-30T13:16:11.840352,6200,0.136678,-9.274443,-14.622577,-0.034226,-0.138058,1.131058
2011-09-30T13:16:11.850352,6210,0.047877,-9.216690,-14.647157,-0.032594,-0.139258,1.142067
2011-09-30T13:16:11.860352,6220,-0.040924,-9.158937,-14.671738,-0.030963,-0.140458,1.153075
2011-09-30T13:16:11.870352,6230,-0.129702,-9.101162,-14.696315,-0.029332,-0.141657,1.164083
2011-09-30T13:16:11.880352,6240,0.011414,-8.818601,-14.694404,-0.028298,-0.144536,1.166721
2011-09-30T13:16:11.890352,6250,0.152531,-8.536041,-14.692493,-0.027264,-0.147415,1.169359
2011-09-30T13:16:11.900352,6260,0.293647,-8.253481,-14.690582,-0.026230,-0.150295,1.171997
2011-09-30T13:16:11.910352,6270,0.434763,-7.970920,-14.688671,-0.025196,-0.153174,1.174635
2011-09-30T13:16:11.920352,6280,0.575879,-7.688360,-14.686760,-0.024162,-0.156053,1.177273
2011-09-30T13:16:11.930352,6290,0.716996,-7.405800,-14.684849,-0.023128,-0.158932,1.179911
2011-09-30T13:16:11.940352,6300,0.858112,-7.123240,-14.682938,-0.022094,-0.161811,1.182549
2011-09-30T13:16:11.950352,6310,0.999228,-6.840679,-14.681026,-0.021060,-0.164690,1.185187
2011-09-30T13:16:11.960352,6320,1.140345,-6.558119,-14.679115,-0.020025,-0.167569,1.187825
2011-09-30T13:16:11.970352,6330,1.279292,-6.274847,-14.676768,-0.019007,-0.170387,1.190316
2011-09-30T13:16:11.980352,6340,1.225123,-5.928177,-14.635552,-0.019411,-0.167799,1.179782
2011-09-30T13:16:11.990352,6350,1.170954,-5.581506,-14.594337,-0.019814,-0.165211,1.169247
2011-09-30T13:16:12.000352,6360,1.116785,-5.234836,-14.553121,-0.020218,-0.162623,1.158713
2011-09-30T13:16:12.010352,6370,1.062616,-4.888166,-14.511906,-0.020621,-0.160035,1.148178
2011-09-30T13:16:12.020352,6380,1.008448,-4.541496,-14.470691,-0.021024,-0.157447,1.137643
2011-09-30T13:16:12.030352,6390,0.954279,-4.194826,-14.429475,-0.021428,-0.154859,1.127109
2011-09-30T13:16:12.040352,6400,0.900110,-3.848156,-14.388260,-0.021831,-0.152271,1.116574
2011-09-30T13:16:12.050352,6410,0.845941,-3.501486,-14.347045,-0.022235,-0.149683,1.106040
2011-09-30T13:16:12.060352,6420,0.791772,-3.154816,-14.305829,-0.022638,-0.147095,1.095505
2011-09-30T13:16:12.070352,6430,0.737603,-2.808146,-14.264614,-0.023041,-0.144507,1.084971
2011-09-30T13:16:12.080352,6440,0.684676,-2.462221,-14.223371,-0.023447,-0.141960,1.074581
2011-09-30T13:16:12.090352,6450,0.719886,-2.169214,-14.180153,-0.024031,-0.142339,1.074494
2011-09-30T13:16:12.100352,6460,0.755096,-1.876207,-14.136934,-0.024614,-0.142719,1.074407
2011-09-30T13:16:12.110352,6470,0.790305,-1.583199,-14.093716,-0.025198,-0.143098,1.074320
2011-09-30T13:16:12.120352,6480,0.825515,-1.290192,-14.050498,-0.025781,-0.143478,1.074233
2011-09-30T13:16:12.130352,6490,0.860725,-0.997185,-14.007280,-0.026365,-0.143857,1.074146
2011-09-30T13:16:12.140352,6500,0.895934,-0.704178,-13.964062,-0.026948,-0.144236,1.074059
2011-09-30T13:16:12.150352,6510,0.931144,-0.411171,-13.920844,-0.027532,-0.144616,1.073972
2011-09-30T13:16:12.160352,6520,0.966354,-0.118163,-13.877626,-0.028115,-0.144995,1.073885
2011-09-30T13:16:12.170352,6530,1.001563,0.174844,-13.834408,-0.028699,-0.145375,1.073798
2011-09-30T13:16:12.180352,6540,1.036745,0.467180,-13.790523,-0.029287,-0.145744,1.073665
2011-09-30T13:16:12.190352,6550,1.069336,0.696848,-13.684361,-0.030306,-0.145211,1.069186
2011-09-30T13:16:12.200352,6560,1.101927,0.926516,-13.578199,-0.031326,-0.144678,1.064707
2011-09-30T13:16:12.210352,6570,1.134517,1.156185,-13.472036,-0.032345,-0.144144,1.060229
2011-09-30T13:16:12.220352,6580,1.167108,1.385853,-13.365874,-0.033365,-0.143611,1.055750
2011-09-30T13:16:12.230352,6590,1.199699,1.615521,-13.259712,-0.034384,-0.143078,1.051271
2011-09-30T13:16:12.240352,6600,1.232290,1.845189,-13.153550,-0.035404,-0.142544,1.046793
2011-09-30T13:16:12.250352,6610,1.264881,2.074858,-13.047388,-0.036423,-0.142011,1.042314
2011-09-30T13:16:12.260352,6620,1.297471,2.304526,-12.941226,-0.037443,-0.141478,1.037835
2011-09-30T13:16:12.270352,6630,1.330062,2.534194,-12.835063,-0.038462,-0.140944,1.033357
2011-09-30T13:16:12.280352,6640,1.364503,2.760424,-12.728594,-0.039500,-0.140410,1.028799
2011-09-30T13:16:12.290352,6650,1.524659,2.753009,-12.601228,-0.041794,-0.139778,1.018847
2011-09-30T13:16:12.300352,6660,1.684816,2.745594,-12.473863,-0.044088,-0.139146,1.008895
2011-09-30T13:16:12.310352,6670,1.844972,2.738178,-12.346498,-0.046382,-0.138513,0.998943
2011-09-30T13:16:12.320352,6680,2.005129,2.730763,-12.219133,-0.048676,-0.137881,0.988991
2011-09-30T13:16:12.330352,6690,2.165286,2.723348,-12.091768,-0.050969,-0.137249,0.979039
2011-09-30T13:16:12.340352,6700,2.325442,2.715932,-11.964403,-0.053263,-0.136617,0.969087
2011-09-30T13:16:12.350352,6710,2.485599,2.708517,-11.837037,-0.055557,-0.135985,0.959136
2011-09-30T13:16:12.360352,6720,2.645755,2.701102,-11.709672,-0.057851,-0.135353,0.949184
2011-09-30T13:16:12.370352,6730,2.805912,2.693686,-11.582307,-0.060145,-0.134721,0.939232
2011-09-30T13:16:12.380352,6740,2.966068,2.686271,-11.454942,-0.062439,-0.134089,0.929280
2011-09-30T13:16:12.390352,6750,3.126225,2.678856,-11.327577,-0.064732,-0.133457,0.919328
2011-09-30T13:16:12.400352,6760,2.996100,2.434509,-11.100913,-0.064348,-0.124809,0.920535
2011-09-30T13:16:12.410352,6770,2.865016,2.189379,-10.873922,-0.063954,-0.116135,0.921778
2011-09-30T13:16:12.420352,6780,2.733932,1.944249,-10.646930,-0.063560,-0.107461,0.923022
2011-09-30T13:16:12.430352,6790,2.602847,1.699119,-10.419939,-0.063167,-0.098786,0.924266
2011-09-30T13:16:12.440352,6800,2.471763,1.453989,-10.192947,-0.062773,-0.090112,0.925509
2011-09-30T13:16:12.450352,6810,2.340679,1.208859,-9.965956,-0.062379,-0.081437,0.926753
2011-09-30T13:16:12.460352,6820,2.209594,0.963729,-9.738964,-0.061986,-0.072763,0.927997
2011-09-30T13:16:12.470352,6830,2.078510,0.718599,-9.511973,-0.061592,-0.064088,0.929241
2011-09-30T13:16:12.480352,6840,1.947426,0.473469,-9.284981,-0.061198,-0.055414,0.930484
2011-09-30T13:16:12.490352,6850,1.818396,0.230537,-9.059338,-0.060821,-0.046914,0.931783
2011-09-30T13:16:12.500352,6860,1.799545,0.105445,-8.905978,-0.061298,-0.047792,0.936016
2011-09-30T13:16:12.510352,6870,1.780694,-0.019648,-8.752618,-0.061775,-0.048670,0.940250
2011-09-30T13:16:12.520352,6880,1.761844,-0.144740,-8.599258,-0.062252,-0.049548,0.944483
2011-09-30T13:16:12.530352,6890,1.742993,-0.269832,-8.445897,-0.062729,-0.050427,0.948717
2011-09-30T13:16:12.540352,6900,1.724142,-0.394924,-8.292537,-0.063206,-0.051305,0.952951
2011-09-30T13:16:12.550352,6910,1.705291,-0.520017,-8.139177,-0.063683,-0.052183,0.957184
2011-09-30T13:16:12.560352,6920,1.686440,-0.645109,-7.985817,-0.064160,-0.053061,0.961418
2011-09-30T13:16:12.570352,6930,1.667589,-0.770201,-7.832457,-0.064637,-0.053939,0.965651
2011-09-30T13:16:12.580352,6940,1.648738,-0.895294,-7.679096,-0.065114,-0.054817,0.969885
2011-09-30T13:16:12.590352,6950,1.628729,-1.019203,-7.526552,-0.065561,-0.055601,0.974056
2011-09-30T13:16:12.600352,6960,1.530703,-1.063387,-7.428991,-0.063996,-0.050014,0.974024
2011-09-30T13:16:12.610352,6970,1.432678,-1.107571,-7.331430,-0.062430,-0.044427,0.973992
2011-09-30T13:16:12.620352,6980,1.334652,-1.151756,-7.233868,-0.060864,-0.038840,0.973960
2011-09-30T13:16:12.630352,6990,1.236627,-1.195940,-7.136307,-0.059298,-0.033254,0.973927
2011-09-30T13:16:12.640352,7000,1.138601,-1.240125,-7.038746,-0.057733,-0.027667,0.973895
2011-09-30T13:16:12.650352,7010,1.040576,-1.284309,-6.941184,-0.056167,-0.022080,0.973863
2011-09-30T13:16:12.660352,7020,0.942550,-1.328493,-6.843623,-0.054601,-0.016493,0.973831
2011-09-30T13:16:12.670352,7030,0.844525,-1.372678,-6.746062,-0.053036,-0.010907,0.973799
2011-09-30T13:16:12.680352,7040,0.746499,-1.416862,-6.648500,-0.051470,-0.005320,0.973767
2011-09-30T13:16:12.690352,7050,0.648474,-1.461047,-6.550939,-0.049904,0.000267,0.973734
2011-09-30T13:16:12.700352,7060,0.545711,-1.504480,-6.455360,-0.048306,0.005827,0.973862
2011-09-30T13:16:12.710352,7070,0.180087,-1.506231,-6.469815,-0.044908,0.009923,0.982841
2011-09-30T13:16:12.720352,7080,-0.185537,-1.507982,-6.484271,-0.041509,0.014020,0.991821
2011-09-30T13:16:12.730352,7090,-0.551161,-1.509733,-6.498726,-0.038111,0.018116,1.000800
2011-09-30T13:16:12.740352,7100,-0.916785,-1.511484,-6.513181,-0.034712,0.022212,1.009779
2011-09-30T13:16:12.750352,7110,-1.282410,-1.513235,-6.527637,-0.031313,0.026309,1.018759
2011-09-30T13:16:12.760352,7120,-1.648034,-1.514986,-6.542092,-0.027915,0.030405,1.027738
2011-09-30T13:16:12.770352,7130,-2.013658,-1.516737,-6.556547,-0.024516,0.034501,1.036717
2011-09-30T13:16:12.780352,7140,-2.379282,-1.518488,-6.571003,-0.021118,0.038597,1.045697
2011-09-30T13:16:12.790352,7150,-2.744906,-1.520239,-6.585458,-0.017719,0.042694,1.054676
2011-09-30T13:16:12.800352,7160,-3.101815,-1.519819,-6.600434,-0.014382,0.046500,1.063341
2011-09-30T13:16:12.810352,7170,-2.926529,-1.386878,-6.647236,-0.014814,0.032579,1.052778
2011-09-30T13:16:12.820352,7180,-2.751243,-1.253936,-6.694038,-0.015246,0.018659,1.042216
2011-09-30T13:16:12.830352,7190,-2.575957,-1.120994,-6.740839,-0.015678,0.004739,1.031654
2011-09-30T13:16:12.840352,7200,-2.400672,-0.988053,-6.787641,-0.016110,-0.009181,1.021092
2011-09-30T13:16:12.850352,7210,-2.225386,-0.855111,-6.834442,-0.016542,-0.023101,1.010529
2011-09-30T13:16:12.860352,7220,-2.050100,-0.722169,-6.881244,-0.016974,-0.037021,0.999967
2011-09-30T13:16:12.870352,7230,-1.874815,-0.589227,-6.928046,-0.017406,-0.050941,0.989405
2011-09-30T13:16:12.880352,7240,-1.699529,-0.456286,-6.974847,-0.017838,-0.064862,0.978843
2011-09-30T13:16:12.890352,7250,-1.524243,-0.323344,-7.021649,-0.018270,-0.078782,0.968281
2011-09-30T13:16:12.900352,7260,-1.348957,-0.190402,-7.068450,-0.018702,-0.092702,0.957718
2011-09-30T13:16:12.910352,7270,-1.173478,-0.058705,-7.114008,-0.019076,-0.106502,0.947263
2011-09-30T13:16:12.920352,7280,-0.969781,-0.108428,-6.978150,-0.011063,-0.102766,0.952441
2011-09-30T13:16:12.930352,7290,-0.766084,-0.158152,-6.842292,-0.003050,-0.099030,0.957619
2011-09-30T13:16:12.940352,7300,-0.562387,-0.207875,-6.706435,0.004963,-0.095294,0.962797
2011-09-30T13:16:12.950352,7310,-0.358690,-0.257599,-6.570577,0.012976,-0.091558,0.967975
2011-09-30T13:16:12.960352,7320,-0.154993,-0.307323,-6.434720,0.020989,-0.087822,0.973152
2011-09-30T13:16:12.970352,7330,0.048703,-0.357046,-6.298862,0.029002,-0.084087,0.978330
2011-09-30T13:16:12.980352,7340,0.252400,-0.406770,-6.163004,0.037014,-0.080351,0.983508
2011-09-30T13:16:12.990352,7350,0.456097,-0.456493,-6.027147,0.045027,-0.076615,0.988686
2011-09-30T13:16:13.000352,7360,0.659794,-0.506217,-5.891289,0.053040,-0.072879,0.993864
2011-09-30T13:16:13.010352,7370,0.861085,-0.555669,-5.756284,0.060962,-0.069024,0.998977
2011-09-30T13:16:13.020352,7380,0.931962,-0.590421,-5.667473,0.063924,-0.058732,1.000618
2011-09-30T13:16:13.030352,7390,1.002839,-0.625173,-5.578662,0.066887,-0.048440,1.002258
2011-09-30T13:16:13.040352,7400,1.073717,-0.659924,-5.489850,0.069849,-0.038147,1.003898
2011-09-30T13:16:13.050352,7410,1.144594,-0.694676,-5.401039,0.072811,-0.027855,1.005539
2011-09-30T13:16:13.060352,7420,1.215471,-0.729428,-5.312228,0.075774,-0.017563,1.007179
2011-09-30T13:16:13.070352,7430,1.286348,-0.764180,-5.223417,0.078736,-0.007270,1.008820
2011-09-30T13:16:13.080352,7440,1.357225,-0.798932,-5.134606,0.081699,0.003022,1.010460
2011-09-30T13:16:13.090352,7450,1.428102,-0.833684,-5.045795,0.084661,0.013314,1.012100
2011-09-30T13:16:13.100352,7460,1.498979,-0.868435,-4.956984,0.087623,0.023607,1.013741
2011-09-30T13:16:13.110352,7470,1.568136,-0.904422,-4.866454,0.090590,0.033717,1.015283
2011-09-30T13:16:13.120352,7480,1.511584,-1.030623,-4.650393,0.093877,0.030520,1.009707
2011-09-30T13:16:13.130352,7490,1.455032,-1.156823,-4.434332,0.097165,0.027322,1.004131
2011-09-30T13:16:13.140352,7500,1.398480,-1.283024,-4.218271,0.100452,0.024125,0.998554
2011-09-30T13:16:13.150352,7510,1.341927,-1.409225,-4.002210,0.103739,0.020928,0.992978
2011-09-30T13:16:13.160352,7520,1.285375,-1.535425,-3.786149,0.107026,0.017731,0.987401
2011-09-30T13:16:13.170352,7530,1.228823,-1.661626,-3.570087,0.110313,0.014534,0.981825
2011-09-30T13:16:13.180352,7540,1.172271,-1.787827,-3.354026,0.113601,0.011336,0.976249
2011-09-30T13:16:13.190352,7550,1.115719,-1.914027,-3.137965,0.116888,0.008139,0.970672
2011-09-30T13:16:13.200352,7560,1.059167,-2.040228,-2.921904,0.120175,0.004942,0.965096
2011-09-30T13:16:13.210352,7570,1.002614,-2.166429,-2.705843,0.123462,0.001745,0.959519
2011-09-30T13:16:13.220352,7580,0.945620,-2.289265,-2.489576,0.126736,-0.001307,0.954170
2011-09-30T13:16:13.230352,7590,0.860721,-2.199790,-2.260341,0.129171,0.004832,0.963174
2011-09-30T13:16:13.240352,7600,0.775823,-2.110314,-2.031105,0.131606,0.010972,0.972178
2011-09-30T13:16:13.250352,7610,0.690924,-2.020839,-1.801870,0.134041,0.017111,0.981183
2011-09-30T13:16:13.260352,7620,0.606025,-1.931364,-1.572634,0.136476,0.023250,0.990187
2011-09-30T13:16:13.270352,7630,0.521127,-1.841889,-1.343398,0.138910,0.029390,0.999191
2011-09-30T13:16:13.280352,7640,0.436228,-1.752414,-1.114163,0.141345,0.035529,1.008195
2011-09-30T13:16:13.290352,7650,0.351329,-1.662939,-0.884927,0.143780,0.041668,1.017199
2011-09-30T13:16:13.300352,7660,0.266431,-1.573463,-0.655692,0.146215,0.047808,1.026203
2011-09-30T13:16:13.310352,7670,0.181532,-1.483988,-0.426456,0.148650,0.053947,1.035207
2011-09-30T13:16:13.320352,7680,0.099908,-1.393513,-0.197941,0.151053,0.060035,1.044024
2011-09-30T13:16:13.330352,7690,0.191047,-1.250266,-0.007416,0.151776,0.063381,1.042982
2011-09-30T13:16:13.340352,7700,0.282186,-1.107019,0.183108,0.152500,0.066727,1.041940
2011-09-30T13:16:13.350352,7710,0.373324,-0.963773,0.373633,0.153223,0.070074,1.040898
2011-09-30T13:16:13.360352,7720,0.464463,-0.820526,0.564158,0.153946,0.073420,1.039856
2011-09-30T13:16:13.370352,7730,0.555602,-0.677279,0.754682,0.154669,0.076767,1.038814
2011-09-30T13:16:13.380352,7740,0.646740,-0.534032,0.945207,0.155393,0.080113,1.037772
2011-09-30T13:16:13.390352,7750,0.737879,-0.390786,1.135731,0.156116,0.083459,1.036730
2011-09-30T13:16:13.400352,7760,0.829018,-0.247539,1.326256,0.156839,0.086806,1.035688
2011-09-30T13:16:13.410352,7770,0.920156,-0.104292,1.516781,0.157562,0.090152,1.034646
2011-09-30T13:16:13.420352,7780,1.011001,0.038830,1.707279,0.158284,0.093500,1.033599
2011-09-30T13:16:13.430352,7790,0.856521,0.077802,1.875730,0.158117,0.097964,1.028231
2011-09-30T13:16:13.440352,7800,0.702041,0.116773,2.044180,0.157949,0.102428,1.022864
2011-09-30T13:16:13.450352,7810,0.547560,0.155745,2.212631,0.157781,0.106892,1.017496
2011-09-30T13:16:13.460352,7820,0.393080,0.194717,2.381081,0.157613,0.111356,1.012129
2011-09-30T13:16:13.470352,7830,0.238599,0.233689,2.549532,0.157445,0.115820,1.006761
2011-09-30T13:16:13.480352,7840,0.084119,0.272661,2.717983,0.157277,0.120284,1.001394
2011-09-30T13:16:13.490352,7850,-0.070361,0.311633,2.886433,0.157109,0.124748,0.996026
2011-09-30T13:16:13.500352,7860,-0.224842,0.350604,3.054884,0.156941,0.129212,0.990659
2011-09-30T13:16:13.510352,7870,-0.379322,0.389576,3.223334,0.156773,0.133676,0.985291
2011-09-30T13:16:13.520352,7880,-0.533803,0.428548,3.391785,0.156605,0.138140,0.979924
2011-09-30T13:16:13.530352,7890,-0.685987,0.466488,3.558803,0.156446,0.142521,0.974681
2011-09-30T13:16:13.540352,7900,-0.708580,0.446175,3.644943,0.156790,0.142203,0.976468
2011-09-30T13:16:13.550352,7910,-0.731172,0.425863,3.731082,0.157134,0.141885,0.978256
2011-09-30T13:16:13.560352,7920,-0.753765,0.405550,3.817222,0.157478,0.141567,0.980043
2011-09-30T13:16:13.570352,7930,-0.776357,0.385237,3.903362,0.157821,0.141249,0.981830
2011-09-30T13:16:13.580352,7940,-0.798950,0.364925,3.989501,0.158165,0.140930,0.983617
2011-09-30T13:16:13.590352,7950,-0.821543,0.344612,4.075641,0.158509,0.140612,0.985405
2011-09-30T13:16:13.600352,7960,-0.844135,0.324300,4.161781,0.158853,0.140294,0.987192
2011-09-30T13:16:13.610352,7970,-0.866728,0.303987,4.247920,0.159196,0.139976,0.988979
2011-09-30T13:16:13.620352,7980,-0.889320,0.283674,4.334060,0.159540,0.139658,0.990766
2011-09-30T13:16:13.630352,7990,-0.910833,0.263093,4.418912,0.159887,0.139333,0.992532
2011-09-30T13:16:13.640352,8000,-0.880784,0.229693,4.442283,0.160409,0.138694,0.993269
2011-09-30T13:16:13.650352,8010,-0.850735,0.196293,4.465653,0.160930,0.138055,0.994006
2011-09-30T13:16:13.660352,8020,-0.820686,0.162892,4.489024,0.161451,0.137415,0.994743
2011-09-30T13:16:13.670352,8030,-0.790637,0.129492,4.512394,0.161973,0.136776,0.995480
2011-09-30T13:16:13.680352,8040,-0.760588,0.096092,4.535765,0.162494,0.136137,0.996217
2011-09-30T13:16:13.690352,8050,-0.730539,0.062691,4.559135,0.163015,0.135497,0.996954
2011-09-30T13:16:13.700352,8060,-0.700489,0.029291,4.582505,0.163537,0.134858,0.997691
2011-09-30T13:16:13.710352,8070,-0.670440,-0.004110,4.605876,0.164058,0.134219,0.998428
2011-09-30T13:16:13.720352,8080,-0.640391,-0.037510,4.629246,0.164579,0.133579,0.999165
2011-09-30T13:16:13.730352,8090,-0.612049,-0.069907,4.651427,0.165102,0.132985,0.999875
2011-09-30T13:16:13.740352,8100,-0.681174,-0.045039,4.605649,0.165689,0.134962,0.999087
2011-09-30T13:16:13.750352,8110,-0.750300,-0.020172,4.559871,0.166277,0.136940,0.998298
2011-09-30T13:16:13.760352,8120,-0.819425,0.004696,4.514093,0.166864,0.138917,0.997509
2011-09-30T13:16:13.770352,8130,-0.888550,0.029564,4.468315,0.167452,0.140894,0.996720
2011-09-30T13:16:13.780352,8140,-0.957675,0.054432,4.422537,0.168039,0.142871,0.995931
2011-09-30T13:16:13.790352,8150,-1.026801,0.079300,4.376759,0.168627,0.144849,0.995142
2011-09-30T13:16:13.800352,8160,-1.095926,0.104168,4.330981,0.169214,0.146826,0.994353
2011-09-30T13:16:13.810352,8170,-1.165051,0.129036,4.285203,0.169802,0.148803,0.993565
2011-09-30T13:16:13.820352,8180,-1.234177,0.153904,4.239425,0.170390,0.150780,0.992776
2011-09-30T13:16:13.830352,8190,-1.303302,0.178772,4.193648,0.170977,0.152758,0.991987
2011-09-30T13:16:13.840352,8200,-1.372439,0.202706,4.146739,0.171567,0.154676,0.991206
2011-09-30T13:16:13.850352,8210,-1.442159,0.179005,4.042092,0.172258,0.153604,0.990843
2011-09-30T13:16:13.860352,8220,-1.511880,0.155303,3.937445,0.172949,0.152532,0.990480
2011-09-30T13:16:13.870352,8230,-1.581600,0.131601,3.832798,0.173641,0.151460,0.990117
2011-09-30T13:16:13.880352,8240,-1.651321,0.107900,3.728151,0.174332,0.150388,0.989754
2011-09-30T13:16:13.890352,8250,-1.721041,0.084198,3.623504,0.175023,0.149316,0.989391
2011-09-30T13:16:13.900352,8260,-1.790762,0.060496,3.518857,0.175715,0.148244,0.989028
2011-09-30T13:16:13.910352,8270,-1.860483,0.036795,3.414210,0.176406,0.147171,0.988665
2011-09-30T13:16:13.920352,8280,-1.930203,0.013093,3.309563,0.177097,0.146099,0.988303
2011-09-30T13:16:13.930352,8290,-1.999924,-0.010609,3.204916,0.177789,0.145027,0.987940
2011-09-30T13:16:13.940352,8300,-2.068701,-0.033270,3.099276,0.178456,0.143894,0.987610
2011-09-30T13:16:13.950352,8310,-2.080151,0.007343,2.933269,0.177670,0.139040,0.989288
2011-09-30T13:16:13.960352,8320,-2.091601,0.047956,2.767263,0.176884,0.134186,0.990966
2011-09-30T13:16:13.970352,8330,-2.103051,0.088569,2.601257,0.176097,0.129332,0.992644
2011-09-30T13:16:13.980352,8340,-2.114501,0.129182,2.435250,0.175311,0.124478,0.994322
2011-09-30T13:16:13.990352,8350,-2.125951,0.169795,2.269244,0.174525,0.119624,0.996001
2011-09-30T13:16:14.000352,8360,-2.137401,0.210408,2.103237,0.173739,0.114770,0.997679
2011-09-30T13:16:14.010352,8370,-2.148850,0.251021,1.937231,0.172953,0.109916,0.999357
2011-09-30T13:16:14.020352,8380,-2.160300,0.291634,1.771225,0.172167,0.105063,1.001035
2011-09-30T13:16:14.030352,8390,-2.171750,0.332247,1.605218,0.171380,0.100209,1.002713
2011-09-30T13:16:14.040352,8400,-2.183200,0.372860,1.439212,0.170594,0.095355,1.004392
2011-09-30T13:16:14.050352,8410,-2.193942,0.413108,1.274033,0.169788,0.090543,1.006028
2011-09-30T13:16:14.060352,8420,-2.167366,0.434129,1.152465,0.167927,0.087955,1.005461
2011-09-30T13:16:14.070352,8430,-2.140790,0.455149,1.030897,0.166066,0.085367,1.004894
2011-09-30T13:16:14.080352,8440,-2.114214,0.476169,0.909329,0.164205,0.082780,1.004326
2011-09-30T13:16:14.090352,8450,-2.087639,0.497190,0.787761,0.162344,0.080192,1.003759
2011-09-30T13:16:14.100352,8460,-2.061063,0.518210,0.666193,0.160483,0.077604,1.003192
2011-09-30T13:16:14.110352,8470,-2.034487,0.539230,0.544625,0.158622,0.075016,1.002625
2011-09-30T13:16:14.120352,8480,-2.007911,0.560251,0.423057,0.156762,0.072429,1.002058
2011-09-30T13:16:14.130352,8490,-1.981335,0.581271,0.301489,0.154901,0.069841,1.001490
2011-09-30T13:16:14.140352,8500,-1.954760,0.602292,0.179921,0.153040,0.067253,1.000923
2011-09-30T13:16:14.150352,8510,-1.926777,0.622475,0.059530,0.151178,0.064643,1.000345
2011-09-30T13:16:14.160352,8520,-1.820253,0.595962,0.004827,0.149290,0.060799,0.999175
2011-09-30T13:16:14.170352,8530,-1.713730,0.569448,-0.049876,0.147403,0.056955,0.998005
2011-09-30T13:16:14.180352,8540,-1.607206,0.542935,-0.104578,0.145515,0.053110,0.996835
2011-09-30T13:16:14.190352,8550,-1.500683,0.516422,-0.159281,0.143627,0.049266,0.995665
2011-09-30T13:16:14.200352,8560,-1.394159,0.489908,-0.213983,0.141739,0.045422,0.994495
2011-09-30T13:16:14.210352,8570,-1.287636,0.463395,-0.268686,0.139851,0.041578,0.993325
2011-09-30T13:16:14.220352,8580,-1.181112,0.436881,-0.323389,0.137963,0.037733,0.992155
2011-09-30T13:16:14.230352,8590,-1.074589,0.410368,-0.378091,0.136076,0.033889,0.990985
2011-09-30T13:16:14.240352,8600,-0.968065,0.383855,-0.432794,0.134188,0.030045,0.989816
2011-09-30T13:16:14.250352,8610,-0.862284,0.357781,-0.486296,0.132323,0.026269,0.988658
2011-09-30T13:16:14.260352,8620,-0.801792,0.358577,-0.466510,0.131884,0.026659,0.988250
2011-09-30T13:16:14.270352,8630,-0.741301,0.359373,-0.446724,0.131444,0.027048,0.987843
2011-09-30T13:16:14.280352,8640,-0.680810,0.360169,-0.426938,0.131005,0.027438,0.987435
2011-09-30T13:16:14.290352,8650,-0.620319,0.360965,-0.407152,0.130566,0.027827,0.987027
2011-09-30T13:16:14.300352,8660,-0.559828,0.361761,-0.387366,0.130126,0.028217,0.986620
2011-09-30T13:16:14.310352,8670,-0.499336,0.362557,-0.367580,0.129687,0.028607,0.986212
2011-09-30T13:16:14.320352,8680,-0.438845,0.363353,-0.347794,0.129247,0.028996,0.985805
2011-09-30T13:16:14.330352,8690,-0.378354,0.364149,-0.328007,0.128808,0.029386,0.985397
2011-09-30T13:16:14.340352,8700,-0.317863,0.364945,-0.308221,0.128368,0.029775,0.984989
2011-09-30T13:16:14.350352,8710,-0.257372,0.365741,-0.288435,0.127929,0.030165,0.984582
2011-09-30T13:16:14.360352,8720,-0.196880,0.366537,-0.268649,0.127489,0.030555,0.984174
2011-09-30T13:16:14.370352,8730,-0.182985,0.393669,-0.257178,0.126545,0.032807,0.986540
2011-09-30T13:16:14.380352,8740,-0.169323,0.420934,-0.245748,0.125597,0.035069,0.988920
2011-09-30T13:16:14.390352,8750,-0.155661,0.448198,-0.234319,0.124650,0.037331,0.991301
2011-09-30T13:16:14.400352,8760,-0.142000,0.475463,-0.222890,0.123702,0.039593,0.993681
2011-09-30T13:16:14.410352,8770,-0.128338,0.502728,-0.211460,0.122755,0.041855,0.996061
2011-09-30T13:16:14.420352,8780,-0.114677,0.529992,-0.200031,0.121807,0.044117,0.998441
2011-09-30T13:16:14.430352,8790,-0.101015,0.557257,-0.188601,0.120860,0.046379,1.000821
2011-09-30T13:16:14.440352,8800,-0.087354,0.584522,-0.177172,0.119912,0.048641,1.003201
2011-09-30T13:16:14.450352,8810,-0.073692,0.611786,-0.165743,0.118965,0.050903,1.005581
2011-09-30T13:16:14.460352,8820,-0.059989,0.638560,-0.154325,0.118010,0.053138,1.007926
2011-09-30T13:16:14.470352,8830,-0.042249,0.617693,-0.144057,0.116282,0.052779,1.006798
2011-09-30T13:16:14.480352,8840,-0.024510,0.596827,-0.133789,0.114553,0.052419,1.005671
2011-09-30T13:16:14.490352,8850,-0.006770,0.575961,-0.123521,0.112825,0.052060,1.004544
2011-09-30T13:16:14.500352,8860,0.010969,0.555095,-0.113254,0.111097,0.051700,1.003416
2011-09-30T13:16:14.510352,8870,0.028709,0.534229,-0.102986,0.109369,0.051340,1.002289
2011-09-30T13:16:14.520352,8880,0.046448,0.513363,-0.092718,0.107641,0.050981,1.001161
2011-09-30T13:16:14.530352,8890,0.064187,0.492497,-0.082450,0.105913,0.050621,1.000034
2011-09-30T13:16:14.540352,8900,0.081927,0.471631,-0.072182,0.104185,0.050261,0.998907
2011-09-30T13:16:14.550352,8910,0.099666,0.450765,-0.061914,0.102457,0.049902,0.997779
2011-09-30T13:16:14.560352,8920,0.116355,0.429906,-0.051747,0.100712,0.049578,0.996683
2011-09-30T13:16:14.570352,8930,0.081260,0.409420,-0.046548,0.098104,0.051020,0.997123
2011-09-30T13:16:14.580352,8940,0.046166,0.388934,-0.041348,0.095497,0.052462,0.997563
2011-09-30T13:16:14.590352,8950,0.011072,0.368448,-0.036149,0.092889,0.053905,0.998002
2011-09-30T13:16:14.600352,8960,-0.024022,0.347962,-0.030950,0.090282,0.055347,0.998442
2011-09-30T13:16:14.610352,8970,-0.059116,0.327476,-0.025751,0.087674,0.056789,0.998882
2011-09-30T13:16:14.620352,8980,-0.094211,0.306990,-0.020551,0.085067,0.058231,0.999322
2011-09-30T13:16:14.630352,8990,-0.129305,0.286504,-0.015352,0.082459,0.059673,0.999762
2011-09-30T13:16:14.640352,9000,-0.164399,0.266018,-0.010153,0.079852,0.061115,1.000201
2011-09-30T13:16:14.650352,9010,-0.199493,0.245532,-0.004954,0.077244,0.062558,1.000641
2011-09-30T13:16:14.660352,9020,-0.234587,0.225046,0.000246,0.074637,0.064000,1.001081
2011-09-30T13:16:14.670352,9030,-0.270066,0.205367,0.005106,0.071965,0.065422,1.001532
2011-09-30T13:16:14.680352,9040,-0.324789,0.226047,-0.006985,0.066085,0.065838,1.002536
2011-09-30T13:16:14.690352,9050,-0.379512,0.246727,-0.019076,0.060205,0.066255,1.003541
2011-09-30T13:16:14.700352,9060,-0.434234,0.267407,-0.031168,0.054325,0.066671,1.004546
2011-09-30T13:16:14.710352,9070,-0.488957,0.288087,-0.043259,0.048445,0.067087,1.005550
2011-09-30T13:16:14.720352,9080,-0.543680,0.308768,-0.055350,0.042564,0.067504,1.006555
2011-09-30T13:16:14.730352,9090,-0.598402,0.329448,-0.067441,0.036684,0.067920,1.007559
2011-09-30T13:16:14.740352,9100,-0.653125,0.350128,-0.079532,0.030804,0.068337,1.008564
2011-09-30T13:16:14.750352,9110,-0.707848,0.370808,-0.091623,0.024924,0.068753,1.009569
2011-09-30T13:16:14.760352,9120,-0.762570,0.391488,-0.103715,0.019044,0.069169,1.010573
2011-09-30T13:16:14.770352,9130,-0.816411,0.412073,-0.115592,0.013197,0.069568,1.011565
2011-09-30T13:16:14.780352,9140,-0.767291,0.421482,-0.102528,0.011298,0.067920,1.011074
2011-09-30T13:16:14.790352,9150,-0.718171,0.430891,-0.089464,0.009399,0.066272,1.010582
2011-09-30T13:16:14.800352,9160,-0.669051,0.440301,-0.076400,0.007500,0.064624,1.010091
2011-09-30T13:16:14.810352,9170,-0.619931,0.449710,-0.063336,0.005601,0.062976,1.009599
2011-09-30T13:16:14.820352,9180,-0.570811,0.459120,-0.050272,0.003702,0.061327,1.009108
2011-09-30T13:16:14.830352,9190,-0.521691,0.468529,-0.037208,0.001803,0.059679,1.008616
2011-09-30T13:16:14.840352,9200,-0.472571,0.477939,-0.024144,-0.000096,0.058031,1.008125
2011-09-30T13:16:14.850352,9210,-0.423451,0.487348,-0.011081,-0.001995,0.056383,1.007633
2011-09-30T13:16:14.860352,9220,-0.374331,0.496757,0.001983,-0.003894,0.054735,1.007142
2011-09-30T13:16:14.870352,9230,-0.325211,0.506167,0.015047,-0.005793,0.053087,1.006650
2011-09-30T13:16:14.880352,9240,-0.276228,0.515483,0.028161,-0.007691,0.051444,1.006158
2011-09-30T13:16:14.890352,9250,-0.298972,0.475979,0.067262,-0.008873,0.052540,1.005196
2011-09-30T13:16:14.900352,9260,-0.321716,0.436474,0.106364,-0.010056,0.053636,1.004233
2011-09-30T13:16:14.910352,9270,-0.344459,0.396970,0.145466,-0.011238,0.054733,1.003271
2011-09-30T13:16:14.920352,9280,-0.367203,0.357466,0.184567,-0.012420,0.055829,1.002308
2011-09-30T13:16:14.930352,9290,-0.389947,0.317961,0.223669,-0.013602,0.056925,1.001346
2011-09-30T13:16:14.940352,9300,-0.412690,0.278457,0.262770,-0.014785,0.058022,1.000383
2011-09-30T13:16:14.950352,9310,-0.435434,0.238953,0.301872,-0.015967,0.059118,0.999421
2011-09-30T13:16:14.960352,9320,-0.458178,0.199448,0.340973,-0.017149,0.060215,0.998458
2011-09-30T13:16:14.970352,9330,-0.480921,0.159944,0.380075,-0.018331,0.061311,0.997496
2011-09-30T13:16:14.980352,9340,-0.502845,0.122260,0.419082,-0.019495,0.062366,0.996581
2011-09-30T13:16:14.990352,9350,-0.479779,0.184479,0.452904,-0.019627,0.061147,0.998255
2011-09-30T13:16:15.000352,9360,-0.456712,0.246698,0.486725,-0.019760,0.059928,0.999929
2011-09-30T13:16:15.010352,9370,-0.433645,0.308917,0.520547,-0.019893,0.058709,1.001604
2011-09-30T13:16:15.020352,9380,-0.410578,0.371136,0.554369,-0.020026,0.057490,1.003278
2011-09-30T13:16:15.030352,9390,-0.387512,0.433355,0.588191,-0.020159,0.056271,1.004953
2011-09-30T13:16:15.040352,9400,-0.364445,0.495574,0.622012,-0.020292,0.055053,1.006627
2011-09-30T13:16:15.050352,9410,-0.341378,0.557793,0.655834,-0.020424,0.053834,1.008301
2011-09-30T13:16:15.060352,9420,-0.318312,0.620012,0.689656,-0.020557,0.052615,1.009976
2011-09-30T13:16:15.070352,9430,-0.295245,0.682231,0.723478,-0.020690,0.051396,1.011650
2011-09-30T13:16:15.080352,9440,-0.271792,0.744293,0.757524,-0.020822,0.050232,1.013250
2011-09-30T13:16:15.090352,9450,-0.230406,0.799059,0.801996,-0.020895,0.051629,1.011414
2011-09-30T13:16:15.100352,9460,-0.189020,0.853826,0.846468,-0.020968,0.053026,1.009578
2011-09-30T13:16:15.110352,9470,-0.147635,0.908592,0.890941,-0.021041,0.054423,1.007741
2011-09-30T13:16:15.120352,9480,-0.106249,0.963359,0.935413,-0.021115,0.055820,1.005905
2011-09-30T13:16:15.130352,9490,-0.064863,1.018125,0.979885,-0.021188,0.057217,1.004069
2011-09-30T13:16:15.140352,9500,-0.023477,1.072892,1.024358,-0.021261,0.058614,1.002232
2011-09-30T13:16:15.150352,9510,0.017909,1.127658,1.068830,-0.021334,0.060011,1.000396
2011-09-30T13:16:15.160352,9520,0.059294,1.182425,1.113302,-0.021408,0.061408,0.998560
2011-09-30T13:16:15.170352,9530,0.100680,1.237192,1.157774,-0.021481,0.062805,0.996723
2011-09-30T13:16:15.180352,9540,0.142066,1.291958,1.202247,-0.021554,0.064201,0.994887
2011-09-30T13:16:15.190352,9550,0.182426,1.345045,1.246248,-0.021615,0.065611,0.993026
2011-09-30T13:16:15.200352,9560,0.177216,1.323518,1.269333,-0.021119,0.067579,0.990051
2011-09-30T13:16:15.210352,9570,0.172006,1.301991,1.292419,-0.020622,0.069547,0.987076
2011-09-30T13:16:15.220352,9580,0.166796,1.280464,1.315504,-0.020126,0.071515,0.984101
2011-09-30T13:16:15.230352,9590,0.161587,1.258938,1.338590,-0.019630,0.073484,0.981126
2011-09-30T13:16:15.240352,9600,0.156377,1.237411,1.361675,-0.019133,0.075452,0.978151
2011-09-30T13:16:15.250352,9610,0.151167,1.215884,1.384761,-0.018637,0.077420,0.975177
2011-09-30T13:16:15.260352,9620,0.145957,1.194357,1.407846,-0.018140,0.079388,0.972202
2011-09-30T13:16:15.270352,9630,0.140748,1.172831,1.430932,-0.017644,0.081356,0.969227
2011-09-30T13:16:15.280352,9640,0.135538,1.151304,1.454017,-0.017148,0.083324,0.966252
2011-09-30T13:16:15.290352,9650,0.130851,1.128692,1.476747,-0.016679,0.085202,0.963358
2011-09-30T13:16:15.300352,9660,0.148283,1.060197,1.484408,-0.017364,0.083243,0.963872
2011-09-30T13:16:15.310352,9670,0.165715,0.991702,1.492069,-0.018049,0.081283,0.964387
2011-09-30T13:16:15.320352,9680,0.183147,0.923206,1.499730,-0.018734,0.079324,0.964901
2011-09-30T13:16:15.330352,9690,0.200579,0.854711,1.507391,-0.019419,0.077365,0.965415
2011-09-30T13:16:15.340352,9700,0.218011,0.786216,1.515052,-0.020104,0.075406,0.965930
2011-09-30T13:16:15.350352,9710,0.235444,0.717720,1.522713,-0.020789,0.073447,0.966444
2011-09-30T13:16:15.360352,9720,0.252876,0.649225,1.530375,-0.021475,0.071487,0.966958
2011-09-30T13:16:15.370352,9730,0.270308,0.580730,1.538036,-0.022160,0.069528,0.967473
2011-09-30T13:16:15.380352,9740,0.287740,0.512234,1.545697,-0.022845,0.067569,0.967987
2011-09-30T13:16:15.390352,9750,0.305022,0.444036,1.553174,-0.023534,0.065636,0.968530
2011-09-30T13:16:15.400352,9760,0.305523,0.409299,1.539959,-0.024728,0.066594,0.972278
2011-09-30T13:16:15.410352,9770,0.306024,0.374562,1.526744,-0.025921,0.067552,0.976026
2011-09-30T13:16:15.420352,9780,0.306525,0.339824,1.513529,-0.027114,0.068510,0.979775
2011-09-30T13:16:15.430352,9790,0.307026,0.305087,1.500314,-0.028307,0.069468,0.983523
2011-09-30T13:16:15.440352,9800,0.307527,0.270349,1.487099,-0.029501,0.070426,0.987271
2011-09-30T13:16:15.450352,9810,0.308028,0.235612,1.473884,-0.030694,0.071384,0.991019
2011-09-30T13:16:15.460352,9820,0.308528,0.200875,1.460669,-0.031887,0.072342,0.994767
2011-09-30T13:16:15.470352,9830,0.309029,0.166137,1.447454,-0.033080,0.073301,0.998516
2011-09-30T13:16:15.480352,9840,0.309530,0.131400,1.434239,-0.034274,0.074259,1.002264
2011-09-30T13:16:15.490352,9850,0.310031,0.096662,1.421024,-0.035467,0.075217,1.006012
2011-09-30T13:16:15.500352,9860,0.309988,0.061984,1.406794,-0.036649,0.076157,1.009661
2011-09-30T13:16:15.510352,9870,0.277762,0.030778,1.332445,-0.037182,0.076014,1.007417
2011-09-30T13:16:15.520352,9880,0.245536,-0.000427,1.258096,-0.037715,0.075871,1.005174
2011-09-30T13:16:15.530352,9890,0.213310,-0.031632,1.183746,-0.038248,0.075727,1.002931
2011-09-30T13:16:15.540352,9900,0.181084,-0.062837,1.109397,-0.038781,0.075584,1.000687
2011-09-30T13:16:15.550352,9910,0.148858,-0.094043,1.035047,-0.039314,0.075441,0.998444
2011-09-30T13:16:15.560352,9920,0.116632,-0.125248,0.960698,-0.039847,0.075298,0.996200
2011-09-30T13:16:15.570352,9930,0.084406,-0.156453,0.886349,-0.040380,0.075155,0.993957
2011-09-30T13:16:15.580352,9940,0.052180,-0.187659,0.811999,-0.040912,0.075012,0.991714
2011-09-30T13:16:15.590352,9950,0.019954,-0.218864,0.737650,-0.041445,0.074869,0.989470
2011-09-30T13:16:15.600352,9960,-0.012376,-0.250871,0.662891,-0.041970,0.074712,0.987326
2011-09-30T13:16:15.610352,9970,-0.049270,-0.317992,0.570208,-0.042144,0.073925,0.989518
2011-09-30T13:16:15.620352,9980,-0.086163,-0.385114,0.477525,-0.042317,0.073138,0.991710
2011-09-30T13:16:15.630352,9990,-0.123056,-0.452235,0.384842,-0.042491,0.072351,0.993902
2011-09-30T13:16:15.640352,10000,-0.159949,-0.519357,0.292159,-0.042665,0.071564,0.996094
2011-09-30T13:16:15.650352,10010,-0.196842,-0.586478,0.199476,-0.042838,0.070777,0.998286
2011-09-30T13:16:15.660352,10020,-0.233735,-0.653600,0.106793,-0.043012,0.069990,1.000478
2011-09-30T13:16:15.670352,10030,-0.270628,-0.720721,0.014110,-0.043185,0.069204,1.002670
2011-09-30T13:16:15.680352,10040,-0.307521,-0.787843,-0.078573,-0.043359,0.068417,1.004862
2011-09-30T13:16:15.690352,10050,-0.344414,-0.854964,-0.171256,-0.043532,0.067630,1.007054
2011-09-30T13:16:15.700352,10060,-0.381307,-0.922086,-0.263939,-0.043706,0.066843,1.009246
2011-09-30T13:16:15.710352,10070,-0.418071,-0.988733,-0.357228,-0.043852,0.066004,1.011378
2011-09-30T13:16:15.720352,10080,-0.448781,-1.033173,-0.478931,-0.042731,0.062752,1.010701
2011-09-30T13:16:15.730352,10090,-0.479492,-1.077613,-0.600633,-0.041609,0.059499,1.010024
2011-09-30T13:16:15.740352,10100,-0.510202,-1.122053,-0.722336,-0.040487,0.056246,1.009347
2011-09-30T13:16:15.750352,10110,-0.540913,-1.166493,-0.844038,-0.039365,0.052993,1.008671
2011-09-30T13:16:15.760352,10120,-0.571624,-1.210933,-0.965740,-0.038243,0.049741,1.007994
2011-09-30T13:16:15.770352,10130,-0.602334,-1.255373,-1.087443,-0.037121,0.046488,1.007317
2011-09-30T13:16:15.780352,10140,-0.633045,-1.299812,-1.209145,-0.035999,0.043235,1.006641
2011-09-30T13:16:15.790352,10150,-0.663755,-1.344252,-1.330848,-0.034877,0.039982,1.005964
2011-09-30T13:16:15.800352,10160,-0.694466,-1.388692,-1.452550,-0.033755,0.036730,1.005287
2011-09-30T13:16:15.810352,10170,-0.724763,-1.430846,-1.573906,-0.032639,0.033521,1.004650
2011-09-30T13:16:15.820352,10180,-0.736144,-1.368529,-1.679429,-0.031770,0.032340,1.005835
2011-09-30T13:16:15.830352,10190,-0.747525,-1.306212,-1.784953,-0.030901,0.031160,1.007019
2011-09-30T13:16:15.840352,10200,-0.758907,-1.243895,-1.890476,-0.030033,0.029979,1.008203
2011-09-30T13:16:15.850352,10210,-0.770288,-1.181578,-1.995999,-0.029164,0.028798,1.009388
2011-09-30T13:16:15.860352,10220,-0.781670,-1.119261,-2.101523,-0.028295,0.027617,1.010572
2011-09-30T13:16:15.870352,10230,-0.793051,-1.056945,-2.207046,-0.027426,0.026436,1.011756
2011-09-30T13:16:15.880352,10240,-0.804433,-0.994628,-2.312569,-0.026557,0.025255,1.012941
2011-09-30T13:16:15.890352,10250,-0.815814,-0.932311,-2.418093,-0.025688,0.024075,1.014125
2011-09-30T13:16:15.900352,10260,-0.827196,-0.869994,-2.523616,-0.024820,0.022894,1.015309
2011-09-30T13:16:15.910352,10270,-0.837523,-0.806913,-2.628926,-0.023954,0.021689,1.016512
2011-09-30T13:16:15.920352,10280,-0.698443,-0.635603,-2.703911,-0.023591,0.017127,1.020385
2011-09-30T13:16:15.930352,10290,-0.559363,-0.464293,-2.778896,-0.023228,0.012564,1.024258
2011-09-30T13:16:15.940352,10300,-0.420283,-0.292983,-2.853881,-0.022865,0.008001,1.028131
2011-09-30T13:16:15.950352,10310,-0.281203,-0.121673,-2.928866,-0.022502,0.003438,1.032004
2011-09-30T13:16:15.960352,10320,-0.142123,0.049638,-3.003851,-0.022139,-0.001124,1.035877
2011-09-30T13:16:15.970352,10330,-0.003043,0.220948,-3.078836,-0.021776,-0.005687,1.039750
2011-09-30T13:16:15.980352,10340,0.136036,0.392258,-3.153821,-0.021412,-0.010250,1.043622
2011-09-30T13:16:15.990352,10350,0.275116,0.563568,-3.228806,-0.021049,-0.014812,1.047495
2011-09-30T13:16:16.000352,10360,0.414196,0.734878,-3.303791,-0.020686,-0.019375,1.051368
2011-09-30T13:16:16.010352,10370,0.553276,0.906188,-3.378776,-0.020323,-0.023938,1.055241
2011-09-30T13:16:16.020352,10380,0.688912,1.075536,-3.452494,-0.019994,-0.028404,1.058892
2011-09-30T13:16:16.030352,10390,0.635565,1.137171,-3.456685,-0.021529,-0.027575,1.050355
2011-09-30T13:16:16.040352,10400,0.582217,1.198807,-3.460875,-0.023065,-0.026745,1.041817
2011-09-30T13:16:16.050352,10410,0.528870,1.260443,-3.465066,-0.024600,-0.025916,1.033280
2011-09-30T13:16:16.060352,10420,0.475522,1.322078,-3.469257,-0.026136,-0.025087,1.024743
2011-09-30T13:16:16.070352,10430,0.422175,1.383714,-3.473448,-0.027672,-0.024258,1.016206
2011-09-30T13:16:16.080352,10440,0.368827,1.445350,-3.477638,-0.029207,-0.023428,1.007669
2011-09-30T13:16:16.090352,10450,0.315479,1.506985,-3.481829,-0.030743,-0.022599,0.999131
2011-09-30T13:16:16.100352,10460,0.262132,1.568621,-3.486020,-0.032278,-0.021770,0.990594
2011-09-30T13:16:16.110352,10470,0.208784,1.630257,-3.490211,-0.033814,-0.020940,0.982057
2011-09-30T13:16:16.120352,10480,0.153211,1.687502,-3.494144,-0.035320,-0.020057,0.973749
2011-09-30T13:16:16.130352,10490,0.009773,1.571451,-3.487934,-0.035677,-0.017066,0.974486
2011-09-30T13:16:16.140352,10500,-0.133665,1.455400,-3.481724,-0.036034,-0.014074,0.975223
2011-09-30T13:16:16.150352,10510,-0.277103,1.339348,-3.475513,-0.036392,-0.011083,0.975960
2011-09-30T13:16:16.160352,10520,-0.420541,1.223297,-3.469303,-0.036749,-0.008091,0.976698
2011-09-30T13:16:16.170352,10530,-0.563979,1.107246,-3.463092,-0.037106,-0.005100,0.977435
2011-09-30T13:16:16.180352,10540,-0.707417,0.991194,-3.456882,-0.037463,-0.002109,0.978172
2011-09-30T13:16:16.190352,10550,-0.850855,0.875143,-3.450671,-0.037821,0.000883,0.978909
2011-09-30T13:16:16.200352,10560,-0.994293,0.759092,-3.444461,-0.038178,0.003874,0.979646
2011-09-30T13:16:16.210352,10570,-1.137731,0.643040,-3.438250,-0.038535,0.006866,0.980383
2011-09-30T13:16:16.220352,10580,-1.281169,0.526989,-3.432040,-0.038892,0.009857,0.981121
2011-09-30T13:16:16.230352,10590,-1.414738,0.409687,-3.425511,-0.039281,0.012697,0.981814
2011-09-30T13:16:16.240352,10600,-1.149023,0.241765,-3.406096,-0.040968,0.009381,0.980732
2011-09-30T13:16:16.250352,10610,-0.883309,0.073843,-3.386681,-0.042655,0.006066,0.979651
2011-09-30T13:16:16.260352,10620,-0.617595,-0.094079,-3.367267,-0.044341,0.002751,0.978570
2011-09-30T13:16:16.270352,10630,-0.351881,-0.262001,-3.347852,-0.046028,-0.000565,0.977488
2011-09-30T13:16:16.280352,10640,-0.086167,-0.429922,-3.328437,-0.047714,-0.003880,0.976407
2011-09-30T13:16:16.290352,10650,0.179548,-0.597844,-3.309023,-0.049401,-0.007195,0.975325
2011-09-30T13:16:16.300352,10660,0.445262,-0.765766,-3.289608,-0.051087,-0.010511,0.974244
2011-09-30T13:16:16.310352,10670,0.710976,-0.933688,-3.270193,-0.052774,-0.013826,0.973163
2011-09-30T13:16:16.320352,10680,0.976690,-1.101609,-3.250779,-0.054461,-0.017141,0.972081
2011-09-30T13:16:16.330352,10690,1.233735,-1.265873,-3.231560,-0.056031,-0.020356,0.971206
2011-09-30T13:16:16.340352,10700,1.144350,-1.283955,-3.220185,-0.052975,-0.019567,0.978585
2011-09-30T13:16:16.350352,10710,1.054965,-1.302037,-3.208810,-0.049919,-0.018778,0.985964
2011-09-30T13:16:16.360352,10720,0.965580,-1.320119,-3.197435,-0.046862,-0.017988,0.993343
2011-09-30T13:16:16.370352,10730,0.876194,-1.338201,-3.186060,-0.043806,-0.017199,1.000721
2011-09-30T13:16:16.380352,10740,0.786809,-1.356283,-3.174685,-0.040749,-0.016410,1.008100
2011-09-30T13:16:16.390352,10750,0.697424,-1.374365,-3.163309,-0.037693,-0.015620,1.015479
2011-09-30T13:16:16.400352,10760,0.608039,-1.392447,-3.151934,-0.034637,-0.014831,1.022857
2011-09-30T13:16:16.410352,10770,0.518654,-1.410529,-3.140559,-0.031580,-0.014042,1.030236
2011-09-30T13:16:16.420352,10780,0.429269,-1.428611,-3.129184,-0.028524,-0.013252,1.037615
2011-09-30T13:16:16.430352,10790,0.339770,-1.445658,-3.117916,-0.025531,-0.012478,1.044839
2011-09-30T13:16:16.440352,10800,0.242749,-1.394374,-3.113739,-0.026751,-0.012683,1.041878
2011-09-30T13:16:16.450352,10810,0.145728,-1.343090,-3.109562,-0.027971,-0.012888,1.038917
2011-09-30T13:16:16.460352,10820,0.048708,-1.291805,-3.105385,-0.029191,-0.013093,1.035956
2011-09-30T13:16:16.470352,10830,-0.048313,-1.240521,-3.101208,-0.030411,-0.013298,1.032995
2011-09-30T13:16:16.480352,10840,-0.145334,-1.189237,-3.097032,-0.031631,-0.013503,1.030034
2011-09-30T13:16:16.490352,10850,-0.242355,-1.137952,-3.092855,-0.032851,-0.013708,1.027072
2011-09-30T13:16:16.500352,10860,-0.339375,-1.086668,-3.088678,-0.034070,-0.013913,1.024111
2011-09-30T13:16:16.510352,10870,-0.436396,-1.035384,-3.084501,-0.035290,-0.014118,1.021150
2011-09-30T13:16:16.520352,10880,-0.533417,-0.984099,-3.080324,-0.036510,-0.014323,1.018189
2011-09-30T13:16:16.530352,10890,-0.630438,-0.932815,-3.076147,-0.037730,-0.014528,1.015228
2011-09-30T13:16:16.540352,10900,-0.725082,-0.882247,-3.070570,-0.038922,-0.014719,1.012352
2011-09-30T13:16:16.550352,10910,-0.729672,-0.858843,-3.011964,-0.039072,-0.014387,1.012684
2011-09-30T13:16:16.560352,10920,-0.734263,-0.835440,-2.953357,-0.039222,-0.014055,1.013017
2011-09-30T13:16:16.570352,10930,-0.738853,-0.812036,-2.894750,-0.039372,-0.013723,1.013349
2011-09-30T13:16:16.580352,10940,-0.743443,-0.788632,-2.836144,-0.039522,-0.013391,1.013682
2011-09-30T13:16:16.590352,10950,-0.748033,-0.765229,-2.777537,-0.039672,-0.013059,1.014014
2011-09-30T13:16:16.600352,10960,-0.752623,-0.741825,-2.718931,-0.039821,-0.012726,1.014347
2011-09-30T13:16:16.610352,10970,-0.757213,-0.718421,-2.660324,-0.039971,-0.012394,1.014679
2011-09-30T13:16:16.620352,10980,-0.761803,-0.695017,-2.601717,-0.040121,-0.012062,1.015012
2011-09-30T13:16:16.630352,10990,-0.766394,-0.671614,-2.543111,-0.040271,-0.011730,1.015345
2011-09-30T13:16:16.640352,11000,-0.768183,-0.645133,-2.485373,-0.040358,-0.011374,1.015648
2011-09-30T13:16:16.650352,11010,-0.662466,-0.500549,-2.460987,-0.038048,-0.010110,1.014852
2011-09-30T13:16:16.660352,11020,-0.556748,-0.355964,-2.436601,-0.035737,-0.008847,1.014056
2011-09-30T13:16:16.670352,11030,-0.451031,-0.211379,-2.412215,-0.033427,-0.007583,1.013259
2011-09-30T13:16:16.680352,11040,-0.345314,-0.066795,-2.387829,-0.031117,-0.006320,1.012463
2011-09-30T13:16:16.690352,11050,-0.239596,0.077790,-2.363443,-0.028806,-0.005056,1.011667
2011-09-30T13:16:16.700352,11060,-0.133879,0.222374,-2.339058,-0.026496,-0.003792,1.010870
2011-09-30T13:16:16.710352,11070,-0.028161,0.366959,-2.314672,-0.024186,-0.002529,1.010074
2011-09-30T13:16:16.720352,11080,0.077556,0.511543,-2.290286,-0.021875,-0.001265,1.009277
2011-09-30T13:16:16.730352,11090,0.183273,0.656128,-2.265900,-0.019565,-0.000001,1.008481
2011-09-30T13:16:16.740352,11100,0.287056,0.803237,-2.240980,-0.017300,0.001238,1.007731
2011-09-30T13:16:16.750352,11110,0.285997,1.087144,-2.187095,-0.017479,0.001161,1.009479
2011-09-30T13:16:16.760352,11120,0.284938,1.371051,-2.133211,-0.017659,0.001084,1.011228
2011-09-30T13:16:16.770352,11130,0.283879,1.654958,-2.079327,-0.017839,0.001007,1.012976
2011-09-30T13:16:16.780352,11140,0.282819,1.938865,-2.025443,-0.018019,0.000930,1.014725
2011-09-30T13:16:16.790352,11150,0.281760,2.222772,-1.971558,-0.018198,0.000853,1.016473
2011-09-30T13:16:16.800352,11160,0.280701,2.506679,-1.917674,-0.018378,0.000777,1.018222
2011-09-30T13:16:16.810352,11170,0.279641,2.790586,-1.863790,-0.018558,0.000700,1.019971
2011-09-30T13:16:16.820352,11180,0.278582,3.074494,-1.809905,-0.018738,0.000623,1.021719
2011-09-30T13:16:16.830352,11190,0.277523,3.358401,-1.756021,-0.018917,0.000546,1.023468
2011-09-30T13:16:16.840352,11200,0.276463,3.642308,-1.702137,-0.019097,0.000469,1.025216
2011-09-30T13:16:16.850352,11210,0.273997,3.923464,-1.648846,-0.019324,0.000475,1.026839
2011-09-30T13:16:16.860352,11220,0.198473,4.061791,-1.626375,-0.022003,0.004795,1.021920
2011-09-30T13:16:16.870352,11230,0.122949,4.200118,-1.603904,-0.024682,0.009116,1.017001
2011-09-30T13:16:16.880352,11240,0.047424,4.338445,-1.581432,-0.027361,0.013436,1.012082
2011-09-30T13:16:16.890352,11250,-0.028100,4.476772,-1.558961,-0.030040,0.017756,1.007163
2011-09-30T13:16:16.900352,11260,-0.103624,4.615099,-1.536490,-0.032719,0.022076,1.002244
2011-09-30T13:16:16.910352,11270,-0.179149,4.753426,-1.514019,-0.035398,0.026396,0.997325
2011-09-30T13:16:16.920352,11280,-0.254673,4.891753,-1.491548,-0.038077,0.030716,0.992406
2011-09-30T13:16:16.930352,11290,-0.330197,5.030080,-1.469076,-0.040756,0.035036,0.987487
2011-09-30T13:16:16.940352,11300,-0.405721,5.168407,-1.446605,-0.043435,0.039357,0.982568
2011-09-30T13:16:16.950352,11310,-0.480698,5.304865,-1.424148,-0.046117,0.043646,0.977580
2011-09-30T13:16:16.960352,11320,-0.431610,5.017845,-1.404802,-0.049358,0.041051,0.956786
2011-09-30T13:16:16.970352,11330,-0.382522,4.730826,-1.385457,-0.052599,0.038456,0.935993
2011-09-30T13:16:16.980352,11340,-0.333434,4.443807,-1.366112,-0.055841,0.035861,0.915199
2011-09-30T13:16:16.990352,11350,-0.284346,4.156787,-1.346767,-0.059082,0.033265,0.894406
2011-09-30T13:16:17.000352,11360,-0.235258,3.869768,-1.327421,-0.062323,0.030670,0.873612
2011-09-30T13:16:17.010352,11370,-0.186170,3.582749,-1.308076,-0.065565,0.028075,0.852818
2011-09-30T13:16:17.020352,11380,-0.137082,3.295729,-1.288731,-0.068806,0.025480,0.832025
2011-09-30T13:16:17.030352,11390,-0.087994,3.008710,-1.269386,-0.072047,0.022885,0.811231
2011-09-30T13:16:17.040352,11400,-0.038906,2.721691,-1.250041,-0.075289,0.020289,0.790438
2011-09-30T13:16:17.050352,11410,0.010182,2.434672,-1.230695,-0.078530,0.017694,0.769644
2011-09-30T13:16:17.060352,11420,0.057864,2.141250,-1.210557,-0.081593,0.015120,0.749986
2011-09-30T13:16:17.070352,11430,0.052276,1.605215,-1.160351,-0.077882,0.013364,0.773364
2011-09-30T13:16:17.080352,11440,0.046688,1.069179,-1.110144,-0.074171,0.011607,0.796742
2011-09-30T13:16:17.090352,11450,0.041100,0.533143,-1.059938,-0.070460,0.009850,0.820120
2011-09-30T13:16:17.100352,11460,0.035512,-0.002893,-1.009731,-0.066749,0.008093,0.843498
2011-09-30T13:16:17.110352,11470,0.029924,-0.538928,-0.959525,-0.063038,0.006336,0.866876
2011-09-30T13:16:17.120352,11480,0.024336,-1.074964,-0.909319,-0.059327,0.004579,0.890254
2011-09-30T13:16:17.130352,11490,0.018748,-1.611000,-0.859112,-0.055616,0.002822,0.913632
2011-09-30T13:16:17.140352,11500,0.013160,-2.147036,-0.808906,-0.051905,0.001065,0.937010
2011-09-30T13:16:17.150352,11510,0.007572,-2.683071,-0.758700,-0.048195,-0.000692,0.960388
2011-09-30T13:16:17.160352,11520,0.003605,-3.204883,-0.709935,-0.044569,-0.002388,0.983408
2011-09-30T13:16:17.170352,11530,0.055299,-3.238227,-0.710688,-0.043872,-0.002005,0.994154
2011-09-30T13:16:17.180352,11540,0.106992,-3.271570,-0.711441,-0.043174,-0.001622,1.004899
2011-09-30T13:16:17.190352,11550,0.158686,-3.304914,-0.712193,-0.042477,-0.001239,1.015644
2011-09-30T13:16:17.200352,11560,0.210380,-3.338258,-0.712946,-0.041779,-0.000856,1.026389
2011-09-30T13:16:17.210352,11570,0.262074,-3.371601,-0.713699,-0.041082,-0.000474,1.037134
2011-09-30T13:16:17.220352,11580,0.313767,-3.404945,-0.714451,-0.040385,-0.000091,1.047879
2011-09-30T13:16:17.230352,11590,0.365461,-3.438289,-0.715204,-0.039687,0.000292,1.058624
2011-09-30T13:16:17.240352,11600,0.417155,-3.471632,-0.715957,-0.038990,0.000675,1.069369
2011-09-30T13:16:17.250352,11610,0.468849,-3.504976,-0.716709,-0.038293,0.001058,1.080114
2011-09-30T13:16:17.260352,11620,0.524455,-3.531518,-0.716694,-0.037555,0.001436,1.090460
2011-09-30T13:16:17.270352,11630,0.710134,-3.331923,-0.691126,-0.035467,0.001650,1.087533
2011-09-30T13:16:17.280352,11640,0.895813,-3.132327,-0.665558,-0.033379,0.001864,1.084607
2011-09-30T13:16:17.290352,11650,1.081491,-2.932732,-0.639991,-0.031292,0.002078,1.081680
2011-09-30T13:16:17.300352,11660,1.267170,-2.733136,-0.614423,-0.029204,0.002292,1.078753
2011-09-30T13:16:17.310352,11670,1.452849,-2.533541,-0.588856,-0.027116,0.002506,1.075826
2011-09-30T13:16:17.320352,11680,1.638528,-2.333946,-0.563288,-0.025028,0.002720,1.072899
2011-09-30T13:16:17.330352,11690,1.824207,-2.134350,-0.537721,-0.022941,0.002934,1.069973
2011-09-30T13:16:17.340352,11700,2.009886,-1.934755,-0.512153,-0.020853,0.003149,1.067046
2011-09-30T13:16:17.350352,11710,2.195564,-1.735159,-0.486585,-0.018765,0.003363,1.064119
2011-09-30T13:16:17.360352,11720,2.381243,-1.535564,-0.461018,-0.016678,0.003577,1.061192
2011-09-30T13:16:17.370352,11730,2.565371,-1.335742,-0.435352,-0.014610,0.003842,1.058259
2011-09-30T13:16:17.380352,11740,2.482955,-1.097108,-0.392863,-0.015929,0.012904,1.054183
2011-09-30T13:16:17.390352,11750,2.400540,-0.858473,-0.350373,-0.017249,0.021966,1.050108
2011-09-30T13:16:17.400352,11760,2.318124,-0.619838,-0.307884,-0.018569,0.031028,1.046032
2011-09-30T13:16:17.410352,11770,2.235709,-0.381204,-0.265394,-0.019889,0.040091,1.041956
2011-09-30T13:16:17.420352,11780,2.153293,-0.142569,-0.222905,-0.021209,0.049153,1.037881
2011-09-30T13:16:17.430352,11790,2.070878,0.096066,-0.180415,-0.022529,0.058215,1.033805
2011-09-30T13:16:17.440352,11800,1.988462,0.334700,-0.137926,-0.023849,0.067277,1.029730
2011-09-30T13:16:17.450352,11810,1.906046,0.573335,-0.095436,-0.025169,0.076339,1.025654
2011-09-30T13:16:17.460352,11820,1.823631,0.811970,-0.052946,-0.026488,0.085401,1.021579
2011-09-30T13:16:17.470352,11830,1.737547,1.045259,-0.010728,-0.027779,0.094172,1.017394
2011-09-30T13:16:17.480352,11840,1.533257,1.106311,0.022746,-0.028143,0.093544,1.009687
2011-09-30T13:16:17.490352,11850,1.328968,1.167362,0.056221,-0.028507,0.092916,1.001981
2011-09-30T13:16:17.500352,11860,1.124679,1.228414,0.089695,-0.028871,0.092288,0.994275
2011-09-30T13:16:17.510352,11870,0.920390,1.289466,0.123170,-0.029235,0.091661,0.986568
2011-09-30T13:16:17.520352,11880,0.716101,1.350518,0.156644,-0.029599,0.091033,0.978862
2011-09-30T13:16:17.530352,11890,0.511811,1.411570,0.190119,-0.029963,0.090405,0.971155
2011-09-30T13:16:17.540352,11900,0.307522,1.472621,0.223593,-0.030327,0.089777,0.963449
2011-09-30T13:16:17.550352,11910,0.103233,1.533673,0.257068,-0.030691,0.089149,0.955743
2011-09-30T13:16:17.560352,11920,-0.101056,1.594725,0.290542,-0.031055,0.088521,0.948036
2011-09-30T13:16:17.570352,11930,-0.299893,1.656163,0.323427,-0.031475,0.087804,0.940723
2011-09-30T13:16:17.580352,11940,-0.302998,1.731445,0.335125,-0.033928,0.083851,0.947522
2011-09-30T13:16:17.590352,11950,-0.306103,1.806728,0.346823,-0.036381,0.079899,0.954322
2011-09-30T13:16:17.600352,11960,-0.309207,1.882011,0.358521,-0.038834,0.075947,0.961121
2011-09-30T13:16:17.610352,11970,-0.312312,1.957294,0.370219,-0.041286,0.071995,0.967921
2011-09-30T13:16:17.620352,11980,-0.315417,2.032576,0.381917,-0.043739,0.068042,0.974720
2011-09-30T13:16:17.630352,11990,-0.318521,2.107859,0.393615,-0.046192,0.064090,0.981519
2011-09-30T13:16:17.640352,12000,-0.321626,2.183142,0.405313,-0.048645,0.060138,0.988319
2011-09-30T13:16:17.650352,12010,-0.324731,2.258425,0.417011,-0.051098,0.056186,0.995118
2011-09-30T13:16:17.660352,12020,-0.327835,2.333707,0.428709,-0.053550,0.052234,1.001918
2011-09-30T13:16:17.670352,12030,-0.330940,2.408990,0.440407,-0.056003,0.048281,1.008717
2011-09-30T13:16:17.680352,12040,-0.337486,2.483508,0.451836,-0.058364,0.044575,1.015280
2011-09-30T13:16:17.690352,12050,-0.459239,2.532438,0.454254,-0.057635,0.049094,1.013930
2011-09-30T13:16:17.700352,12060,-0.580993,2.581368,0.456671,-0.056906,0.053612,1.012581
2011-09-30T13:16:17.710352,12070,-0.702747,2.630298,0.459089,-0.056177,0.058131,1.011231
2011-09-30T13:16:17.720352,12080,-0.824500,2.679228,0.461506,-0.055449,0.062650,1.009881
2011-09-30T13:16:17.730352,12090,-0.946254,2.728157,0.463924,-0.054720,0.067168,1.008531
2011-09-30T13:16:17.740352,12100,-1.068008,2.777087,0.466341,-0.053991,0.071687,1.007181
2011-09-30T13:16:17.750352,12110,-1.189761,2.826017,0.468759,-0.053262,0.076206,1.005832
2011-09-30T13:16:17.760352,12120,-1.311515,2.874947,0.471176,-0.052534,0.080724,1.004482
2011-09-30T13:16:17.770352,12130,-1.433269,2.923877,0.473594,-0.051805,0.085243,1.003132
2011-09-30T13:16:17.780352,12140,-1.559158,2.967661,0.475808,-0.051054,0.089677,1.001631
2011-09-30T13:16:17.790352,12150,-1.828079,2.833491,0.471010,-0.049534,0.091178,0.994911
2011-09-30T13:16:17.800352,12160,-2.096999,2.699321,0.466211,-0.048013,0.092678,0.988191
2011-09-30T13:16:17.810352,12170,-2.365920,2.565151,0.461412,-0.046493,0.094179,0.981470
2011-09-30T13:16:17.820352,12180,-2.634841,2.430981,0.456613,-0.044973,0.095680,0.974750
2011-09-30T13:16:17.830352,12190,-2.903761,2.296810,0.451815,-0.043453,0.097180,0.968030
2011-09-30T13:16:17.840352,12200,-3.172682,2.162640,0.447016,-0.041933,0.098681,0.961309
2011-09-30T13:16:17.850352,12210,-3.441603,2.028470,0.442217,-0.040412,0.100182,0.954589
2011-09-30T13:16:17.860352,12220,-3.710523,1.894300,0.437418,-0.038892,0.101682,0.947869
2011-09-30T13:16:17.870352,12230,-3.979444,1.760130,0.432619,-0.037372,0.103183,0.941148
2011-09-30T13:16:17.880352,12240,-4.248365,1.625960,0.427821,-0.035852,0.104684,0.934428
2011-09-30T13:16:17.890352,12250,-4.511708,1.492066,0.423760,-0.034396,0.105992,0.927911
2011-09-30T13:16:17.900352,12260,-4.408539,1.376321,0.468206,-0.037146,0.094667,0.934757
2011-09-30T13:16:17.910352,12270,-4.305370,1.260577,0.512651,-0.039897,0.083343,0.941602
2011-09-30T13:16:17.920352,12280,-4.202200,1.144832,0.557097,-0.042648,0.072018,0.948447
2011-09-30T13:16:17.930352,12290,-4.099031,1.029088,0.601543,-0.045398,0.060693,0.955292
2011-09-30T13:16:17.940352,12300,-3.995862,0.913343,0.645988,-0.048149,0.049369,0.962138
2011-09-30T13:16:17.950352,12310,-3.892693,0.797599,0.690434,-0.050900,0.038044,0.968983
2011-09-30T13:16:17.960352,12320,-3.789524,0.681854,0.734879,-0.053650,0.026719,0.975828
2011-09-30T13:16:17.970352,12330,-3.686355,0.566110,0.779325,-0.056401,0.015394,0.982674
2011-09-30T13:16:17.980352,12340,-3.583186,0.450365,0.823771,-0.059152,0.004070,0.989519
2011-09-30T13:16:17.990352,12350,-3.471211,0.339309,0.867991,-0.061812,-0.006991,0.996323
2011-09-30T13:16:18.000352,12360,-3.048864,0.393513,0.904289,-0.061296,-0.008744,1.001662
2011-09-30T13:16:18.010352,12370,-2.626517,0.447717,0.940587,-0.060779,-0.010498,1.007001
2011-09-30T13:16:18.020352,12380,-2.204169,0.501921,0.976884,-0.060263,-0.012251,1.012341
2011-09-30T13:16:18.030352,12390,-1.781822,0.556125,1.013182,-0.059746,-0.014004,1.017680
2011-09-30T13:16:18.040352,12400,-1.359474,0.610329,1.049479,-0.059230,-0.015758,1.023019
2011-09-30T13:16:18.050352,12410,-0.937127,0.664533,1.085777,-0.058713,-0.017511,1.028359
2011-09-30T13:16:18.060352,12420,-0.514779,0.718737,1.122074,-0.058197,-0.019265,1.033698
2011-09-30T13:16:18.070352,12430,-0.092432,0.772941,1.158372,-0.057680,-0.021018,1.039037
2011-09-30T13:16:18.080352,12440,0.329916,0.827145,1.194669,-0.057164,-0.022771,1.044377
2011-09-30T13:16:18.090352,12450,0.744955,0.877508,1.231697,-0.056682,-0.024234,1.049324
2011-09-30T13:16:18.100352,12460,0.862778,0.771672,1.298401,-0.057604,-0.013878,1.038335
2011-09-30T13:16:18.110352,12470,0.980602,0.665835,1.365105,-0.058527,-0.003522,1.027346
2011-09-30T13:16:18.120352,12480,1.098425,0.559999,1.431808,-0.059450,0.006833,1.016356
2011-09-30T13:16:18.130352,12490,1.216248,0.454163,1.498512,-0.060372,0.017189,1.005367
2011-09-30T13:16:18.140352,12500,1.334071,0.348327,1.565216,-0.061295,0.027545,0.994378
2011-09-30T13:16:18.150352,12510,1.451894,0.242491,1.631920,-0.062218,0.037901,0.983388
2011-09-30T13:16:18.160352,12520,1.569718,0.136654,1.698624,-0.063141,0.048257,0.972399
2011-09-30T13:16:18.170352,12530,1.687541,0.030818,1.765328,-0.064063,0.058613,0.961410
2011-09-30T13:16:18.180352,12540,1.805364,-0.075018,1.832032,-0.064986,0.068969,0.950421
2011-09-30T13:16:18.190352,12550,1.923187,-0.180854,1.898736,-0.065909,0.079324,0.939431
2011-09-30T13:16:18.200352,12560,2.035023,-0.287337,1.967110,-0.066748,0.089261,0.929018
2011-09-30T13:16:18.210352,12570,1.947094,-0.415395,2.091193,-0.064789,0.085212,0.937816
2011-09-30T13:16:18.220352,12580,1.859165,-0.543453,2.215276,-0.062830,0.081162,0.946614
2011-09-30T13:16:18.230352,12590,1.771236,-0.671511,2.339359,-0.060871,0.077113,0.955412
2011-09-30T13:16:18.240352,12600,1.683307,-0.799569,2.463442,-0.058912,0.073063,0.964210
2011-09-30T13:16:18.250352,12610,1.595379,-0.927627,2.587524,-0.056953,0.069014,0.973008
2011-09-30T13:16:18.260352,12620,1.507450,-1.055685,2.711607,-0.054994,0.064965,0.981807
2011-09-30T13:16:18.270352,12630,1.419521,-1.183743,2.835690,-0.053035,0.060915,0.990605
2011-09-30T13:16:18.280352,12640,1.331592,-1.311801,2.959773,-0.051076,0.056866,0.999403
2011-09-30T13:16:18.290352,12650,1.243663,-1.439859,3.083856,-0.049117,0.052816,1.008201
2011-09-30T13:16:18.300352,12660,1.161588,-1.561307,3.208466,-0.047201,0.048988,1.016944
2011-09-30T13:16:18.310352,12670,1.324709,-1.405891,3.355169,-0.047050,0.054402,1.023357
2011-09-30T13:16:18.320352,12680,1.487831,-1.250475,3.501871,-0.046900,0.059816,1.029770
2011-09-30T13:16:18.330352,12690,1.650953,-1.095059,3.648574,-0.046749,0.065230,1.036183
2011-09-30T13:16:18.340352,12700,1.814074,-0.939643,3.795276,-0.046599,0.070643,1.042596
2011-09-30T13:16:18.350352,12710,1.977196,-0.784226,3.941979,-0.046448,0.076057,1.049010
2011-09-30T13:16:18.360352,12720,2.140318,-0.628810,4.088681,-0.046298,0.081471,1.055423
2011-09-30T13:16:18.370352,12730,2.303439,-0.473394,4.235384,-0.046148,0.086885,1.061836
2011-09-30T13:16:18.380352,12740,2.466561,-0.317978,4.382086,-0.045997,0.092299,1.068249
2011-09-30T13:16:18.390352,12750,2.629683,-0.162561,4.528789,-0.045847,0.097713,1.074662
2011-09-30T13:16:18.400352,12760,2.792241,-0.007873,4.674333,-0.045694,0.103107,1.080892
2011-09-30T13:16:18.410352,12770,2.902752,0.079608,4.712975,-0.045329,0.106670,1.070220
2011-09-30T13:16:18.420352,12780,3.013264,0.167088,4.751617,-0.044964,0.110232,1.059547
2011-09-30T13:16:18.430352,12790,3.123775,0.254569,4.790259,-0.044599,0.113794,1.048874
2011-09-30T13:16:18.440352,12800,3.234287,0.342050,4.828901,-0.044234,0.117357,1.038201
2011-09-30T13:16:18.450352,12810,3.344798,0.429531,4.867543,-0.043869,0.120919,1.027529
2011-09-30T13:16:18.460352,12820,3.455310,0.517012,4.906185,-0.043505,0.124481,1.016856
2011-09-30T13:16:18.470352,12830,3.565821,0.604493,4.944827,-0.043140,0.128043,1.006183
2011-09-30T13:16:18.480352,12840,3.676333,0.691974,4.983469,-0.042775,0.131606,0.995510
2011-09-30T13:16:18.490352,12850,3.786844,0.779455,5.022111,-0.042410,0.135168,0.984838
2011-09-30T13:16:18.500352,12860,3.897356,0.866935,5.060753,-0.042045,0.138730,0.974165
2011-09-30T13:16:18.510352,12870,3.994323,0.948405,5.101332,-0.041689,0.142333,0.963678
2011-09-30T13:16:18.520352,12880,3.556646,0.792568,5.218352,-0.041673,0.147553,0.960527
2011-09-30T13:16:18.530352,12890,3.118968,0.636732,5.335373,-0.041658,0.152772,0.957376
2011-09-30T13:16:18.540352,12900,2.681290,0.480895,5.452393,-0.041643,0.157992,0.954224
2011-09-30T13:16:18.550352,12910,2.243612,0.325059,5.569414,-0.041628,0.163211,0.951073
2011-09-30T13:16:18.560352,12920,1.805935,0.169222,5.686434,-0.041612,0.168431,0.947922
2011-09-30T13:16:18.570352,12930,1.368257,0.013386,5.803454,-0.041597,0.173651,0.944770
2011-09-30T13:16:18.580352,12940,0.930579,-0.142450,5.920475,-0.041582,0.178870,0.941619
2011-09-30T13:16:18.590352,12950,0.492901,-0.298287,6.037495,-0.041567,0.184090,0.938468
2011-09-30T13:16:18.600352,12960,0.055223,-0.454123,6.154516,-0.041551,0.189309,0.935317
2011-09-30T13:16:18.610352,12970,-0.370422,-0.601694,6.269722,-0.041494,0.194345,0.932586
2011-09-30T13:16:18.620352,12980,-0.394650,-0.473513,6.324408,-0.040029,0.193242,0.943896
2011-09-30T13:16:18.630352,12990,-0.418878,-0.345332,6.379094,-0.038563,0.192138,0.955206
2011-09-30T13:16:18.640352,13000,-0.443106,-0.217151,6.433779,-0.037098,0.191035,0.966516
2011-09-30T13:16:18.650352,13010,-0.467333,-0.088970,6.488465,-0.035633,0.189932,0.977826
2011-09-30T13:16:18.660352,13020,-0.491561,0.039211,6.543151,-0.034168,0.188829,0.989136
2011-09-30T13:16:18.670352,13030,-0.515789,0.167392,6.597836,-0.032702,0.187726,1.000446
2011-09-30T13:16:18.680352,13040,-0.540017,0.295573,6.652522,-0.031237,0.186623,1.011756
2011-09-30T13:16:18.690352,13050,-0.564245,0.423754,6.707208,-0.029772,0.185520,1.023066
2011-09-30T13:16:18.700352,13060,-0.588472,0.551934,6.761893,-0.028306,0.184417,1.034376
2011-09-30T13:16:18.710352,13070,-0.612700,0.680115,6.816579,-0.026841,0.183314,1.045686
2011-09-30T13:16:18.720352,13080,-0.635339,0.806952,6.870969,-0.025399,0.182166,1.056433
2011-09-30T13:16:18.730352,13090,-0.605880,0.889701,6.915637,-0.024708,0.179574,1.048738
2011-09-30T13:16:18.740352,13100,-0.576421,0.972450,6.960305,-0.024018,0.176982,1.041042
2011-09-30T13:16:18.750352,13110,-0.546962,1.055199,7.004973,-0.023327,0.174389,1.033347
2011-09-30T13:16:18.760352,13120,-0.517504,1.137948,7.049642,-0.022637,0.171797,1.025651
2011-09-30T13:16:18.770352,13130,-0.488045,1.220698,7.094310,-0.021947,0.169204,1.017955
2011-09-30T13:16:18.780352,13140,-0.458586,1.303447,7.138978,-0.021256,0.166612,1.010260
2011-09-30T13:16:18.790352,13150,-0.429127,1.386196,7.183646,-0.020566,0.164019,1.002564
2011-09-30T13:16:18.800352,13160,-0.399668,1.468945,7.228315,-0.019875,0.161427,0.994868
2011-09-30T13:16:18.810352,13170,-0.370209,1.551694,7.272983,-0.019185,0.158835,0.987173
2011-09-30T13:16:18.820352,13180,-0.341790,1.630014,7.315819,-0.018573,0.156393,0.979690
2011-09-30T13:16:18.830352,13190,-0.352480,1.541778,7.289772,-0.020905,0.159624,0.980202
2011-09-30T13:16:18.840352,13200,-0.363171,1.453542,7.263725,-0.023237,0.162856,0.980715
2011-09-30T13:16:18.850352,13210,-0.373861,1.365307,7.237678,-0.025569,0.166087,0.981227
2011-09-30T13:16:18.860352,13220,-0.384552,1.277071,7.211631,-0.027901,0.169319,0.981740
2011-09-30T13:16:18.870352,13230,-0.395242,1.188835,7.185584,-0.030233,0.172550,0.982252
2011-09-30T13:16:18.880352,13240,-0.405933,1.100600,7.159537,-0.032565,0.175782,0.982765
2011-09-30T13:16:18.890352,13250,-0.416623,1.012364,7.133490,-0.034897,0.179013,0.983277
2011-09-30T13:16:18.900352,13260,-0.427314,0.924128,7.107444,-0.037229,0.182245,0.983790
2011-09-30T13:16:18.910352,13270,-0.438005,0.835892,7.081397,-0.039561,0.185476,0.984302
2011-09-30T13:16:18.920352,13280,-0.448695,0.747657,7.055350,-0.041893,0.188708,0.984815
2011-09-30T13:16:18.930352,13290,-0.342134,0.741440,7.083020,-0.041867,0.185583,0.983954
2011-09-30T13:16:18.940352,13300,-0.234902,0.735692,7.110997,-0.041828,0.182421,0.983085
2011-09-30T13:16:18.950352,13310,-0.127671,0.729945,7.138975,-0.041788,0.179259,0.982216
2011-09-30T13:16:18.960352,13320,-0.020439,0.724197,7.166953,-0.041749,0.176097,0.981347
2011-09-30T13:16:18.970352,13330,0.086793,0.718450,7.194930,-0.041710,0.172936,0.980478
2011-09-30T13:16:18.980352,13340,0.194025,0.712702,7.222908,-0.041671,0.169774,0.979609
2011-09-30T13:16:18.990352,13350,0.301257,0.706954,7.250885,-0.041631,0.166612,0.978740
2011-09-30T13:16:19.000352,13360,0.408488,0.701207,7.278863,-0.041592,0.163450,0.977871
2011-09-30T13:16:19.010352,13370,0.515720,0.695459,7.306841,-0.041553,0.160289,0.977002
2011-09-30T13:16:19.020352,13380,0.622952,0.689712,7.334818,-0.041514,0.157127,0.976132
2011-09-30T13:16:19.030352,13390,0.727102,0.682403,7.362070,-0.041527,0.154138,0.975330
2011-09-30T13:16:19.040352,13400,0.738930,0.628312,7.367588,-0.043120,0.156325,0.976515
2011-09-30T13:16:19.050352,13410,0.750758,0.574221,7.373105,-0.044714,0.158511,0.977701
