pc_time,ts_ms,gyroX,gyroY,gyroZ,accelX,accelY,accelZ
2011-09-26T14:27:16.227585,0,-0.584101,0.256078,2.395630,0.073966,0.061073,1.006965
2011-09-26T14:27:16.237585,10,-0.563378,0.253118,2.400351,0.073111,0.060149,1.004879
2011-09-26T14:27:16.247585,20,-0.542656,0.250159,2.405073,0.072257,0.059226,1.002793
2011-09-26T14:27:16.257585,30,-0.521933,0.247200,2.409794,0.071402,0.058303,1.000707
2011-09-26T14:27:16.267585,40,-0.501210,0.244241,2.414516,0.070547,0.057379,0.998621
2011-09-26T14:27:16.277585,50,-0.480487,0.241282,2.419237,0.069693,0.056456,0.996535
2011-09-26T14:27:16.287585,60,-0.459765,0.238323,2.423959,0.068838,0.055533,0.994449
2011-09-26T14:27:16.297585,70,-0.439042,0.235364,2.428680,0.067984,0.054609,0.992364
2011-09-26T14:27:16.307585,80,-0.418319,0.232405,2.433402,0.067129,0.053686,0.990278
2011-09-26T14:27:16.317585,90,-0.397597,0.229445,2.438123,0.066275,0.052762,0.988192
2011-09-26T14:27:16.327585,100,-0.376874,0.226486,2.442845,0.065420,0.051839,0.986106
2011-09-26T14:27:16.337585,110,-0.356282,0.223402,2.447573,0.064568,0.050918,0.984021
2011-09-26T14:27:16.347585,120,-0.454703,0.106613,2.458588,0.065303,0.052149,0.982914
2011-09-26T14:27:16.357585,130,-0.553124,-0.010176,2.469603,0.066039,0.053381,0.981807
2011-09-26T14:27:16.367585,140,-0.651545,-0.126965,2.480618,0.066775,0.054612,0.980700
2011-09-26T14:27:16.377585,150,-0.749966,-0.243754,2.491633,0.067510,0.055843,0.979593
2011-09-26T14:27:16.387585,160,-0.848387,-0.360543,2.502648,0.068246,0.057075,0.978486
2011-09-26T14:27:16.397585,170,-0.946809,-0.477332,2.513663,0.068982,0.058306,0.977378
2011-09-26T14:27:16.407585,180,-1.045230,-0.594121,2.524678,0.069718,0.059538,0.976271
2011-09-26T14:27:16.417585,190,-1.143651,-0.710910,2.535693,0.070453,0.060769,0.975164
2011-09-26T14:27:16.427585,200,-1.242072,-0.827699,2.546708,0.071189,0.062000,0.974057
2011-09-26T14:27:16.437585,210,-1.340493,-0.944488,2.557722,0.071925,0.063232,0.972950
2011-09-26T14:27:16.447585,220,-1.325478,-1.035789,2.554269,0.072349,0.062348,0.977680
2011-09-26T14:27:16.457585,230,-1.310269,-1.127047,2.550791,0.072773,0.061462,0.982420
2011-09-26T14:27:16.467585,240,-1.295059,-1.218304,2.547313,0.073198,0.060575,0.987160
2011-09-26T14:27:16.477585,250,-1.279850,-1.309562,2.543835,0.073622,0.059688,0.991900
2011-09-26T14:27:16.487585,260,-1.264641,-1.400819,2.540357,0.074046,0.058801,0.996640
2011-09-26T14:27:16.497585,270,-1.249432,-1.492076,2.536879,0.074470,0.057914,1.001380
2011-09-26T14:27:16.507585,280,-1.234222,-1.583334,2.533400,0.074894,0.057027,1.006120
2011-09-26T14:27:16.517585,290,-1.219013,-1.674591,2.529922,0.075318,0.056141,1.010860
2011-09-26T14:27:16.527585,300,-1.203804,-1.765849,2.526444,0.075742,0.055254,1.015600
2011-09-26T14:27:16.537585,310,-1.188595,-1.857106,2.522966,0.076167,0.054367,1.020340
2011-09-26T14:27:16.547585,320,-1.194436,-1.755209,2.542963,0.077843,0.052626,1.023567
2011-09-26T14:27:16.557585,330,-1.200308,-1.653038,2.562993,0.079521,0.050884,1.026793
2011-09-26T14:27:16.567585,340,-1.206180,-1.550866,2.583023,0.081200,0.049142,1.030019
2011-09-26T14:27:16.577585,350,-1.212051,-1.448695,2.603053,0.082878,0.047400,1.033244
2011-09-26T14:27:16.587585,360,-1.217923,-1.346524,2.623083,0.084556,0.045658,1.036470
2011-09-26T14:27:16.597585,370,-1.223794,-1.244353,2.643113,0.086235,0.043916,1.039696
2011-09-26T14:27:16.607585,380,-1.229666,-1.142181,2.663143,0.087913,0.042174,1.042921
2011-09-26T14:27:16.617585,390,-1.235537,-1.040010,2.683173,0.089591,0.040432,1.046147
2011-09-26T14:27:16.627585,400,-1.241409,-0.937839,2.703204,0.091270,0.038689,1.049373
2011-09-26T14:27:16.637585,410,-1.247281,-0.835668,2.723234,0.092948,0.036947,1.052599
2011-09-26T14:27:16.647585,420,-1.253152,-0.733496,2.743264,0.094626,0.035205,1.055824
2011-09-26T14:27:16.657585,430,-1.130528,-0.636536,2.749451,0.093348,0.035608,1.053733
2011-09-26T14:27:16.667585,440,-1.006304,-0.539640,2.755467,0.092034,0.036038,1.051575
2011-09-26T14:27:16.677585,450,-0.882079,-0.442745,2.761482,0.090719,0.036468,1.049417
2011-09-26T14:27:16.687585,460,-0.757854,-0.345849,2.767498,0.089404,0.036898,1.047259
2011-09-26T14:27:16.697585,470,-0.633630,-0.248953,2.773513,0.088089,0.037327,1.045102
2011-09-26T14:27:16.707585,480,-0.509405,-0.152058,2.779528,0.086774,0.037757,1.042944
2011-09-26T14:27:16.717585,490,-0.385180,-0.055162,2.785544,0.085460,0.038187,1.040786
2011-09-26T14:27:16.727585,500,-0.260956,0.041733,2.791559,0.084145,0.038617,1.038628
2011-09-26T14:27:16.737585,510,-0.136731,0.138629,2.797574,0.082830,0.039047,1.036471
2011-09-26T14:27:16.747585,520,-0.012506,0.235524,2.803590,0.081515,0.039476,1.034313
2011-09-26T14:27:16.757585,530,-0.026020,0.195590,2.809498,0.080844,0.040246,1.028469
2011-09-26T14:27:16.767585,540,-0.039574,0.155615,2.815406,0.080173,0.041016,1.022623
2011-09-26T14:27:16.777585,550,-0.053129,0.115640,2.821315,0.079501,0.041786,1.016778
2011-09-26T14:27:16.787585,560,-0.066683,0.075665,2.827223,0.078830,0.042556,1.010933
2011-09-26T14:27:16.797585,570,-0.080237,0.035690,2.833132,0.078159,0.043326,1.005088
2011-09-26T14:27:16.807585,580,-0.093791,-0.004285,2.839040,0.077488,0.044096,0.999243
2011-09-26T14:27:16.817585,590,-0.107345,-0.044260,2.844948,0.076817,0.044866,0.993398
2011-09-26T14:27:16.827585,600,-0.120900,-0.084235,2.850857,0.076145,0.045635,0.987552
2011-09-26T14:27:16.837585,610,-0.134454,-0.124210,2.856765,0.075474,0.046405,0.981707
2011-09-26T14:27:16.847585,620,-0.148008,-0.164185,2.862673,0.074803,0.047175,0.975862
2011-09-26T14:27:16.857585,630,-0.161562,-0.204160,2.868582,0.074132,0.047945,0.970017
2011-09-26T14:27:16.867585,640,-0.130823,-0.302407,2.888610,0.073731,0.048461,0.973415
2011-09-26T14:27:16.877585,650,-0.099928,-0.400860,2.908688,0.073331,0.048976,0.976846
2011-09-26T14:27:16.887585,660,-0.069033,-0.499313,2.928766,0.072932,0.049492,0.980277
2011-09-26T14:27:16.897585,670,-0.038138,-0.597766,2.948844,0.072532,0.050007,0.983708
2011-09-26T14:27:16.907585,680,-0.007243,-0.696219,2.968922,0.072132,0.050522,0.987139
2011-09-26T14:27:16.917585,690,0.023653,-0.794672,2.989000,0.071732,0.051037,0.990570
2011-09-26T14:27:16.927585,700,0.054548,-0.893125,3.009079,0.071333,0.051552,0.994001
2011-09-26T14:27:16.937585,710,0.085443,-0.991578,3.029157,0.070933,0.052068,0.997432
2011-09-26T14:27:16.947585,720,0.116338,-1.090031,3.049235,0.070533,0.052583,1.000863
2011-09-26T14:27:16.957585,730,0.147233,-1.188484,3.069313,0.070134,0.053098,1.004294
2011-09-26T14:27:16.967585,740,0.148253,-1.127574,3.068489,0.070506,0.053868,1.006865
2011-09-26T14:27:16.977585,750,0.149111,-1.065799,3.067553,0.070882,0.054639,1.009431
2011-09-26T14:27:16.987585,760,0.149969,-1.004024,3.066616,0.071259,0.055411,1.011997
2011-09-26T14:27:16.997585,770,0.150827,-0.942250,3.065679,0.071635,0.056182,1.014564
2011-09-26T14:27:17.007585,780,0.151685,-0.880475,3.064742,0.072012,0.056953,1.017130
2011-09-26T14:27:17.017585,790,0.152543,-0.818700,3.063806,0.072388,0.057725,1.019696
2011-09-26T14:27:17.027585,800,0.153401,-0.756926,3.062869,0.072765,0.058496,1.022262
2011-09-26T14:27:17.037585,810,0.154260,-0.695151,3.061932,0.073141,0.059268,1.024828
2011-09-26T14:27:17.047585,820,0.155118,-0.633376,3.060995,0.073518,0.060039,1.027395
2011-09-26T14:27:17.057585,830,0.155750,-0.571505,3.059931,0.073890,0.060813,1.029949
2011-09-26T14:27:17.067585,840,0.101732,-0.486102,3.027885,0.073274,0.062120,1.029685
2011-09-26T14:27:17.077585,850,0.047714,-0.400699,2.995840,0.072659,0.063428,1.029420
2011-09-26T14:27:17.087585,860,-0.006304,-0.315295,2.963794,0.072044,0.064736,1.029155
2011-09-26T14:27:17.097585,870,-0.060323,-0.229892,2.931748,0.071428,0.066044,1.028890
2011-09-26T14:27:17.107585,880,-0.114341,-0.144489,2.899702,0.070813,0.067352,1.028626
2011-09-26T14:27:17.117585,890,-0.168359,-0.059086,2.867657,0.070197,0.068660,1.028361
2011-09-26T14:27:17.127585,900,-0.222377,0.026317,2.835611,0.069582,0.069968,1.028096
2011-09-26T14:27:17.137585,910,-0.276396,0.111720,2.803565,0.068967,0.071276,1.027832
2011-09-26T14:27:17.147585,920,-0.330414,0.197124,2.771519,0.068351,0.072584,1.027567
2011-09-26T14:27:17.157585,930,-0.384432,0.282527,2.739473,0.067736,0.073891,1.027302
2011-09-26T14:27:17.167585,940,-0.404625,0.333665,2.700066,0.067139,0.071844,1.024699
2011-09-26T14:27:17.177585,950,-0.424234,0.384211,2.660530,0.066542,0.069738,1.022055
2011-09-26T14:27:17.187585,960,-0.443842,0.434756,2.620995,0.065946,0.067633,1.019410
2011-09-26T14:27:17.197585,970,-0.463451,0.485302,2.581460,0.065349,0.065527,1.016766
2011-09-26T14:27:17.207585,980,-0.483060,0.535848,2.541925,0.064753,0.063422,1.014122
2011-09-26T14:27:17.217585,990,-0.502668,0.586394,2.502389,0.064156,0.061316,1.011478
2011-09-26T14:27:17.227585,1000,-0.522277,0.636940,2.462854,0.063560,0.059211,1.008834
2011-09-26T14:27:17.237585,1010,-0.541885,0.687485,2.423319,0.062963,0.057105,1.006190
2011-09-26T14:27:17.247585,1020,-0.561494,0.738031,2.383784,0.062367,0.055000,1.003546
2011-09-26T14:27:17.257585,1030,-0.581102,0.788577,2.344249,0.061770,0.052894,1.000902
2011-09-26T14:27:17.267585,1040,-0.600609,0.839024,2.304715,0.061173,0.050791,0.998259
2011-09-26T14:27:17.277585,1050,-0.575840,0.846734,2.265920,0.060015,0.049546,0.996119
2011-09-26T14:27:17.287585,1060,-0.551070,0.854444,2.227125,0.058858,0.048301,0.993979
2011-09-26T14:27:17.297585,1070,-0.526301,0.862153,2.188330,0.057700,0.047057,0.991838
2011-09-26T14:27:17.307585,1080,-0.501532,0.869863,2.149535,0.056543,0.045812,0.989698
2011-09-26T14:27:17.317585,1090,-0.476762,0.877573,2.110740,0.055385,0.044567,0.987558
2011-09-26T14:27:17.327585,1100,-0.451993,0.885282,2.071945,0.054228,0.043323,0.985417
2011-09-26T14:27:17.337585,1110,-0.427224,0.892992,2.033150,0.053070,0.042078,0.983277
2011-09-26T14:27:17.347585,1120,-0.402454,0.900702,1.994355,0.051913,0.040833,0.981137
2011-09-26T14:27:17.357585,1130,-0.377685,0.908411,1.955560,0.050755,0.039589,0.978996
2011-09-26T14:27:17.367585,1140,-0.352916,0.916121,1.916765,0.049598,0.038344,0.976856
2011-09-26T14:27:17.377585,1150,-0.320752,0.844916,1.894447,0.049381,0.036700,0.977800
2011-09-26T14:27:17.387585,1160,-0.288577,0.773586,1.872155,0.049166,0.035056,0.978749
2011-09-26T14:27:17.397585,1170,-0.256401,0.702256,1.849863,0.048950,0.033411,0.979697
2011-09-26T14:27:17.407585,1180,-0.224226,0.630926,1.827571,0.048735,0.031767,0.980646
2011-09-26T14:27:17.417585,1190,-0.192051,0.559595,1.805279,0.048520,0.030122,0.981595
2011-09-26T14:27:17.427585,1200,-0.159875,0.488265,1.782988,0.048304,0.028478,0.982544
2011-09-26T14:27:17.437585,1210,-0.127700,0.416935,1.760696,0.048089,0.026833,0.983492
2011-09-26T14:27:17.447585,1220,-0.095524,0.345605,1.738404,0.047874,0.025189,0.984441
2011-09-26T14:27:17.457585,1230,-0.063349,0.274275,1.716112,0.047658,0.023544,0.985390
2011-09-26T14:27:17.467585,1240,-0.031174,0.202944,1.693821,0.047443,0.021900,0.986339
2011-09-26T14:27:17.477585,1250,0.000985,0.131639,1.671541,0.047228,0.020257,0.987288
2011-09-26T14:27:17.487585,1260,-0.000438,0.111011,1.674730,0.046945,0.021810,0.988808
2011-09-26T14:27:17.497585,1270,-0.001860,0.090382,1.677918,0.046663,0.023363,0.990328
2011-09-26T14:27:17.507585,1280,-0.003283,0.069754,1.681106,0.046380,0.024917,0.991848
2011-09-26T14:27:17.517585,1290,-0.004706,0.049125,1.684295,0.046097,0.026470,0.993368
2011-09-26T14:27:17.527585,1300,-0.006129,0.028497,1.687483,0.045815,0.028023,0.994888
2011-09-26T14:27:17.537585,1310,-0.007552,0.007868,1.690671,0.045532,0.029576,0.996407
2011-09-26T14:27:17.547585,1320,-0.008975,-0.012760,1.693860,0.045250,0.031129,0.997927
2011-09-26T14:27:17.557585,1330,-0.010397,-0.033388,1.697048,0.044967,0.032683,0.999447
2011-09-26T14:27:17.567585,1340,-0.011820,-0.054017,1.700236,0.044685,0.034236,1.000967
2011-09-26T14:27:17.577585,1350,-0.013251,-0.074531,1.703414,0.044402,0.035787,1.002486
2011-09-26T14:27:17.587585,1360,-0.022100,0.009193,1.697328,0.044242,0.035538,1.002542
2011-09-26T14:27:17.597585,1370,-0.030949,0.092916,1.691242,0.044083,0.035288,1.002599
2011-09-26T14:27:17.607585,1380,-0.039798,0.176640,1.685156,0.043923,0.035039,1.002655
2011-09-26T14:27:17.617585,1390,-0.048647,0.260363,1.679070,0.043763,0.034789,1.002712
2011-09-26T14:27:17.627585,1400,-0.057496,0.344087,1.672983,0.043604,0.034540,1.002769
2011-09-26T14:27:17.637585,1410,-0.066344,0.427810,1.666897,0.043444,0.034291,1.002825
2011-09-26T14:27:17.647585,1420,-0.075193,0.511534,1.660811,0.043284,0.034041,1.002882
2011-09-26T14:27:17.657585,1430,-0.084042,0.595257,1.654725,0.043125,0.033792,1.002938
2011-09-26T14:27:17.667585,1440,-0.092891,0.678981,1.648639,0.042965,0.033542,1.002995
2011-09-26T14:27:17.677585,1450,-0.101740,0.762704,1.642552,0.042805,0.033293,1.003052
2011-09-26T14:27:17.687585,1460,-0.154429,0.783009,1.643509,0.042290,0.033718,1.001055
2011-09-26T14:27:17.697585,1470,-0.207212,0.803180,1.644480,0.041773,0.034143,0.999053
2011-09-26T14:27:17.707585,1480,-0.259995,0.823350,1.645451,0.041257,0.034569,0.997052
2011-09-26T14:27:17.717585,1490,-0.312777,0.843520,1.646423,0.040740,0.034995,0.995051
2011-09-26T14:27:17.727585,1500,-0.365560,0.863690,1.647394,0.040224,0.035421,0.993050
2011-09-26T14:27:17.737585,1510,-0.418343,0.883860,1.648365,0.039707,0.035847,0.991049
2011-09-26T14:27:17.747585,1520,-0.471125,0.904030,1.649337,0.039191,0.036273,0.989047
2011-09-26T14:27:17.757585,1530,-0.523908,0.924201,1.650308,0.038674,0.036698,0.987046
2011-09-26T14:27:17.767585,1540,-0.576691,0.944371,1.651279,0.038158,0.037124,0.985045
2011-09-26T14:27:17.777585,1550,-0.629473,0.964541,1.652251,0.037641,0.037550,0.983044
2011-09-26T14:27:17.787585,1560,-0.682256,0.984711,1.653222,0.037125,0.037976,0.981042
2011-09-26T14:27:17.797585,1570,-0.684996,0.949598,1.644105,0.035774,0.037299,0.982008
2011-09-26T14:27:17.807585,1580,-0.687722,0.914469,1.634985,0.034422,0.036622,0.982974
2011-09-26T14:27:17.817585,1590,-0.690448,0.879340,1.625866,0.033071,0.035945,0.983940
2011-09-26T14:27:17.827585,1600,-0.693174,0.844211,1.616746,0.031719,0.035268,0.984906
2011-09-26T14:27:17.837585,1610,-0.695899,0.809082,1.607626,0.030367,0.034590,0.985872
2011-09-26T14:27:17.847585,1620,-0.698625,0.773953,1.598506,0.029016,0.033913,0.986838
2011-09-26T14:27:17.857585,1630,-0.701351,0.738824,1.589387,0.027664,0.033236,0.987804
2011-09-26T14:27:17.867585,1640,-0.704077,0.703695,1.580267,0.026313,0.032559,0.988770
2011-09-26T14:27:17.877585,1650,-0.706803,0.668566,1.571147,0.024961,0.031882,0.989736
2011-09-26T14:27:17.887585,1660,-0.709521,0.633428,1.562031,0.023610,0.031204,0.990702
2011-09-26T14:27:17.897585,1670,-0.686746,0.567108,1.567111,0.022737,0.029904,0.989510
2011-09-26T14:27:17.907585,1680,-0.663970,0.500789,1.572190,0.021863,0.028603,0.988319
2011-09-26T14:27:17.917585,1690,-0.641195,0.434469,1.577270,0.020990,0.027302,0.987128
2011-09-26T14:27:17.927585,1700,-0.618420,0.368149,1.582350,0.020117,0.026002,0.985937
2011-09-26T14:27:17.937585,1710,-0.595645,0.301830,1.587429,0.019244,0.024701,0.984746
2011-09-26T14:27:17.947585,1720,-0.572869,0.235510,1.592509,0.018371,0.023400,0.983555
2011-09-26T14:27:17.957585,1730,-0.550094,0.169191,1.597588,0.017497,0.022100,0.982364
2011-09-26T14:27:17.967585,1740,-0.527319,0.102871,1.602668,0.016624,0.020799,0.981173
2011-09-26T14:27:17.977585,1750,-0.504544,0.036552,1.607747,0.015751,0.019498,0.979981
2011-09-26T14:27:17.987585,1760,-0.481769,-0.029768,1.612827,0.014878,0.018198,0.978790
2011-09-26T14:27:17.997585,1770,-0.386001,-0.104314,1.623199,0.014903,0.017460,0.981788
2011-09-26T14:27:18.007585,1780,-0.290196,-0.178864,1.633574,0.014930,0.016722,0.984788
2011-09-26T14:27:18.017585,1790,-0.194391,-0.253415,1.643948,0.014956,0.015985,0.987789
2011-09-26T14:27:18.027585,1800,-0.098586,-0.327965,1.654323,0.014982,0.015247,0.990789
2011-09-26T14:27:18.037585,1810,-0.002782,-0.402515,1.664698,0.015008,0.014510,0.993789
2011-09-26T14:27:18.047585,1820,0.093023,-0.477066,1.675073,0.015034,0.013772,0.996789
2011-09-26T14:27:18.057585,1830,0.188828,-0.551616,1.685448,0.015060,0.013035,0.999789
2011-09-26T14:27:18.067585,1840,0.284633,-0.626166,1.695822,0.015086,0.012297,1.002790
2011-09-26T14:27:18.077585,1850,0.380438,-0.700717,1.706197,0.015112,0.011560,1.005790
2011-09-26T14:27:18.087585,1860,0.476243,-0.775267,1.716572,0.015138,0.010822,1.008790
2011-09-26T14:27:18.097585,1870,0.572048,-0.849817,1.726947,0.015164,0.010085,1.011790
2011-09-26T14:27:18.107585,1880,0.564616,-0.796758,1.749343,0.015076,0.011700,1.013726
2011-09-26T14:27:18.117585,1890,0.556551,-0.742915,1.771813,0.014987,0.013330,1.015656
2011-09-26T14:27:18.127585,1900,0.548486,-0.689072,1.794282,0.014898,0.014960,1.017585
2011-09-26T14:27:18.137585,1910,0.540421,-0.635229,1.816752,0.014809,0.016591,1.019515
2011-09-26T14:27:18.147585,1920,0.532356,-0.581385,1.839222,0.014720,0.018221,1.021444
2011-09-26T14:27:18.157585,1930,0.524291,-0.527542,1.861692,0.014631,0.019851,1.023374
2011-09-26T14:27:18.167585,1940,0.516226,-0.473699,1.884162,0.014542,0.021481,1.025303
2011-09-26T14:27:18.177585,1950,0.508161,-0.419856,1.906632,0.014453,0.023111,1.027233
2011-09-26T14:27:18.187585,1960,0.500095,-0.366013,1.929101,0.014364,0.024741,1.029163
2011-09-26T14:27:18.197585,1970,0.492030,-0.312170,1.951571,0.014275,0.026371,1.031092
2011-09-26T14:27:18.207585,1980,0.545992,-0.309446,1.980640,0.013796,0.027229,1.029184
2011-09-26T14:27:18.217585,1990,0.601812,-0.308254,2.009907,0.013305,0.028063,1.027160
2011-09-26T14:27:18.227585,2000,0.657633,-0.307063,2.039174,0.012814,0.028898,1.025137
2011-09-26T14:27:18.237585,2010,0.713453,-0.305871,2.068441,0.012323,0.029732,1.023114
2011-09-26T14:27:18.247585,2020,0.769274,-0.304680,2.097708,0.011832,0.030566,1.021090
2011-09-26T14:27:18.257585,2030,0.825094,-0.303488,2.126974,0.011341,0.031401,1.019067
2011-09-26T14:27:18.267585,2040,0.880915,-0.302296,2.156241,0.010850,0.032235,1.017044
2011-09-26T14:27:18.277585,2050,0.936735,-0.301105,2.185508,0.010359,0.033069,1.015020
2011-09-26T14:27:18.287585,2060,0.992556,-0.299913,2.214775,0.009868,0.033904,1.012997
2011-09-26T14:27:18.297585,2070,1.048376,-0.298721,2.244042,0.009377,0.034738,1.010974
2011-09-26T14:27:18.307585,2080,1.042996,-0.288741,2.273893,0.009365,0.036202,1.009921
2011-09-26T14:27:18.317585,2090,1.036917,-0.278660,2.303751,0.009359,0.037674,1.008880
2011-09-26T14:27:18.327585,2100,1.030837,-0.268579,2.333610,0.009353,0.039145,1.007838
2011-09-26T14:27:18.337585,2110,1.024757,-0.258498,2.363468,0.009347,0.040617,1.006797
2011-09-26T14:27:18.347585,2120,1.018677,-0.248417,2.393326,0.009340,0.042088,1.005755
2011-09-26T14:27:18.357585,2130,1.012597,-0.238336,2.423184,0.009334,0.043560,1.004714
2011-09-26T14:27:18.367585,2140,1.006517,-0.228256,2.453043,0.009328,0.045031,1.003673
2011-09-26T14:27:18.377585,2150,1.000438,-0.218175,2.482901,0.009322,0.046502,1.002631
2011-09-26T14:27:18.387585,2160,0.994358,-0.208094,2.512759,0.009316,0.047974,1.001590
2011-09-26T14:27:18.397585,2170,0.988278,-0.198013,2.542617,0.009310,0.049445,1.000548
2011-09-26T14:27:18.407585,2180,0.982198,-0.187932,2.572476,0.009304,0.050917,0.999507
2011-09-26T14:27:18.417585,2190,0.928218,-0.190235,2.582433,0.009817,0.051668,1.001101
2011-09-26T14:27:18.427585,2200,0.873797,-0.192652,2.592208,0.010335,0.052413,1.002720
2011-09-26T14:27:18.437585,2210,0.819377,-0.195069,2.601982,0.010853,0.053157,1.004339
2011-09-26T14:27:18.447585,2220,0.764956,-0.197486,2.611757,0.011372,0.053902,1.005957
2011-09-26T14:27:18.457585,2230,0.710535,-0.199903,2.621531,0.011890,0.054647,1.007576
2011-09-26T14:27:18.467585,2240,0.656115,-0.202320,2.631305,0.012408,0.055391,1.009195
2011-09-26T14:27:18.477585,2250,0.601694,-0.204737,2.641080,0.012926,0.056136,1.010814
2011-09-26T14:27:18.487585,2260,0.547274,-0.207154,2.650854,0.013444,0.056881,1.012432
2011-09-26T14:27:18.497585,2270,0.492853,-0.209571,2.660629,0.013962,0.057625,1.014051
2011-09-26T14:27:18.507585,2280,0.438432,-0.211987,2.670403,0.014481,0.058370,1.015670
2011-09-26T14:27:18.517585,2290,0.416341,-0.204781,2.664513,0.014679,0.059768,1.015002
2011-09-26T14:27:18.527585,2300,0.394461,-0.197512,2.658521,0.014876,0.061170,1.014319
2011-09-26T14:27:18.537585,2310,0.372581,-0.190243,2.652529,0.015072,0.062573,1.013636
2011-09-26T14:27:18.547585,2320,0.350701,-0.182974,2.646537,0.015269,0.063975,1.012953
2011-09-26T14:27:18.557585,2330,0.328821,-0.175705,2.640544,0.015465,0.065377,1.012270
2011-09-26T14:27:18.567585,2340,0.306941,-0.168436,2.634552,0.015662,0.066780,1.011587
2011-09-26T14:27:18.577585,2350,0.285060,-0.161167,2.628560,0.015859,0.068182,1.010904
2011-09-26T14:27:18.587585,2360,0.263180,-0.153897,2.622568,0.016055,0.069585,1.010221
2011-09-26T14:27:18.597585,2370,0.241300,-0.146628,2.616575,0.016252,0.070987,1.009538
2011-09-26T14:27:18.607585,2380,0.219420,-0.139359,2.610583,0.016448,0.072389,1.008856
2011-09-26T14:27:18.617585,2390,0.135480,-0.094735,2.604520,0.015660,0.071305,1.008282
2011-09-26T14:27:18.627585,2400,0.050633,-0.049565,2.598456,0.014857,0.070184,1.007711
2011-09-26T14:27:18.637585,2410,-0.034214,-0.004395,2.592392,0.014054,0.069063,1.007139
2011-09-26T14:27:18.647585,2420,-0.119061,0.040774,2.586328,0.013251,0.067941,1.006568
2011-09-26T14:27:18.657585,2430,-0.203908,0.085944,2.580264,0.012447,0.066820,1.005996
2011-09-26T14:27:18.667585,2440,-0.288755,0.131114,2.574200,0.011644,0.065699,1.005425
2011-09-26T14:27:18.677585,2450,-0.373602,0.176284,2.568136,0.010841,0.064578,1.004853
2011-09-26T14:27:18.687585,2460,-0.458450,0.221454,2.562072,0.010038,0.063457,1.004282
2011-09-26T14:27:18.697585,2470,-0.543297,0.266624,2.556008,0.009235,0.062336,1.003710
2011-09-26T14:27:18.707585,2480,-0.628144,0.311794,2.549944,0.008432,0.061215,1.003139
2011-09-26T14:27:18.717585,2490,-0.712991,0.356964,2.543880,0.007629,0.060094,1.002567
2011-09-26T14:27:18.727585,2500,-0.725780,0.420253,2.535936,0.005573,0.060191,1.001782
2011-09-26T14:27:18.737585,2510,-0.737797,0.483737,2.527972,0.003503,0.060300,1.000995
2011-09-26T14:27:18.747585,2520,-0.749814,0.547220,2.520008,0.001433,0.060410,1.000208
2011-09-26T14:27:18.757585,2530,-0.761832,0.610703,2.512045,-0.000637,0.060519,0.999421
2011-09-26T14:27:18.767585,2540,-0.773849,0.674187,2.504081,-0.002707,0.060628,0.998634
2011-09-26T14:27:18.777585,2550,-0.785866,0.737670,2.496117,-0.004776,0.060738,0.997847
2011-09-26T14:27:18.787585,2560,-0.797883,0.801154,2.488153,-0.006846,0.060847,0.997060
2011-09-26T14:27:18.797585,2570,-0.809901,0.864637,2.480190,-0.008916,0.060957,0.996273
2011-09-26T14:27:18.807585,2580,-0.821918,0.928121,2.472226,-0.010986,0.061066,0.995485
2011-09-26T14:27:18.817585,2590,-0.833935,0.991604,2.464262,-0.013056,0.061176,0.994698
2011-09-26T14:27:18.827585,2600,-0.840682,0.980231,2.457135,-0.013753,0.060722,0.993568
2011-09-26T14:27:18.837585,2610,-0.847380,0.968169,2.450016,-0.014437,0.060263,0.992434
2011-09-26T14:27:18.847585,2620,-0.854078,0.956108,2.442897,-0.015122,0.059805,0.991301
2011-09-26T14:27:18.857585,2630,-0.860776,0.944047,2.435778,-0.015806,0.059346,0.990167
2011-09-26T14:27:18.867585,2640,-0.867474,0.931986,2.428658,-0.016490,0.058887,0.989033
2011-09-26T14:27:18.877585,2650,-0.874172,0.919924,2.421539,-0.017175,0.058429,0.987900
2011-09-26T14:27:18.887585,2660,-0.880870,0.907863,2.414420,-0.017859,0.057970,0.986766
2011-09-26T14:27:18.897585,2670,-0.887568,0.895802,2.407301,-0.018544,0.057511,0.985632
2011-09-26T14:27:18.907585,2680,-0.894266,0.883741,2.400182,-0.019228,0.057052,0.984499
2011-09-26T14:27:18.917585,2690,-0.900964,0.871680,2.393062,-0.019912,0.056594,0.983365
2011-09-26T14:27:18.927585,2700,-0.887961,0.839529,2.402597,-0.020149,0.055927,0.983372
2011-09-26T14:27:18.937585,2710,-0.874716,0.807132,2.412336,-0.020379,0.055258,0.983393
2011-09-26T14:27:18.947585,2720,-0.861471,0.774735,2.422075,-0.020610,0.054589,0.983415
2011-09-26T14:27:18.957585,2730,-0.848226,0.742338,2.431814,-0.020841,0.053921,0.983436
2011-09-26T14:27:18.967585,2740,-0.834981,0.709941,2.441553,-0.021072,0.053252,0.983457
2011-09-26T14:27:18.977585,2750,-0.821736,0.677544,2.451292,-0.021302,0.052583,0.983478
2011-09-26T14:27:18.987585,2760,-0.808491,0.645147,2.461030,-0.021533,0.051914,0.983499
2011-09-26T14:27:18.997585,2770,-0.795246,0.612750,2.470769,-0.021764,0.051245,0.983520
2011-09-26T14:27:19.007585,2780,-0.782001,0.580353,2.480508,-0.021994,0.050576,0.983542
2011-09-26T14:27:19.017585,2790,-0.768756,0.547956,2.490247,-0.022225,0.049907,0.983563
2011-09-26T14:27:19.027585,2800,-0.755511,0.515559,2.499986,-0.022456,0.049238,0.983584
2011-09-26T14:27:19.037585,2810,-0.740652,0.518873,2.496069,-0.022699,0.048222,0.983029
2011-09-26T14:27:19.047585,2820,-0.725777,0.522562,2.492007,-0.022943,0.047202,0.982468
2011-09-26T14:27:19.057585,2830,-0.710901,0.526250,2.487946,-0.023187,0.046183,0.981907
2011-09-26T14:27:19.067585,2840,-0.696025,0.529939,2.483885,-0.023431,0.045163,0.981346
2011-09-26T14:27:19.077585,2850,-0.681150,0.533628,2.479824,-0.023674,0.044143,0.980784
2011-09-26T14:27:19.087585,2860,-0.666274,0.537317,2.475763,-0.023918,0.043124,0.980223
2011-09-26T14:27:19.097585,2870,-0.651398,0.541006,2.471702,-0.024162,0.042104,0.979662
2011-09-26T14:27:19.107585,2880,-0.636523,0.544695,2.467641,-0.024406,0.041085,0.979101
2011-09-26T14:27:19.117585,2890,-0.621647,0.548383,2.463580,-0.024649,0.040065,0.978540
2011-09-26T14:27:19.127585,2900,-0.606771,0.552072,2.459519,-0.024893,0.039045,0.977979
2011-09-26T14:27:19.137585,2910,-0.656698,0.523974,2.471543,-0.025144,0.040212,0.979221
2011-09-26T14:27:19.147585,2920,-0.708226,0.495090,2.483963,-0.025394,0.041432,0.980507
2011-09-26T14:27:19.157585,2930,-0.759753,0.466207,2.496384,-0.025645,0.042652,0.981793
2011-09-26T14:27:19.167585,2940,-0.811280,0.437324,2.508805,-0.025896,0.043873,0.983079
2011-09-26T14:27:19.177585,2950,-0.862808,0.408441,2.521225,-0.026147,0.045093,0.984365
2011-09-26T14:27:19.187585,2960,-0.914335,0.379557,2.533646,-0.026397,0.046313,0.985651
2011-09-26T14:27:19.197585,2970,-0.965862,0.350674,2.546067,-0.026648,0.047534,0.986938
2011-09-26T14:27:19.207585,2980,-1.017389,0.321791,2.558487,-0.026899,0.048754,0.988224
2011-09-26T14:27:19.217585,2990,-1.068917,0.292907,2.570908,-0.027149,0.049975,0.989510
2011-09-26T14:27:19.227585,3000,-1.120444,0.264024,2.583329,-0.027400,0.051195,0.990796
2011-09-26T14:27:19.237585,3010,-1.197389,0.244725,2.578275,-0.027731,0.052126,0.991001
2011-09-26T14:27:19.247585,3020,-1.274546,0.225507,2.573075,-0.028062,0.053055,0.991197
2011-09-26T14:27:19.257585,3030,-1.351703,0.206288,2.567875,-0.028393,0.053984,0.991393
2011-09-26T14:27:19.267585,3040,-1.428861,0.187069,2.562675,-0.028724,0.054913,0.991589
2011-09-26T14:27:19.277585,3050,-1.506018,0.167850,2.557475,-0.029055,0.055842,0.991785
2011-09-26T14:27:19.287585,3060,-1.583175,0.148632,2.552275,-0.029386,0.056771,0.991981
2011-09-26T14:27:19.297585,3070,-1.660333,0.129413,2.547075,-0.029718,0.057700,0.992178
2011-09-26T14:27:19.307585,3080,-1.737490,0.110194,2.541875,-0.030049,0.058628,0.992374
2011-09-26T14:27:19.317585,3090,-1.814647,0.090975,2.536675,-0.030380,0.059557,0.992570
2011-09-26T14:27:19.327585,3100,-1.891805,0.071757,2.531475,-0.030711,0.060486,0.992766
2011-09-26T14:27:19.337585,3110,-1.968962,0.052538,2.526275,-0.031042,0.061415,0.992962
2011-09-26T14:27:19.347585,3120,-2.019570,-0.030656,2.506511,-0.031036,0.059521,0.993257
2011-09-26T14:27:19.357585,3130,-2.069906,-0.114503,2.486599,-0.031026,0.057599,0.993553
2011-09-26T14:27:19.367585,3140,-2.120242,-0.198350,2.466686,-0.031015,0.055676,0.993849
2011-09-26T14:27:19.377585,3150,-2.170578,-0.282197,2.446773,-0.031005,0.053754,0.994145
2011-09-26T14:27:19.387585,3160,-2.220915,-0.366044,2.426861,-0.030995,0.051832,0.994441
2011-09-26T14:27:19.397585,3170,-2.271251,-0.449891,2.406948,-0.030985,0.049909,0.994737
2011-09-26T14:27:19.407585,3180,-2.321587,-0.533738,2.387036,-0.030975,0.047987,0.995034
2011-09-26T14:27:19.417585,3190,-2.371924,-0.617585,2.367123,-0.030965,0.046064,0.995330
2011-09-26T14:27:19.427585,3200,-2.422260,-0.701432,2.347211,-0.030955,0.044142,0.995626
2011-09-26T14:27:19.437585,3210,-2.472596,-0.785279,2.327298,-0.030945,0.042219,0.995922
2011-09-26T14:27:19.447585,3220,-2.440559,-0.825046,2.307880,-0.030792,0.041942,0.997942
2011-09-26T14:27:19.457585,3230,-2.407190,-0.864100,2.288469,-0.030636,0.041691,0.999990
2011-09-26T14:27:19.467585,3240,-2.373822,-0.903155,2.269059,-0.030481,0.041440,1.002038
2011-09-26T14:27:19.477585,3250,-2.340454,-0.942210,2.249648,-0.030325,0.041189,1.004086
2011-09-26T14:27:19.487585,3260,-2.307086,-0.981265,2.230238,-0.030170,0.040938,1.006134
2011-09-26T14:27:19.497585,3270,-2.273718,-1.020320,2.210827,-0.030014,0.040688,1.008182
2011-09-26T14:27:19.507585,3280,-2.240349,-1.059374,2.191417,-0.029859,0.040437,1.010230
2011-09-26T14:27:19.517585,3290,-2.206981,-1.098429,2.172006,-0.029704,0.040186,1.012278
2011-09-26T14:27:19.527585,3300,-2.173613,-1.137484,2.152596,-0.029548,0.039935,1.014326
2011-09-26T14:27:19.537585,3310,-2.140245,-1.176539,2.133185,-0.029393,0.039684,1.016374
2011-09-26T14:27:19.547585,3320,-2.031003,-1.149943,2.125506,-0.028828,0.036105,1.019407
2011-09-26T14:27:19.557585,3330,-1.920861,-1.122568,2.117966,-0.028258,0.032485,1.022452
2011-09-26T14:27:19.567585,3340,-1.810719,-1.095193,2.110426,-0.027689,0.028866,1.025497
2011-09-26T14:27:19.577585,3350,-1.700577,-1.067819,2.102886,-0.027119,0.025247,1.028541
2011-09-26T14:27:19.587585,3360,-1.590436,-1.040444,2.095346,-0.026549,0.021628,1.031586
2011-09-26T14:27:19.597585,3370,-1.480294,-1.013069,2.087806,-0.025980,0.018009,1.034631
2011-09-26T14:27:19.607585,3380,-1.370152,-0.985695,2.080266,-0.025410,0.014390,1.037675
2011-09-26T14:27:19.617585,3390,-1.260010,-0.958320,2.072726,-0.024841,0.010771,1.040720
2011-09-26T14:27:19.627585,3400,-1.149868,-0.930945,2.065186,-0.024271,0.007152,1.043765
2011-09-26T14:27:19.637585,3410,-1.039727,-0.903571,2.057646,-0.023701,0.003533,1.046809
2011-09-26T14:27:19.647585,3420,-0.929585,-0.876196,2.050106,-0.023132,-0.000086,1.049854
2011-09-26T14:27:19.657585,3430,-0.765119,-0.841475,2.052342,-0.022903,-0.000802,1.047002
2011-09-26T14:27:19.667585,3440,-0.598995,-0.806530,2.054876,-0.022685,-0.001429,1.043970
2011-09-26T14:27:19.677585,3450,-0.432872,-0.771586,2.057410,-0.022466,-0.002056,1.040938
2011-09-26T14:27:19.687585,3460,-0.266748,-0.736641,2.059944,-0.022248,-0.002683,1.037905
2011-09-26T14:27:19.697585,3470,-0.100625,-0.701696,2.062478,-0.022030,-0.003310,1.034873
2011-09-26T14:27:19.707585,3480,0.065499,-0.666751,2.065012,-0.021811,-0.003938,1.031841
2011-09-26T14:27:19.717585,3490,0.231623,-0.631806,2.067547,-0.021593,-0.004565,1.028809
2011-09-26T14:27:19.727585,3500,0.397746,-0.596862,2.070081,-0.021375,-0.005192,1.025777
2011-09-26T14:27:19.737585,3510,0.563870,-0.561917,2.072615,-0.021157,-0.005819,1.022745
2011-09-26T14:27:19.747585,3520,0.729994,-0.526972,2.075149,-0.020938,-0.006446,1.019713
2011-09-26T14:27:19.757585,3530,0.828828,-0.488582,2.070188,-0.020598,-0.006199,1.019630
2011-09-26T14:27:19.767585,3540,0.926810,-0.450149,2.065133,-0.020257,-0.005940,1.019584
2011-09-26T14:27:19.777585,3550,1.024792,-0.411715,2.060077,-0.019916,-0.005682,1.019539
2011-09-26T14:27:19.787585,3560,1.122775,-0.373282,2.055022,-0.019575,-0.005423,1.019493
2011-09-26T14:27:19.797585,3570,1.220757,-0.334849,2.049966,-0.019233,-0.005165,1.019447
2011-09-26T14:27:19.807585,3580,1.318739,-0.296415,2.044911,-0.018892,-0.004906,1.019402
2011-09-26T14:27:19.817585,3590,1.416722,-0.257982,2.039855,-0.018551,-0.004647,1.019356
2011-09-26T14:27:19.827585,3600,1.514704,-0.219548,2.034800,-0.018209,-0.004389,1.019311
2011-09-26T14:27:19.837585,3610,1.612686,-0.181115,2.029744,-0.017868,-0.004130,1.019265
2011-09-26T14:27:19.847585,3620,1.710669,-0.142681,2.024689,-0.017527,-0.003872,1.019219
2011-09-26T14:27:19.857585,3630,1.742460,-0.059223,2.005179,-0.018003,-0.002364,1.016320
2011-09-26T14:27:19.867585,3640,1.773278,0.024898,1.985456,-0.018492,-0.000838,1.013378
2011-09-26T14:27:19.877585,3650,1.804095,0.109018,1.965733,-0.018981,0.000688,1.010437
2011-09-26T14:27:19.887585,3660,1.834913,0.193139,1.946010,-0.019469,0.002214,1.007495
2011-09-26T14:27:19.897585,3670,1.865730,0.277260,1.926287,-0.019958,0.003740,1.004554
2011-09-26T14:27:19.907585,3680,1.896548,0.361381,1.906564,-0.020447,0.005266,1.001612
2011-09-26T14:27:19.917585,3690,1.927365,0.445501,1.886842,-0.020936,0.006792,0.998671
2011-09-26T14:27:19.927585,3700,1.958182,0.529622,1.867119,-0.021424,0.008318,0.995730
2011-09-26T14:27:19.937585,3710,1.989000,0.613743,1.847396,-0.021913,0.009844,0.992788
2011-09-26T14:27:19.947585,3720,2.019817,0.697864,1.827673,-0.022402,0.011370,0.989847
2011-09-26T14:27:19.957585,3730,2.050635,0.781984,1.807950,-0.022890,0.012896,0.986905
2011-09-26T14:27:19.967585,3740,2.008604,0.773272,1.779179,-0.023102,0.014976,0.986782
2011-09-26T14:27:19.977585,3750,1.965554,0.763261,1.750282,-0.023309,0.017064,0.986697
2011-09-26T14:27:19.987585,3760,1.922503,0.753250,1.721384,-0.023517,0.019151,0.986613
2011-09-26T14:27:19.997585,3770,1.879453,0.743239,1.692487,-0.023724,0.021239,0.986529
2011-09-26T14:27:20.007585,3780,1.836403,0.733228,1.663589,-0.023931,0.023327,0.986445
2011-09-26T14:27:20.017585,3790,1.793353,0.723217,1.634692,-0.024139,0.025415,0.986361
2011-09-26T14:27:20.027585,3800,1.750303,0.713206,1.605794,-0.024346,0.027503,0.986276
2011-09-26T14:27:20.037585,3810,1.707253,0.703195,1.576897,-0.024554,0.029591,0.986192
2011-09-26T14:27:20.047585,3820,1.664203,0.693184,1.547999,-0.024761,0.031679,0.986108
2011-09-26T14:27:20.057585,3830,1.621153,0.683173,1.519102,-0.024968,0.033766,0.986024
2011-09-26T14:27:20.067585,3840,1.613079,0.616635,1.506560,-0.024823,0.033555,0.985306
2011-09-26T14:27:20.077585,3850,1.605437,0.549400,1.494219,-0.024674,0.033314,0.984580
2011-09-26T14:27:20.087585,3860,1.597795,0.482164,1.481879,-0.024525,0.033074,0.983854
2011-09-26T14:27:20.097585,3870,1.590154,0.414928,1.469539,-0.024376,0.032834,0.983129
2011-09-26T14:27:20.107585,3880,1.582512,0.347692,1.457199,-0.024227,0.032594,0.982403
2011-09-26T14:27:20.117585,3890,1.574870,0.280456,1.444859,-0.024077,0.032353,0.981677
2011-09-26T14:27:20.127585,3900,1.567228,0.213221,1.432519,-0.023928,0.032113,0.980952
2011-09-26T14:27:20.137585,3910,1.559587,0.145985,1.420179,-0.023779,0.031873,0.980226
2011-09-26T14:27:20.147585,3920,1.551945,0.078749,1.407839,-0.023630,0.031633,0.979500
2011-09-26T14:27:20.157585,3930,1.544303,0.011513,1.395498,-0.023480,0.031392,0.978775
2011-09-26T14:27:20.167585,3940,1.491979,-0.014964,1.385501,-0.022846,0.031328,0.979525
2011-09-26T14:27:20.177585,3950,1.438489,-0.040379,1.375564,-0.022199,0.031269,0.980314
2011-09-26T14:27:20.187585,3960,1.384999,-0.065794,1.365627,-0.021552,0.031209,0.981102
2011-09-26T14:27:20.197585,3970,1.331509,-0.091209,1.355690,-0.020905,0.031150,0.981891
2011-09-26T14:27:20.207585,3980,1.278019,-0.116624,1.345754,-0.020258,0.031090,0.982680
2011-09-26T14:27:20.217585,3990,1.224529,-0.142039,1.335817,-0.019611,0.031031,0.983468
2011-09-26T14:27:20.227585,4000,1.171039,-0.167454,1.325880,-0.018964,0.030971,0.984257
2011-09-26T14:27:20.237585,4010,1.117549,-0.192869,1.315943,-0.018317,0.030912,0.985045
2011-09-26T14:27:20.247585,4020,1.064060,-0.218284,1.306007,-0.017669,0.030852,0.985834
2011-09-26T14:27:20.257585,4030,1.010570,-0.243699,1.296070,-0.017022,0.030793,0.986623
2011-09-26T14:27:20.267585,4040,0.957080,-0.269114,1.286133,-0.016375,0.030733,0.987411
2011-09-26T14:27:20.277585,4050,0.884407,-0.264385,1.264050,-0.014692,0.031214,0.988742
2011-09-26T14:27:20.287585,4060,0.811424,-0.259169,1.241771,-0.012991,0.031704,0.990082
2011-09-26T14:27:20.297585,4070,0.738440,-0.253953,1.219492,-0.011290,0.032193,0.991421
2011-09-26T14:27:20.307585,4080,0.665457,-0.248737,1.197213,-0.009590,0.032683,0.992761
2011-09-26T14:27:20.317585,4090,0.592474,-0.243521,1.174934,-0.007889,0.033172,0.994101
2011-09-26T14:27:20.327585,4100,0.519491,-0.238305,1.152654,-0.006189,0.033662,0.995440
2011-09-26T14:27:20.337585,4110,0.446508,-0.233089,1.130375,-0.004488,0.034151,0.996780
2011-09-26T14:27:20.347585,4120,0.373524,-0.227873,1.108096,-0.002788,0.034641,0.998120
2011-09-26T14:27:20.357585,4130,0.300541,-0.222657,1.085817,-0.001087,0.035130,0.999459
2011-09-26T14:27:20.367585,4140,0.227558,-0.217441,1.063537,0.000613,0.035620,1.000799
2011-09-26T14:27:20.377585,4150,0.208611,-0.228780,1.042617,0.001289,0.033953,1.000678
2011-09-26T14:27:20.387585,4160,0.190449,-0.240359,1.021716,0.001949,0.032255,1.000537
2011-09-26T14:27:20.397585,4170,0.172287,-0.251939,1.000815,0.002610,0.030557,1.000395
2011-09-26T14:27:20.407585,4180,0.154124,-0.263518,0.979914,0.003271,0.028859,1.000254
2011-09-26T14:27:20.417585,4190,0.135962,-0.275097,0.959013,0.003931,0.027162,1.000112
2011-09-26T14:27:20.427585,4200,0.117800,-0.286677,0.938112,0.004592,0.025464,0.999971
2011-09-26T14:27:20.437585,4210,0.099637,-0.298256,0.917211,0.005253,0.023766,0.999829
2011-09-26T14:27:20.447585,4220,0.081475,-0.309836,0.896310,0.005913,0.022068,0.999688
2011-09-26T14:27:20.457585,4230,0.063313,-0.321415,0.875409,0.006574,0.020370,0.999546
2011-09-26T14:27:20.467585,4240,0.045151,-0.332995,0.854508,0.007234,0.018672,0.999405
2011-09-26T14:27:20.477585,4250,0.062396,-0.321193,0.848060,0.008021,0.016613,1.000493
2011-09-26T14:27:20.487585,4260,0.080169,-0.309043,0.841827,0.008810,0.014548,1.001600
2011-09-26T14:27:20.497585,4270,0.097943,-0.296892,0.835595,0.009598,0.012484,1.002707
2011-09-26T14:27:20.507585,4280,0.115716,-0.284742,0.829362,0.010387,0.010419,1.003815
2011-09-26T14:27:20.517585,4290,0.133490,-0.272592,0.823129,0.011175,0.008355,1.004922
2011-09-26T14:27:20.527585,4300,0.151263,-0.260442,0.816896,0.011964,0.006290,1.006029
2011-09-26T14:27:20.537585,4310,0.169037,-0.248291,0.810663,0.012752,0.004225,1.007136
2011-09-26T14:27:20.547585,4320,0.186810,-0.236141,0.804431,0.013541,0.002161,1.008243
2011-09-26T14:27:20.557585,4330,0.204584,-0.223991,0.798198,0.014330,0.000096,1.009350
2011-09-26T14:27:20.567585,4340,0.222357,-0.211840,0.791965,0.015118,-0.001968,1.010457
2011-09-26T14:27:20.577585,4350,0.240131,-0.199690,0.785732,0.015907,-0.004033,1.011564
2011-09-26T14:27:20.587585,4360,0.265907,-0.189685,0.776361,0.015530,-0.002778,1.009885
2011-09-26T14:27:20.597585,4370,0.291818,-0.179717,0.766937,0.015134,-0.001468,1.008159
2011-09-26T14:27:20.607585,4380,0.317729,-0.169748,0.757513,0.014738,-0.000157,1.006434
2011-09-26T14:27:20.617585,4390,0.343640,-0.159779,0.748089,0.014341,0.001153,1.004708
2011-09-26T14:27:20.627585,4400,0.369551,-0.149810,0.738665,0.013945,0.002464,1.002983
2011-09-26T14:27:20.637585,4410,0.395462,-0.139842,0.729241,0.013549,0.003774,1.001257
2011-09-26T14:27:20.647585,4420,0.421373,-0.129873,0.719817,0.013153,0.005084,0.999532
2011-09-26T14:27:20.657585,4430,0.447284,-0.119904,0.710393,0.012757,0.006395,0.997806
2011-09-26T14:27:20.667585,4440,0.473195,-0.109935,0.700969,0.012360,0.007705,0.996080
2011-09-26T14:27:20.677585,4450,0.499107,-0.099967,0.691545,0.011964,0.009016,0.994355
2011-09-26T14:27:20.687585,4460,0.433705,-0.164584,0.684934,0.012104,0.009826,0.995219
2011-09-26T14:27:20.697585,4470,0.366296,-0.230840,0.678386,0.012255,0.010624,0.996139
2011-09-26T14:27:20.707585,4480,0.298887,-0.297097,0.671837,0.012406,0.011423,0.997060
2011-09-26T14:27:20.717585,4490,0.231478,-0.363354,0.665288,0.012557,0.012222,0.997980
2011-09-26T14:27:20.727585,4500,0.164069,-0.429610,0.658739,0.012709,0.013021,0.998901
2011-09-26T14:27:20.737585,4510,0.096660,-0.495867,0.652191,0.012860,0.013820,0.999821
2011-09-26T14:27:20.747585,4520,0.029250,-0.562123,0.645642,0.013011,0.014619,1.000742
2011-09-26T14:27:20.757585,4530,-0.038159,-0.628380,0.639093,0.013163,0.015417,1.001663
2011-09-26T14:27:20.767585,4540,-0.105568,-0.694637,0.632544,0.013314,0.016216,1.002583
2011-09-26T14:27:20.777585,4550,-0.172977,-0.760893,0.625996,0.013465,0.017015,1.003504
2011-09-26T14:27:20.787585,4560,-0.187064,-0.785766,0.604055,0.014981,0.016077,1.004489
2011-09-26T14:27:20.797585,4570,-0.200184,-0.809890,0.581836,0.016521,0.015107,1.005475
2011-09-26T14:27:20.807585,4580,-0.213305,-0.834013,0.559617,0.018062,0.014137,1.006461
2011-09-26T14:27:20.817585,4590,-0.226426,-0.858136,0.537398,0.019602,0.013167,1.007448
2011-09-26T14:27:20.827585,4600,-0.239547,-0.882260,0.515179,0.021143,0.012197,1.008434
2011-09-26T14:27:20.837585,4610,-0.252667,-0.906383,0.492959,0.022683,0.011227,1.009420
2011-09-26T14:27:20.847585,4620,-0.265788,-0.930506,0.470740,0.024224,0.010257,1.010407
2011-09-26T14:27:20.857585,4630,-0.278909,-0.954629,0.448521,0.025764,0.009287,1.011393
2011-09-26T14:27:20.867585,4640,-0.292030,-0.978753,0.426302,0.027305,0.008317,1.012379
2011-09-26T14:27:20.877585,4650,-0.305151,-1.002876,0.404083,0.028845,0.007347,1.013366
2011-09-26T14:27:20.887585,4660,-0.318271,-1.026999,0.381863,0.030386,0.006377,1.014352
2011-09-26T14:27:20.897585,4670,-0.361116,-0.938146,0.353924,0.030985,0.005704,1.016840
2011-09-26T14:27:20.907585,4680,-0.404573,-0.846961,0.325867,0.031564,0.005037,1.019359
2011-09-26T14:27:20.917585,4690,-0.448031,-0.755776,0.297810,0.032144,0.004370,1.021877
2011-09-26T14:27:20.927585,4700,-0.491489,-0.664592,0.269753,0.032724,0.003702,1.024396
2011-09-26T14:27:20.937585,4710,-0.534947,-0.573407,0.241696,0.033304,0.003035,1.026915
2011-09-26T14:27:20.947585,4720,-0.578404,-0.482223,0.213639,0.033883,0.002368,1.029433
2011-09-26T14:27:20.957585,4730,-0.621862,-0.391038,0.185582,0.034463,0.001701,1.031952
2011-09-26T14:27:20.967585,4740,-0.665320,-0.299853,0.157524,0.035043,0.001034,1.034471
2011-09-26T14:27:20.977585,4750,-0.708777,-0.208669,0.129467,0.035623,0.000367,1.036989
2011-09-26T14:27:20.987585,4760,-0.752235,-0.117484,0.101410,0.036202,-0.000300,1.039508
2011-09-26T14:27:20.997585,4770,-0.752119,-0.050166,0.075591,0.036402,-0.002276,1.036661
2011-09-26T14:27:21.007585,4780,-0.751237,0.016732,0.049812,0.036595,-0.004275,1.033719
2011-09-26T14:27:21.017585,4790,-0.750354,0.083631,0.024032,0.036788,-0.006274,1.030777
2011-09-26T14:27:21.027585,4800,-0.749472,0.150529,-0.001748,0.036980,-0.008273,1.027836
2011-09-26T14:27:21.037585,4810,-0.748590,0.217427,-0.027527,0.037173,-0.010272,1.024894
2011-09-26T14:27:21.047585,4820,-0.747707,0.284326,-0.053307,0.037366,-0.012271,1.021952
2011-09-26T14:27:21.057585,4830,-0.746825,0.351224,-0.079086,0.037559,-0.014269,1.019011
2011-09-26T14:27:21.067585,4840,-0.745943,0.418122,-0.104866,0.037751,-0.016268,1.016069
2011-09-26T14:27:21.077585,4850,-0.745061,0.485020,-0.130646,0.037944,-0.018267,1.013127
2011-09-26T14:27:21.087585,4860,-0.744178,0.551919,-0.156425,0.038137,-0.020266,1.010186
2011-09-26T14:27:21.097585,4870,-0.656541,0.562820,-0.154299,0.037849,-0.022492,1.007692
2011-09-26T14:27:21.107585,4880,-0.565822,0.571732,-0.151182,0.037544,-0.024727,1.005213
2011-09-26T14:27:21.117585,4890,-0.475104,0.580644,-0.148065,0.037238,-0.026961,1.002735
2011-09-26T14:27:21.127585,4900,-0.384385,0.589556,-0.144948,0.036933,-0.029196,1.000257
2011-09-26T14:27:21.137585,4910,-0.293666,0.598468,-0.141831,0.036628,-0.031430,0.997778
2011-09-26T14:27:21.147585,4920,-0.202947,0.607380,-0.138714,0.036323,-0.033665,0.995300
2011-09-26T14:27:21.157585,4930,-0.112229,0.616292,-0.135596,0.036018,-0.035899,0.992822
2011-09-26T14:27:21.167585,4940,-0.021510,0.625204,-0.132479,0.035712,-0.038134,0.990344
2011-09-26T14:27:21.177585,4950,0.069209,0.634116,-0.129362,0.035407,-0.040368,0.987865
2011-09-26T14:27:21.187585,4960,0.159928,0.643028,-0.126245,0.035102,-0.042603,0.985387
2011-09-26T14:27:21.197585,4970,0.250646,0.651940,-0.123128,0.034797,-0.044838,0.982909
2011-09-26T14:27:21.207585,4980,0.326411,0.549696,-0.112713,0.034402,-0.043568,0.981827
2011-09-26T14:27:21.217585,4990,0.401655,0.443577,-0.102043,0.034004,-0.042177,0.980794
2011-09-26T14:27:21.227585,5000,0.476899,0.337458,-0.091374,0.033605,-0.040785,0.979761
2011-09-26T14:27:21.237585,5010,0.552142,0.231339,-0.080705,0.033207,-0.039394,0.978728
2011-09-26T14:27:21.247585,5020,0.627386,0.125220,-0.070035,0.032809,-0.038002,0.977695
2011-09-26T14:27:21.257585,5030,0.702629,0.019100,-0.059366,0.032411,-0.036611,0.976661
2011-09-26T14:27:21.267585,5040,0.777873,-0.087019,-0.048696,0.032013,-0.035219,0.975628
2011-09-26T14:27:21.277585,5050,0.853116,-0.193138,-0.038027,0.031615,-0.033828,0.974595
2011-09-26T14:27:21.287585,5060,0.928360,-0.299257,-0.027358,0.031217,-0.032436,0.973562
2011-09-26T14:27:21.297585,5070,1.003603,-0.405376,-0.016688,0.030819,-0.031045,0.972529
2011-09-26T14:27:21.307585,5080,1.097072,-0.475042,-0.024968,0.032178,-0.030281,0.976348
2011-09-26T14:27:21.317585,5090,1.190891,-0.544010,-0.033611,0.033571,-0.029529,0.980260
2011-09-26T14:27:21.327585,5100,1.284709,-0.612978,-0.042254,0.034964,-0.028777,0.984172
2011-09-26T14:27:21.337585,5110,1.378527,-0.681945,-0.050897,0.036357,-0.028026,0.988084
2011-09-26T14:27:21.347585,5120,1.472345,-0.750913,-0.059540,0.037750,-0.027274,0.991996
2011-09-26T14:27:21.357585,5130,1.566163,-0.819881,-0.068183,0.039143,-0.026522,0.995908
2011-09-26T14:27:21.367585,5140,1.659981,-0.888848,-0.076825,0.040535,-0.025770,0.999820
2011-09-26T14:27:21.377585,5150,1.753800,-0.957816,-0.085468,0.041928,-0.025018,1.003732
2011-09-26T14:27:21.387585,5160,1.847618,-1.026783,-0.094111,0.043321,-0.024267,1.007644
2011-09-26T14:27:21.397585,5170,1.941436,-1.095751,-0.102754,0.044714,-0.023515,1.011556
2011-09-26T14:27:21.407585,5180,1.938452,-1.024567,-0.123272,0.044841,-0.021871,1.013942
2011-09-26T14:27:21.417585,5190,1.933128,-0.949993,-0.144077,0.044938,-0.020205,1.016291
2011-09-26T14:27:21.427585,5200,1.927803,-0.875420,-0.164882,0.045034,-0.018540,1.018641
2011-09-26T14:27:21.437585,5210,1.922479,-0.800847,-0.185688,0.045130,-0.016874,1.020990
2011-09-26T14:27:21.447585,5220,1.917154,-0.726274,-0.206493,0.045226,-0.015208,1.023339
2011-09-26T14:27:21.457585,5230,1.911830,-0.651701,-0.227298,0.045323,-0.013543,1.025689
2011-09-26T14:27:21.467585,5240,1.906505,-0.577128,-0.248103,0.045419,-0.011877,1.028038
2011-09-26T14:27:21.477585,5250,1.901181,-0.502554,-0.268908,0.045515,-0.010212,1.030387
2011-09-26T14:27:21.487585,5260,1.895857,-0.427981,-0.289713,0.045612,-0.008546,1.032737
2011-09-26T14:27:21.497585,5270,1.890532,-0.353408,-0.310519,0.045708,-0.006880,1.035086
2011-09-26T14:27:21.507585,5280,1.885208,-0.278835,-0.331324,0.045804,-0.005215,1.037435
2011-09-26T14:27:21.517585,5290,1.895626,-0.206625,-0.324742,0.045474,-0.006912,1.033570
2011-09-26T14:27:21.527585,5300,1.906311,-0.134455,-0.317695,0.045136,-0.008666,1.029600
2011-09-26T14:27:21.537585,5310,1.916997,-0.062285,-0.310648,0.044799,-0.010420,1.025629
2011-09-26T14:27:21.547585,5320,1.927683,0.009885,-0.303600,0.044461,-0.012174,1.021659
2011-09-26T14:27:21.557585,5330,1.938368,0.082055,-0.296553,0.044123,-0.013928,1.017688
2011-09-26T14:27:21.567585,5340,1.949054,0.154225,-0.289506,0.043786,-0.015682,1.013718
2011-09-26T14:27:21.577585,5350,1.959739,0.226395,-0.282459,0.043448,-0.017436,1.009747
2011-09-26T14:27:21.587585,5360,1.970425,0.298565,-0.275412,0.043111,-0.019190,1.005777
2011-09-26T14:27:21.597585,5370,1.981110,0.370736,-0.268365,0.042773,-0.020944,1.001806
2011-09-26T14:27:21.607585,5380,1.991796,0.442906,-0.261318,0.042435,-0.022699,0.997835
2011-09-26T14:27:21.617585,5390,1.967128,0.485039,-0.264635,0.041573,-0.020546,0.996716
2011-09-26T14:27:21.627585,5400,1.940867,0.525818,-0.268418,0.040686,-0.018217,0.995725
2011-09-26T14:27:21.637585,5410,1.914606,0.566598,-0.272202,0.039800,-0.015888,0.994734
2011-09-26T14:27:21.647585,5420,1.888346,0.607378,-0.275986,0.038914,-0.013560,0.993742
2011-09-26T14:27:21.657585,5430,1.862085,0.648157,-0.279770,0.038028,-0.011231,0.992751
2011-09-26T14:27:21.667585,5440,1.835824,0.688937,-0.283554,0.037141,-0.008902,0.991760
2011-09-26T14:27:21.677585,5450,1.809563,0.729717,-0.287337,0.036255,-0.006573,0.990769
2011-09-26T14:27:21.687585,5460,1.783302,0.770496,-0.291121,0.035369,-0.004245,0.989778
2011-09-26T14:27:21.697585,5470,1.757041,0.811276,-0.294905,0.034483,-0.001916,0.988787
2011-09-26T14:27:21.707585,5480,1.730781,0.852056,-0.298689,0.033597,0.000413,0.987796
2011-09-26T14:27:21.717585,5490,1.704520,0.892835,-0.302473,0.032710,0.002742,0.986804
2011-09-26T14:27:21.727585,5500,1.646121,0.851676,-0.314088,0.032810,0.002471,0.985981
2011-09-26T14:27:21.737585,5510,1.586915,0.808460,-0.325900,0.032935,0.002135,0.985161
2011-09-26T14:27:21.747585,5520,1.527710,0.765243,-0.337712,0.033059,0.001800,0.984342
2011-09-26T14:27:21.757585,5530,1.468504,0.722027,-0.349524,0.033184,0.001464,0.983522
2011-09-26T14:27:21.767585,5540,1.409299,0.678811,-0.361336,0.033308,0.001128,0.982703
2011-09-26T14:27:21.777585,5550,1.350093,0.635594,-0.373148,0.033433,0.000792,0.981883
2011-09-26T14:27:21.787585,5560,1.290888,0.592378,-0.384960,0.033557,0.000457,0.981064
2011-09-26T14:27:21.797585,5570,1.231682,0.549162,-0.396772,0.033682,0.000121,0.980244
2011-09-26T14:27:21.807585,5580,1.172476,0.505945,-0.408584,0.033806,-0.000215,0.979424
2011-09-26T14:27:21.817585,5590,1.113271,0.462729,-0.420395,0.033931,-0.000550,0.978605
2011-09-26T14:27:21.827585,5600,1.064823,0.519228,-0.431503,0.034143,0.001094,0.980691
2011-09-26T14:27:21.837585,5610,1.016603,0.577836,-0.442595,0.034357,0.002780,0.982839
2011-09-26T14:27:21.847585,5620,0.968382,0.636443,-0.453687,0.034571,0.004466,0.984987
2011-09-26T14:27:21.857585,5630,0.920162,0.695050,-0.464779,0.034784,0.006152,0.987135
2011-09-26T14:27:21.867585,5640,0.871942,0.753658,-0.475872,0.034998,0.007838,0.989283
2011-09-26T14:27:21.877585,5650,0.823721,0.812265,-0.486964,0.035212,0.009524,0.991430
2011-09-26T14:27:21.887585,5660,0.775501,0.870873,-0.498056,0.035426,0.011210,0.993578
2011-09-26T14:27:21.897585,5670,0.727281,0.929480,-0.509148,0.035640,0.012896,0.995726
2011-09-26T14:27:21.907585,5680,0.679060,0.988087,-0.520240,0.035854,0.014582,0.997874
2011-09-26T14:27:21.917585,5690,0.630840,1.046695,-0.531333,0.036068,0.016268,1.000022
2011-09-26T14:27:21.927585,5700,0.516592,1.094265,-0.548584,0.033512,0.014806,0.997307
2011-09-26T14:27:21.937585,5710,0.400504,1.141527,-0.566007,0.030879,0.013257,0.994457
2011-09-26T14:27:21.947585,5720,0.284417,1.188790,-0.583430,0.028247,0.011709,0.991606
2011-09-26T14:27:21.957585,5730,0.168330,1.236053,-0.600853,0.025614,0.010160,0.988756
2011-09-26T14:27:21.967585,5740,0.052242,1.283316,-0.618276,0.022981,0.008611,0.985906
2011-09-26T14:27:21.977585,5750,-0.063845,1.330578,-0.635699,0.020349,0.007062,0.983056
2011-09-26T14:27:21.987585,5760,-0.179932,1.377841,-0.653122,0.017716,0.005513,0.980206
2011-09-26T14:27:21.997585,5770,-0.296020,1.425104,-0.670545,0.015083,0.003964,0.977355
2011-09-26T14:27:22.007585,5780,-0.412107,1.472366,-0.687968,0.012451,0.002415,0.974505
2011-09-26T14:27:22.017585,5790,-0.528194,1.519629,-0.705391,0.009818,0.000866,0.971655
2011-09-26T14:27:22.027585,5800,-0.502378,1.354578,-0.710984,0.007753,-0.000964,0.969421
2011-09-26T14:27:22.037585,5810,-0.473338,1.184703,-0.716309,0.005701,-0.002800,0.967202
2011-09-26T14:27:22.047585,5820,-0.444297,1.014827,-0.721633,0.003649,-0.004637,0.964982
2011-09-26T14:27:22.057585,5830,-0.415257,0.844952,-0.726957,0.001597,-0.006474,0.962763
2011-09-26T14:27:22.067585,5840,-0.386217,0.675077,-0.732282,-0.000455,-0.008310,0.960544
2011-09-26T14:27:22.077585,5850,-0.357176,0.505202,-0.737606,-0.002508,-0.010147,0.958324
2011-09-26T14:27:22.087585,5860,-0.328136,0.335327,-0.742931,-0.004560,-0.011984,0.956105
2011-09-26T14:27:22.097585,5870,-0.299095,0.165451,-0.748255,-0.006612,-0.013820,0.953885
2011-09-26T14:27:22.107585,5880,-0.270055,-0.004424,-0.753580,-0.008664,-0.015657,0.951666
2011-09-26T14:27:22.117585,5890,-0.241015,-0.174299,-0.758904,-0.010716,-0.017493,0.949446
2011-09-26T14:27:22.127585,5900,-0.211974,-0.344174,-0.764229,-0.012768,-0.019330,0.947227
2011-09-26T14:27:22.137585,5910,-0.302980,-0.521153,-0.742666,-0.011529,-0.016178,0.952927
2011-09-26T14:27:22.147585,5920,-0.397191,-0.698322,-0.720385,-0.010201,-0.012893,0.958838
2011-09-26T14:27:22.157585,5930,-0.491401,-0.875491,-0.698105,-0.008874,-0.009607,0.964750
2011-09-26T14:27:22.167585,5940,-0.585612,-1.052659,-0.675824,-0.007547,-0.006322,0.970662
2011-09-26T14:27:22.177585,5950,-0.679822,-1.229828,-0.653543,-0.006220,-0.003037,0.976573
2011-09-26T14:27:22.187585,5960,-0.774033,-1.406996,-0.631263,-0.004893,0.000249,0.982485
2011-09-26T14:27:22.197585,5970,-0.868243,-1.584165,-0.608982,-0.003565,0.003534,0.988396
2011-09-26T14:27:22.207585,5980,-0.962454,-1.761334,-0.586701,-0.002238,0.006819,0.994308
2011-09-26T14:27:22.217585,5990,-1.056664,-1.938502,-0.564421,-0.000911,0.010104,1.000219
2011-09-26T14:27:22.227585,6000,-1.150875,-2.115671,-0.542140,0.000416,0.013390,1.006131
2011-09-26T14:27:22.237585,6010,-1.178683,-2.145631,-0.542418,0.001082,0.011991,1.010063
2011-09-26T14:27:22.247585,6020,-1.205067,-2.172433,-0.543180,0.001734,0.010493,1.013953
2011-09-26T14:27:22.257585,6030,-1.231451,-2.199236,-0.543942,0.002386,0.008994,1.017843
2011-09-26T14:27:22.267585,6040,-1.257835,-2.226038,-0.544705,0.003037,0.007495,1.021733
2011-09-26T14:27:22.277585,6050,-1.284219,-2.252841,-0.545467,0.003689,0.005996,1.025623
2011-09-26T14:27:22.287585,6060,-1.310603,-2.279643,-0.546229,0.004341,0.004497,1.029513
2011-09-26T14:27:22.297585,6070,-1.336986,-2.306446,-0.546991,0.004993,0.002998,1.033404
2011-09-26T14:27:22.307585,6080,-1.363370,-2.333249,-0.547753,0.005645,0.001500,1.037294
2011-09-26T14:27:22.317585,6090,-1.389754,-2.360051,-0.548515,0.006296,0.000001,1.041184
2011-09-26T14:27:22.327585,6100,-1.416138,-2.386854,-0.549277,0.006948,-0.001498,1.045074
2011-09-26T14:27:22.337585,6110,-1.572515,-2.336758,-0.545168,0.007751,-0.001701,1.047008
2011-09-26T14:27:22.347585,6120,-1.732389,-2.284595,-0.540928,0.008557,-0.001869,1.048890
2011-09-26T14:27:22.357585,6130,-1.892263,-2.232431,-0.536688,0.009364,-0.002038,1.050772
2011-09-26T14:27:22.367585,6140,-2.052136,-2.180267,-0.532449,0.010170,-0.002206,1.052654
2011-09-26T14:27:22.377585,6150,-2.212010,-2.128103,-0.528209,0.010977,-0.002374,1.054536
2011-09-26T14:27:22.387585,6160,-2.371884,-2.075939,-0.523969,0.011783,-0.002543,1.056418
2011-09-26T14:27:22.397585,6170,-2.531758,-2.023775,-0.519729,0.012590,-0.002711,1.058300
2011-09-26T14:27:22.407585,6180,-2.691631,-1.971612,-0.515489,0.013397,-0.002879,1.060182
2011-09-26T14:27:22.417585,6190,-2.851505,-1.919448,-0.511249,0.014203,-0.003047,1.062064
2011-09-26T14:27:22.427585,6200,-3.011379,-1.867284,-0.507009,0.015010,-0.003216,1.063946
2011-09-26T14:27:22.437585,6210,-3.171253,-1.815120,-0.502769,0.015816,-0.003384,1.065828
2011-09-26T14:27:22.447585,6220,-2.937490,-1.465056,-0.529943,0.017326,-0.005731,1.068608
2011-09-26T14:27:22.457585,6230,-2.693756,-1.107446,-0.557913,0.018854,-0.008132,1.071410
2011-09-26T14:27:22.467585,6240,-2.450021,-0.749836,-0.585882,0.020382,-0.010534,1.074212
2011-09-26T14:27:22.477585,6250,-2.206287,-0.392225,-0.613852,0.021909,-0.012936,1.077014
2011-09-26T14:27:22.487585,6260,-1.962552,-0.034615,-0.641822,0.023437,-0.015338,1.079816
2011-09-26T14:27:22.497585,6270,-1.718818,0.322995,-0.669791,0.024965,-0.017740,1.082618
2011-09-26T14:27:22.507585,6280,-1.475083,0.680606,-0.697761,0.026493,-0.020141,1.085420
2011-09-26T14:27:22.517585,6290,-1.231349,1.038216,-0.725730,0.028021,-0.022543,1.088222
2011-09-26T14:27:22.527585,6300,-0.987614,1.395826,-0.753700,0.029548,-0.024945,1.091024
2011-09-26T14:27:22.537585,6310,-0.743880,1.753437,-0.781670,0.031076,-0.027347,1.093826
2011-09-26T14:27:22.547585,6320,-0.692603,2.122501,-0.754146,0.028455,-0.030277,1.077167
2011-09-26T14:27:22.557585,6330,-0.645440,2.491810,-0.725437,0.025745,-0.033218,1.060091
2011-09-26T14:27:22.567585,6340,-0.598276,2.861119,-0.696728,0.023035,-0.036159,1.043016
2011-09-26T14:27:22.577585,6350,-0.551113,3.230428,-0.668018,0.020325,-0.039101,1.025940
2011-09-26T14:27:22.587585,6360,-0.503949,3.599737,-0.639309,0.017615,-0.042042,1.008865
2011-09-26T14:27:22.597585,6370,-0.456785,3.969045,-0.610600,0.014905,-0.044984,0.991790
2011-09-26T14:27:22.607585,6380,-0.409622,4.338354,-0.581890,0.012195,-0.047925,0.974714
2011-09-26T14:27:22.617585,6390,-0.362458,4.707663,-0.553181,0.009485,-0.050866,0.957639
2011-09-26T14:27:22.627585,6400,-0.315295,5.076972,-0.524472,0.006775,-0.053808,0.940563
2011-09-26T14:27:22.637585,6410,-0.268131,5.446281,-0.495763,0.004065,-0.056749,0.923488
2011-09-26T14:27:22.647585,6420,0.141294,5.176556,-0.455063,0.001278,-0.061262,0.917717
2011-09-26T14:27:22.657585,6430,0.568157,4.876071,-0.413786,-0.001512,-0.065851,0.912490
2011-09-26T14:27:22.667585,6440,0.995019,4.575587,-0.372509,-0.004302,-0.070440,0.907264
2011-09-26T14:27:22.677585,6450,1.421881,4.275102,-0.331232,-0.007093,-0.075028,0.902037
2011-09-26T14:27:22.687585,6460,1.848744,3.974618,-0.289955,-0.009883,-0.079617,0.896810
2011-09-26T14:27:22.697585,6470,2.275606,3.674133,-0.248678,-0.012674,-0.084206,0.891584
2011-09-26T14:27:22.707585,6480,2.702469,3.373649,-0.207401,-0.015464,-0.088795,0.886357
2011-09-26T14:27:22.717585,6490,3.129331,3.073164,-0.166124,-0.018254,-0.093383,0.881130
2011-09-26T14:27:22.727585,6500,3.556193,2.772680,-0.124847,-0.021045,-0.097972,0.875904
2011-09-26T14:27:22.737585,6510,3.983056,2.472195,-0.083570,-0.023835,-0.102561,0.870677
2011-09-26T14:27:22.747585,6520,4.409918,2.171711,-0.042293,-0.026626,-0.107149,0.865450
2011-09-26T14:27:22.757585,6530,4.566721,1.768437,0.014157,-0.026650,-0.098216,0.874176
2011-09-26T14:27:22.767585,6540,4.716224,1.362385,0.071018,-0.026600,-0.088918,0.883280
2011-09-26T14:27:22.777585,6550,4.865728,0.956333,0.127879,-0.026550,-0.079619,0.892383
2011-09-26T14:27:22.787585,6560,5.015231,0.550281,0.184740,-0.026500,-0.070321,0.901486
2011-09-26T14:27:22.797585,6570,5.164734,0.144229,0.241600,-0.026450,-0.061022,0.910589
2011-09-26T14:27:22.807585,6580,5.314238,-0.261823,0.298461,-0.026400,-0.051724,0.919692
2011-09-26T14:27:22.817585,6590,5.463741,-0.667875,0.355322,-0.026350,-0.042425,0.928795
2011-09-26T14:27:22.827585,6600,5.613244,-1.073927,0.412183,-0.026300,-0.033127,0.937899
2011-09-26T14:27:22.837585,6610,5.762748,-1.479980,0.469044,-0.026250,-0.023828,0.947002
2011-09-26T14:27:22.847585,6620,5.912251,-1.886032,0.525904,-0.026200,-0.014530,0.956105
2011-09-26T14:27:22.857585,6630,5.687200,-2.093294,0.532847,-0.024432,-0.008057,0.966381
2011-09-26T14:27:22.867585,6640,5.450884,-2.294577,0.538288,-0.022612,-0.001670,0.976692
2011-09-26T14:27:22.877585,6650,5.214567,-2.495859,0.543729,-0.020792,0.004718,0.987003
2011-09-26T14:27:22.887585,6660,4.978251,-2.697142,0.549170,-0.018972,0.011105,0.997314
2011-09-26T14:27:22.897585,6670,4.741934,-2.898425,0.554611,-0.017152,0.017493,1.007624
2011-09-26T14:27:22.907585,6680,4.505618,-3.099708,0.560052,-0.015332,0.023880,1.017935
2011-09-26T14:27:22.917585,6690,4.269301,-3.300991,0.565493,-0.013512,0.030268,1.028246
2011-09-26T14:27:22.927585,6700,4.032985,-3.502274,0.570934,-0.011692,0.036655,1.038557
2011-09-26T14:27:22.937585,6710,3.796668,-3.703557,0.576375,-0.009872,0.043043,1.048868
2011-09-26T14:27:22.947585,6720,3.560352,-3.904840,0.581816,-0.008052,0.049430,1.059179
2011-09-26T14:27:22.957585,6730,3.359222,-3.727366,0.543829,-0.006759,0.052807,1.064345
2011-09-26T14:27:22.967585,6740,3.159139,-3.538618,0.504548,-0.005482,0.056094,1.069358
2011-09-26T14:27:22.977585,6750,2.959057,-3.349870,0.465268,-0.004205,0.059381,1.074371
2011-09-26T14:27:22.987585,6760,2.758974,-3.161122,0.425988,-0.002928,0.062668,1.079384
2011-09-26T14:27:22.997585,6770,2.558891,-2.972374,0.386707,-0.001651,0.065955,1.084396
2011-09-26T14:27:23.007585,6780,2.358809,-2.783626,0.347427,-0.000373,0.069242,1.089409
2011-09-26T14:27:23.017585,6790,2.158726,-2.594878,0.308147,0.000904,0.072529,1.094422
2011-09-26T14:27:23.027585,6800,1.958644,-2.406131,0.268866,0.002181,0.075816,1.099435
2011-09-26T14:27:23.037585,6810,1.758561,-2.217383,0.229586,0.003458,0.079103,1.104447
2011-09-26T14:27:23.047585,6820,1.558478,-2.028635,0.190305,0.004735,0.082390,1.109460
2011-09-26T14:27:23.057585,6830,1.358396,-1.839887,0.151025,0.006012,0.085676,1.114473
2011-09-26T14:27:23.067585,6840,1.111428,-1.608530,0.146771,0.005982,0.080603,1.105476
2011-09-26T14:27:23.077585,6850,0.863029,-1.375873,0.143585,0.005912,0.075275,1.096052
2011-09-26T14:27:23.087585,6860,0.614630,-1.143216,0.140399,0.005842,0.069946,1.086627
2011-09-26T14:27:23.097585,6870,0.366231,-0.910559,0.137214,0.005772,0.064618,1.077203
2011-09-26T14:27:23.107585,6880,0.117832,-0.677902,0.134028,0.005702,0.059290,1.067778
2011-09-26T14:27:23.117585,6890,-0.130567,-0.445244,0.130843,0.005631,0.053961,1.058354
2011-09-26T14:27:23.127585,6900,-0.378966,-0.212587,0.127657,0.005561,0.048633,1.048929
2011-09-26T14:27:23.137585,6910,-0.627365,0.020070,0.124471,0.005491,0.043305,1.039505
2011-09-26T14:27:23.147585,6920,-0.875764,0.252727,0.121286,0.005421,0.037976,1.030080
2011-09-26T14:27:23.157585,6930,-1.124163,0.485384,0.118100,0.005351,0.032648,1.020656
2011-09-26T14:27:23.167585,6940,-1.052640,0.574908,0.126573,0.003914,0.030879,1.015214
2011-09-26T14:27:23.177585,6950,-0.967297,0.658250,0.135548,0.002418,0.029264,1.009944
2011-09-26T14:27:23.187585,6960,-0.881955,0.741591,0.144524,0.000921,0.027649,1.004674
2011-09-26T14:27:23.197585,6970,-0.796612,0.824933,0.153500,-0.000575,0.026034,0.999404
2011-09-26T14:27:23.207585,6980,-0.711269,0.908275,0.162476,-0.002071,0.024419,0.994134
2011-09-26T14:27:23.217585,6990,-0.625927,0.991616,0.171452,-0.003567,0.022804,0.988865
2011-09-26T14:27:23.227585,7000,-0.540584,1.074958,0.180428,-0.005063,0.021189,0.983595
2011-09-26T14:27:23.237585,7010,-0.455242,1.158300,0.189404,-0.006560,0.019574,0.978325
2011-09-26T14:27:23.247585,7020,-0.369899,1.241641,0.198380,-0.008056,0.017959,0.973055
2011-09-26T14:27:23.257585,7030,-0.284556,1.324983,0.207356,-0.009552,0.016344,0.967785
2011-09-26T14:27:23.267585,7040,-0.378137,1.290114,0.228154,-0.008744,0.018140,0.969246
2011-09-26T14:27:23.277585,7050,-0.476568,1.252040,0.249274,-0.007874,0.020029,0.970890
2011-09-26T14:27:23.287585,7060,-0.574999,1.213967,0.270393,-0.007004,0.021919,0.972533
2011-09-26T14:27:23.297585,7070,-0.673430,1.175893,0.291513,-0.006134,0.023808,0.974177
2011-09-26T14:27:23.307585,7080,-0.771860,1.137820,0.312632,-0.005264,0.025697,0.975820
2011-09-26T14:27:23.317585,7090,-0.870291,1.099746,0.333751,-0.004394,0.027586,0.977464
2011-09-26T14:27:23.327585,7100,-0.968722,1.061672,0.354871,-0.003524,0.029476,0.979107
2011-09-26T14:27:23.337585,7110,-1.067153,1.023599,0.375990,-0.002654,0.031365,0.980751
2011-09-26T14:27:23.347585,7120,-1.165584,0.985525,0.397109,-0.001784,0.033254,0.982394
2011-09-26T14:27:23.357585,7130,-1.264014,0.947452,0.418229,-0.000913,0.035143,0.984038
2011-09-26T14:27:23.367585,7140,-1.362445,0.909378,0.439348,-0.000043,0.037033,0.985682
2011-09-26T14:27:23.377585,7150,-1.308457,0.881375,0.430317,-0.000609,0.035317,0.985743
2011-09-26T14:27:23.387585,7160,-1.250207,0.853653,0.420442,-0.001216,0.033501,0.985760
2011-09-26T14:27:23.397585,7170,-1.191957,0.825932,0.410568,-0.001822,0.031685,0.985777
2011-09-26T14:27:23.407585,7180,-1.133707,0.798210,0.400694,-0.002429,0.029869,0.985793
2011-09-26T14:27:23.417585,7190,-1.075457,0.770488,0.390819,-0.003035,0.028054,0.985810
2011-09-26T14:27:23.427585,7200,-1.017207,0.742767,0.380945,-0.003641,0.026238,0.985827
2011-09-26T14:27:23.437585,7210,-0.958957,0.715045,0.371070,-0.004248,0.024422,0.985844
2011-09-26T14:27:23.447585,7220,-0.900708,0.687324,0.361196,-0.004854,0.022606,0.985861
2011-09-26T14:27:23.457585,7230,-0.842458,0.659602,0.351322,-0.005460,0.020790,0.985878
2011-09-26T14:27:23.467585,7240,-0.784208,0.631880,0.341447,-0.006067,0.018974,0.985895
2011-09-26T14:27:23.477585,7250,-0.719621,0.599023,0.345081,-0.005485,0.018387,0.984431
2011-09-26T14:27:23.487585,7260,-0.654848,0.566015,0.349112,-0.004867,0.017836,0.982923
2011-09-26T14:27:23.497585,7270,-0.590075,0.533007,0.353142,-0.004250,0.017285,0.981415
2011-09-26T14:27:23.507585,7280,-0.525301,0.499999,0.357173,-0.003633,0.016735,0.979907
2011-09-26T14:27:23.517585,7290,-0.460528,0.466992,0.361203,-0.003016,0.016184,0.978399
2011-09-26T14:27:23.527585,7300,-0.395755,0.433984,0.365234,-0.002399,0.015633,0.976891
2011-09-26T14:27:23.537585,7310,-0.330982,0.400976,0.369264,-0.001782,0.015082,0.975383
2011-09-26T14:27:23.547585,7320,-0.266209,0.367968,0.373295,-0.001165,0.014532,0.973875
2011-09-26T14:27:23.557585,7330,-0.201436,0.334960,0.377325,-0.000548,0.013981,0.972367
2011-09-26T14:27:23.567585,7340,-0.136663,0.301952,0.381356,0.000069,0.013430,0.970859
2011-09-26T14:27:23.577585,7350,0.064001,0.173850,0.384172,0.001281,0.011623,0.975576
2011-09-26T14:27:23.587585,7360,0.268925,0.042767,0.386951,0.002512,0.009777,0.980488
2011-09-26T14:27:23.597585,7370,0.473848,-0.088315,0.389729,0.003742,0.007931,0.985400
2011-09-26T14:27:23.607585,7380,0.678772,-0.219398,0.392507,0.004973,0.006085,0.990312
2011-09-26T14:27:23.617585,7390,0.883696,-0.350481,0.395286,0.006203,0.004239,0.995224
2011-09-26T14:27:23.627585,7400,1.088619,-0.481564,0.398064,0.007434,0.002393,1.000136
2011-09-26T14:27:23.637585,7410,1.293543,-0.612646,0.400843,0.008665,0.000546,1.005048
2011-09-26T14:27:23.647585,7420,1.498467,-0.743729,0.403621,0.009895,-0.001300,1.009960
2011-09-26T14:27:23.657585,7430,1.703390,-0.874812,0.406400,0.011126,-0.003146,1.014872
2011-09-26T14:27:23.667585,7440,1.908314,-1.005895,0.409178,0.012356,-0.004992,1.019784
2011-09-26T14:27:23.677585,7450,2.113238,-1.136978,0.411957,0.013587,-0.006838,1.024696
2011-09-26T14:27:23.687585,7460,2.240236,-1.044517,0.443726,0.013668,-0.005546,1.024933
2011-09-26T14:27:23.697585,7470,2.364509,-0.944240,0.476510,0.013708,-0.004144,1.025007
2011-09-26T14:27:23.707585,7480,2.488782,-0.843962,0.509294,0.013749,-0.002743,1.025081
2011-09-26T14:27:23.717585,7490,2.613055,-0.743684,0.542078,0.013789,-0.001341,1.025155
2011-09-26T14:27:23.727585,7500,2.737328,-0.643406,0.574861,0.013830,0.000061,1.025229
2011-09-26T14:27:23.737585,7510,2.861602,-0.543128,0.607645,0.013871,0.001462,1.025303
2011-09-26T14:27:23.747585,7520,2.985875,-0.442850,0.640429,0.013911,0.002864,1.025377
2011-09-26T14:27:23.757585,7530,3.110148,-0.342573,0.673213,0.013952,0.004266,1.025451
2011-09-26T14:27:23.767585,7540,3.234421,-0.242295,0.705996,0.013992,0.005668,1.025524
2011-09-26T14:27:23.777585,7550,3.358694,-0.142017,0.738780,0.014033,0.007069,1.025598
2011-09-26T14:27:23.787585,7560,3.300374,-0.103758,0.746985,0.012905,0.011188,1.020582
2011-09-26T14:27:23.797585,7570,3.236737,-0.067306,0.754474,0.011744,0.015385,1.015417
2011-09-26T14:27:23.807585,7580,3.173101,-0.030853,0.761963,0.010582,0.019582,1.010252
2011-09-26T14:27:23.817585,7590,3.109464,0.005600,0.769452,0.009420,0.023779,1.005087
2011-09-26T14:27:23.827585,7600,3.045827,0.042052,0.776941,0.008259,0.027976,0.999922
2011-09-26T14:27:23.837585,7610,2.982190,0.078505,0.784430,0.007097,0.032174,0.994758
2011-09-26T14:27:23.847585,7620,2.918553,0.114958,0.791919,0.005935,0.036371,0.989593
2011-09-26T14:27:23.857585,7630,2.854917,0.151411,0.799409,0.004774,0.040568,0.984428
2011-09-26T14:27:23.867585,7640,2.791280,0.187863,0.806898,0.003612,0.044765,0.979263
2011-09-26T14:27:23.877585,7650,2.727643,0.224316,0.814387,0.002451,0.048962,0.974098
2011-09-26T14:27:23.887585,7660,2.593421,0.194855,0.766893,0.002450,0.051224,0.976466
2011-09-26T14:27:23.897585,7670,2.456955,0.163299,0.717651,0.002487,0.053423,0.979073
2011-09-26T14:27:23.907585,7680,2.320489,0.131743,0.668409,0.002524,0.055623,0.981680
2011-09-26T14:27:23.917585,7690,2.184023,0.100187,0.619167,0.002561,0.057822,0.984287
2011-09-26T14:27:23.927585,7700,2.047557,0.068631,0.569925,0.002598,0.060022,0.986895
2011-09-26T14:27:23.937585,7710,1.911091,0.037075,0.520683,0.002634,0.062222,0.989502
2011-09-26T14:27:23.947585,7720,1.774625,0.005519,0.471441,0.002671,0.064421,0.992109
2011-09-26T14:27:23.957585,7730,1.638158,-0.026037,0.422199,0.002708,0.066621,0.994716
2011-09-26T14:27:23.967585,7740,1.501692,-0.057593,0.372958,0.002745,0.068821,0.997323
2011-09-26T14:27:23.977585,7750,1.365226,-0.089149,0.323716,0.002782,0.071020,0.999930
2011-09-26T14:27:23.987585,7760,1.228760,-0.120705,0.274474,0.002818,0.073220,1.002538
2011-09-26T14:27:23.997585,7770,1.141386,-0.071508,0.252295,0.003768,0.071698,1.004186
2011-09-26T14:27:24.007585,7780,1.055636,-0.019640,0.231011,0.004748,0.070054,1.005802
2011-09-26T14:27:24.017585,7790,0.969885,0.032227,0.209727,0.005728,0.068410,1.007418
2011-09-26T14:27:24.027585,7800,0.884134,0.084095,0.188443,0.006708,0.066765,1.009034
2011-09-26T14:27:24.037585,7810,0.798383,0.135962,0.167159,0.007688,0.065121,1.010651
2011-09-26T14:27:24.047585,7820,0.712633,0.187830,0.145875,0.008668,0.063476,1.012267
2011-09-26T14:27:24.057585,7830,0.626882,0.239697,0.124591,0.009647,0.061832,1.013883
2011-09-26T14:27:24.067585,7840,0.541131,0.291565,0.103307,0.010627,0.060187,1.015500
2011-09-26T14:27:24.077585,7850,0.455380,0.343432,0.082023,0.011607,0.058543,1.017116
2011-09-26T14:27:24.087585,7860,0.369630,0.395300,0.060739,0.012587,0.056899,1.018732
2011-09-26T14:27:24.097585,7870,0.316566,0.366456,0.075922,0.012289,0.055343,1.013661
2011-09-26T14:27:24.107585,7880,0.265173,0.333488,0.092967,0.011925,0.053792,1.008249
2011-09-26T14:27:24.117585,7890,0.213780,0.300520,0.110013,0.011561,0.052241,1.002836
2011-09-26T14:27:24.127585,7900,0.162387,0.267552,0.127059,0.011197,0.050690,0.997424
2011-09-26T14:27:24.137585,7910,0.110993,0.234584,0.144105,0.010833,0.049140,0.992012
2011-09-26T14:27:24.147585,7920,0.059600,0.201616,0.161151,0.010469,0.047589,0.986599
2011-09-26T14:27:24.157585,7930,0.008207,0.168648,0.178196,0.010105,0.046038,0.981187
2011-09-26T14:27:24.167585,7940,-0.043187,0.135681,0.195242,0.009742,0.044487,0.975774
2011-09-26T14:27:24.177585,7950,-0.094580,0.102713,0.212288,0.009378,0.042936,0.970362
2011-09-26T14:27:24.187585,7960,-0.145973,0.069745,0.229334,0.009014,0.041385,0.964949
2011-09-26T14:27:24.197585,7970,-0.015140,-0.224816,0.236357,0.008690,0.038772,0.968666
2011-09-26T14:27:24.207585,7980,0.122836,-0.529632,0.242986,0.008368,0.036117,0.972740
2011-09-26T14:27:24.217585,7990,0.260812,-0.834447,0.249616,0.008046,0.033462,0.976814
2011-09-26T14:27:24.227585,8000,0.398788,-1.139262,0.256246,0.007723,0.030807,0.980889
2011-09-26T14:27:24.237585,8010,0.536764,-1.444077,0.262876,0.007401,0.028152,0.984963
2011-09-26T14:27:24.247585,8020,0.674740,-1.748893,0.269506,0.007079,0.025497,0.989038
2011-09-26T14:27:24.257585,8030,0.812716,-2.053708,0.276136,0.006756,0.022842,0.993112
2011-09-26T14:27:24.267585,8040,0.950692,-2.358523,0.282766,0.006434,0.020186,0.997186
2011-09-26T14:27:24.277585,8050,1.088668,-2.663338,0.289396,0.006112,0.017531,1.001261
2011-09-26T14:27:24.287585,8060,1.226644,-2.968154,0.296026,0.005790,0.014876,1.005335
2011-09-26T14:27:24.297585,8070,1.364620,-3.272969,0.302656,0.005467,0.012221,1.009409
2011-09-26T14:27:24.307585,8080,1.439924,-3.391659,0.317032,0.008364,0.014977,1.014164
2011-09-26T14:27:24.317585,8090,1.513069,-3.503937,0.331676,0.011371,0.017919,1.018943
2011-09-26T14:27:24.327585,8100,1.586214,-3.616215,0.346319,0.014378,0.020861,1.023721
2011-09-26T14:27:24.337585,8110,1.659359,-3.728493,0.360963,0.017385,0.023803,1.028499
2011-09-26T14:27:24.347585,8120,1.732504,-3.840771,0.375606,0.020392,0.026745,1.033278
2011-09-26T14:27:24.357585,8130,1.805649,-3.953049,0.390249,0.023399,0.029687,1.038056
2011-09-26T14:27:24.367585,8140,1.878794,-4.065327,0.404893,0.026406,0.032629,1.042834
2011-09-26T14:27:24.377585,8150,1.951938,-4.177605,0.419536,0.029413,0.035571,1.047613
2011-09-26T14:27:24.387585,8160,2.025083,-4.289883,0.434180,0.032420,0.038513,1.052391
2011-09-26T14:27:24.397585,8170,2.098228,-4.402161,0.448823,0.035427,0.041455,1.057169
2011-09-26T14:27:24.407585,8180,1.980833,-3.940434,0.449143,0.036346,0.041723,1.064268
2011-09-26T14:27:24.417585,8190,1.857825,-3.461799,0.449040,0.037203,0.041913,1.071435
2011-09-26T14:27:24.427585,8200,1.734817,-2.983163,0.448937,0.038060,0.042102,1.078601
2011-09-26T14:27:24.437585,8210,1.611809,-2.504528,0.448834,0.038917,0.042292,1.085768
2011-09-26T14:27:24.447585,8220,1.488801,-2.025892,0.448732,0.039774,0.042481,1.092935
2011-09-26T14:27:24.457585,8230,1.365793,-1.547257,0.448629,0.040631,0.042670,1.100102
2011-09-26T14:27:24.467585,8240,1.242785,-1.068621,0.448526,0.041488,0.042860,1.107269
2011-09-26T14:27:24.477585,8250,1.119777,-0.589986,0.448424,0.042345,0.043049,1.114436
2011-09-26T14:27:24.487585,8260,0.996769,-0.111351,0.448321,0.043202,0.043239,1.121603
2011-09-26T14:27:24.497585,8270,0.873761,0.367285,0.448218,0.044059,0.043428,1.128769
2011-09-26T14:27:24.507585,8280,0.798897,0.430448,0.452223,0.042921,0.045048,1.113718
2011-09-26T14:27:24.517585,8290,0.726385,0.473300,0.456429,0.041685,0.046738,1.097581
2011-09-26T14:27:24.527585,8300,0.653874,0.516153,0.460635,0.040450,0.048428,1.081444
2011-09-26T14:27:24.537585,8310,0.581362,0.559005,0.464840,0.039214,0.050118,1.065307
2011-09-26T14:27:24.547585,8320,0.508851,0.601858,0.469046,0.037978,0.051808,1.049170
2011-09-26T14:27:24.557585,8330,0.436340,0.644710,0.473252,0.036742,0.053498,1.033033
2011-09-26T14:27:24.567585,8340,0.363828,0.687563,0.477458,0.035506,0.055188,1.016896
2011-09-26T14:27:24.577585,8350,0.291317,0.730416,0.481663,0.034270,0.056878,1.000759
2011-09-26T14:27:24.587585,8360,0.218805,0.773268,0.485869,0.033035,0.058568,0.984622
2011-09-26T14:27:24.597585,8370,0.146294,0.816121,0.490075,0.031799,0.060258,0.968484
2011-09-26T14:27:24.607585,8380,0.073783,0.858973,0.494280,0.030563,0.061948,0.952347
2011-09-26T14:27:24.617585,8390,-0.014291,0.799768,0.479412,0.031009,0.063620,0.955161
2011-09-26T14:27:24.627585,8400,-0.103182,0.735202,0.463541,0.031544,0.065292,0.958970
2011-09-26T14:27:24.637585,8410,-0.192073,0.670636,0.447670,0.032078,0.066964,0.962778
2011-09-26T14:27:24.647585,8420,-0.280964,0.606070,0.431799,0.032613,0.068636,0.966587
2011-09-26T14:27:24.657585,8430,-0.369855,0.541504,0.415928,0.033147,0.070308,0.970396
2011-09-26T14:27:24.667585,8440,-0.458746,0.476939,0.400057,0.033682,0.071980,0.974205
2011-09-26T14:27:24.677585,8450,-0.547637,0.412373,0.384187,0.034216,0.073652,0.978013
2011-09-26T14:27:24.687585,8460,-0.636528,0.347807,0.368316,0.034751,0.075324,0.981822
2011-09-26T14:27:24.697585,8470,-0.725419,0.283241,0.352445,0.035285,0.076996,0.985631
2011-09-26T14:27:24.707585,8480,-0.814310,0.218675,0.336574,0.035820,0.078668,0.989440
2011-09-26T14:27:24.717585,8490,-0.905764,0.327688,0.312745,0.035563,0.076649,0.990367
2011-09-26T14:27:24.727585,8500,-0.997316,0.443367,0.288609,0.035277,0.074487,0.991184
2011-09-26T14:27:24.737585,8510,-1.088867,0.559046,0.264474,0.034990,0.072326,0.992001
2011-09-26T14:27:24.747585,8520,-1.180419,0.674725,0.240339,0.034704,0.070164,0.992818
2011-09-26T14:27:24.757585,8530,-1.271971,0.790404,0.216203,0.034417,0.068003,0.993635
2011-09-26T14:27:24.767585,8540,-1.363522,0.906083,0.192068,0.034130,0.065842,0.994452
2011-09-26T14:27:24.777585,8550,-1.455074,1.021762,0.167933,0.033844,0.063680,0.995269
2011-09-26T14:27:24.787585,8560,-1.546626,1.137441,0.143797,0.033557,0.061519,0.996086
2011-09-26T14:27:24.797585,8570,-1.638178,1.253121,0.119662,0.033270,0.059357,0.996903
2011-09-26T14:27:24.807585,8580,-1.729729,1.368800,0.095527,0.032984,0.057196,0.997720
2011-09-26T14:27:24.817585,8590,-1.677092,1.445749,0.084525,0.032216,0.054151,0.994843
2011-09-26T14:27:24.827585,8600,-1.619099,1.521260,0.074011,0.031431,0.051074,0.991829
2011-09-26T14:27:24.837585,8610,-1.561106,1.596771,0.063497,0.030645,0.047996,0.988815
2011-09-26T14:27:24.847585,8620,-1.503113,1.672282,0.052983,0.029859,0.044918,0.985801
2011-09-26T14:27:24.857585,8630,-1.445120,1.747793,0.042469,0.029074,0.041841,0.982787
2011-09-26T14:27:24.867585,8640,-1.387127,1.823304,0.031955,0.028288,0.038763,0.979773
2011-09-26T14:27:24.877585,8650,-1.329134,1.898814,0.021441,0.027503,0.035685,0.976759
2011-09-26T14:27:24.887585,8660,-1.271140,1.974325,0.010927,0.026717,0.032608,0.973745
2011-09-26T14:27:24.897585,8670,-1.213147,2.049836,0.000413,0.025932,0.029530,0.970731
2011-09-26T14:27:24.907585,8680,-1.155154,2.125347,-0.010101,0.025146,0.026452,0.967717
2011-09-26T14:27:24.917585,8690,-1.097161,2.200858,-0.020615,0.024360,0.023375,0.964703
2011-09-26T14:27:24.927585,8700,-0.982181,2.116248,-0.015187,0.023886,0.023913,0.960913
2011-09-26T14:27:24.937585,8710,-0.864760,2.024777,-0.009076,0.023424,0.024607,0.957091
2011-09-26T14:27:24.947585,8720,-0.747338,1.933305,-0.002965,0.022963,0.025301,0.953268
2011-09-26T14:27:24.957585,8730,-0.629917,1.841834,0.003146,0.022501,0.025994,0.949446
2011-09-26T14:27:24.967585,8740,-0.512495,1.750363,0.009257,0.022040,0.026688,0.945623
2011-09-26T14:27:24.977585,8750,-0.395074,1.658892,0.015368,0.021578,0.027381,0.941800
2011-09-26T14:27:24.987585,8760,-0.277652,1.567421,0.021479,0.021117,0.028075,0.937978
2011-09-26T14:27:24.997585,8770,-0.160230,1.475949,0.027590,0.020655,0.028769,0.934155
2011-09-26T14:27:25.007585,8780,-0.042809,1.384478,0.033702,0.020194,0.029462,0.930333
2011-09-26T14:27:25.017585,8790,0.074613,1.293007,0.039813,0.019732,0.030156,0.926510
2011-09-26T14:27:25.027585,8800,0.119152,1.138656,0.055953,0.019952,0.032137,0.928573
2011-09-26T14:27:25.037585,8810,0.160936,0.981927,0.072473,0.020197,0.034167,0.930858
2011-09-26T14:27:25.047585,8820,0.202719,0.825199,0.088993,0.020442,0.036197,0.933143
2011-09-26T14:27:25.057585,8830,0.244503,0.668471,0.105513,0.020687,0.038227,0.935428
2011-09-26T14:27:25.067585,8840,0.286287,0.511742,0.122033,0.020932,0.040257,0.937714
2011-09-26T14:27:25.077585,8850,0.328071,0.355014,0.138553,0.021177,0.042287,0.939999
2011-09-26T14:27:25.087585,8860,0.369855,0.198285,0.155073,0.021422,0.044317,0.942284
2011-09-26T14:27:25.097585,8870,0.411639,0.041557,0.171593,0.021667,0.046347,0.944569
2011-09-26T14:27:25.107585,8880,0.453423,-0.115171,0.188113,0.021912,0.048377,0.946855
2011-09-26T14:27:25.117585,8890,0.495207,-0.271900,0.204633,0.022157,0.050406,0.949140
2011-09-26T14:27:25.127585,8900,0.511922,-0.349684,0.203885,0.023156,0.049623,0.955058
2011-09-26T14:27:25.137585,8910,0.527089,-0.422589,0.202070,0.024201,0.048666,0.961200
2011-09-26T14:27:25.147585,8920,0.542256,-0.495494,0.200255,0.025246,0.047709,0.967343
2011-09-26T14:27:25.157585,8930,0.557423,-0.568399,0.198440,0.026290,0.046752,0.973485
2011-09-26T14:27:25.167585,8940,0.572589,-0.641304,0.196625,0.027335,0.045795,0.979628
2011-09-26T14:27:25.177585,8950,0.587756,-0.714209,0.194810,0.028380,0.044838,0.985770
2011-09-26T14:27:25.187585,8960,0.602923,-0.787114,0.192995,0.029425,0.043881,0.991913
2011-09-26T14:27:25.197585,8970,0.618090,-0.860019,0.191180,0.030470,0.042924,0.998055
2011-09-26T14:27:25.207585,8980,0.633256,-0.932924,0.189364,0.031515,0.041967,1.004198
2011-09-26T14:27:25.217585,8990,0.648423,-1.005829,0.187549,0.032560,0.041010,1.010340
2011-09-26T14:27:25.227585,9000,0.663590,-1.078734,0.185734,0.033605,0.040053,1.016483
2011-09-26T14:27:25.237585,9010,0.652709,-0.991341,0.167573,0.034574,0.040119,1.017705
2011-09-26T14:27:25.247585,9020,0.640756,-0.897354,0.148739,0.035539,0.040226,1.018726
2011-09-26T14:27:25.257585,9030,0.628804,-0.803368,0.129905,0.036505,0.040333,1.019746
2011-09-26T14:27:25.267585,9040,0.616851,-0.709382,0.111071,0.037471,0.040441,1.020766
2011-09-26T14:27:25.277585,9050,0.604899,-0.615396,0.092237,0.038437,0.040548,1.021786
2011-09-26T14:27:25.287585,9060,0.592946,-0.521410,0.073404,0.039402,0.040656,1.022806
2011-09-26T14:27:25.297585,9070,0.580994,-0.427424,0.054570,0.040368,0.040763,1.023826
2011-09-26T14:27:25.307585,9080,0.569041,-0.333438,0.035736,0.041334,0.040870,1.024847
2011-09-26T14:27:25.317585,9090,0.557089,-0.239452,0.016902,0.042300,0.040978,1.025867
2011-09-26T14:27:25.327585,9100,0.545136,-0.145465,-0.001932,0.043265,0.041085,1.026887
2011-09-26T14:27:25.337585,9110,0.557973,-0.081806,-0.015484,0.042311,0.041476,1.024979
2011-09-26T14:27:25.347585,9120,0.571832,-0.019397,-0.028819,0.041278,0.041880,1.022951
2011-09-26T14:27:25.357585,9130,0.585692,0.043012,-0.042154,0.040245,0.042283,1.020923
2011-09-26T14:27:25.367585,9140,0.599551,0.105422,-0.055489,0.039212,0.042686,1.018895
2011-09-26T14:27:25.377585,9150,0.613410,0.167831,-0.068824,0.038179,0.043089,1.016866
2011-09-26T14:27:25.387585,9160,0.627270,0.230240,-0.082159,0.037146,0.043492,1.014838
2011-09-26T14:27:25.397585,9170,0.641129,0.292649,-0.095494,0.036113,0.043895,1.012810
2011-09-26T14:27:25.407585,9180,0.654988,0.355058,-0.108828,0.035080,0.044298,1.010782
2011-09-26T14:27:25.417585,9190,0.668848,0.417467,-0.122163,0.034047,0.044701,1.008754
2011-09-26T14:27:25.427585,9200,0.682707,0.479877,-0.135498,0.033014,0.045104,1.006725
2011-09-26T14:27:25.437585,9210,0.672322,0.452596,-0.135341,0.033343,0.043927,1.006466
2011-09-26T14:27:25.447585,9220,0.661045,0.422014,-0.134687,0.033722,0.042691,1.006271
2011-09-26T14:27:25.457585,9230,0.649768,0.391432,-0.134034,0.034100,0.041455,1.006076
2011-09-26T14:27:25.467585,9240,0.638492,0.360850,-0.133380,0.034479,0.040219,1.005882
2011-09-26T14:27:25.477585,9250,0.627215,0.330268,-0.132726,0.034857,0.038984,1.005687
2011-09-26T14:27:25.487585,9260,0.615938,0.299687,-0.132073,0.035236,0.037748,1.005492
2011-09-26T14:27:25.497585,9270,0.604661,0.269105,-0.131419,0.035615,0.036512,1.005298
2011-09-26T14:27:25.507585,9280,0.593384,0.238523,-0.130765,0.035993,0.035276,1.005103
2011-09-26T14:27:25.517585,9290,0.582107,0.207941,-0.130112,0.036372,0.034041,1.004908
2011-09-26T14:27:25.527585,9300,0.570830,0.177359,-0.129458,0.036750,0.032805,1.004714
2011-09-26T14:27:25.537585,9310,0.559554,0.146777,-0.128804,0.037129,0.031569,1.004519
2011-09-26T14:27:25.547585,9320,0.607527,0.174121,-0.126353,0.037410,0.032369,1.001801
2011-09-26T14:27:25.557585,9330,0.657700,0.203615,-0.123835,0.037687,0.033245,0.998989
2011-09-26T14:27:25.567585,9340,0.707873,0.233109,-0.121317,0.037964,0.034121,0.996178
2011-09-26T14:27:25.577585,9350,0.758046,0.262602,-0.118799,0.038240,0.034997,0.993366
2011-09-26T14:27:25.587585,9360,0.808220,0.292096,-0.116281,0.038517,0.035873,0.990555
2011-09-26T14:27:25.597585,9370,0.858393,0.321590,-0.113763,0.038794,0.036749,0.987743
2011-09-26T14:27:25.607585,9380,0.908566,0.351084,-0.111245,0.039071,0.037625,0.984931
2011-09-26T14:27:25.617585,9390,0.958739,0.380577,-0.108727,0.039348,0.038501,0.982120
2011-09-26T14:27:25.627585,9400,1.008912,0.410071,-0.106209,0.039625,0.039377,0.979308
2011-09-26T14:27:25.637585,9410,1.059085,0.439565,-0.103691,0.039902,0.040253,0.976496
2011-09-26T14:27:25.647585,9420,1.139387,0.480080,-0.106487,0.039658,0.038636,0.976216
2011-09-26T14:27:25.657585,9430,1.221537,0.521271,-0.109608,0.039381,0.036866,0.976090
2011-09-26T14:27:25.667585,9440,1.303687,0.562462,-0.112730,0.039105,0.035096,0.975965
2011-09-26T14:27:25.677585,9450,1.385838,0.603654,-0.115851,0.038828,0.033326,0.975840
2011-09-26T14:27:25.687585,9460,1.467988,0.644845,-0.118972,0.038552,0.031557,0.975714
2011-09-26T14:27:25.697585,9470,1.550138,0.686036,-0.122094,0.038275,0.029787,0.975589
2011-09-26T14:27:25.707585,9480,1.632289,0.727228,-0.125215,0.037999,0.028017,0.975464
2011-09-26T14:27:25.717585,9490,1.714439,0.768419,-0.128337,0.037722,0.026247,0.975338
2011-09-26T14:27:25.727585,9500,1.796590,0.809610,-0.131458,0.037446,0.024477,0.975213
2011-09-26T14:27:25.737585,9510,1.878740,0.850801,-0.134580,0.037169,0.022707,0.975087
2011-09-26T14:27:25.747585,9520,1.863683,0.778891,-0.131359,0.037163,0.024278,0.975695
2011-09-26T14:27:25.757585,9530,1.844784,0.702511,-0.127889,0.037167,0.025982,0.976331
2011-09-26T14:27:25.767585,9540,1.825886,0.626131,-0.124418,0.037171,0.027686,0.976968
2011-09-26T14:27:25.777585,9550,1.806987,0.549751,-0.120947,0.037175,0.029389,0.977604
2011-09-26T14:27:25.787585,9560,1.788089,0.473371,-0.117476,0.037179,0.031093,0.978241
2011-09-26T14:27:25.797585,9570,1.769190,0.396992,-0.114006,0.037184,0.032797,0.978877
2011-09-26T14:27:25.807585,9580,1.750292,0.320612,-0.110535,0.037188,0.034501,0.979514
2011-09-26T14:27:25.817585,9590,1.731393,0.244232,-0.107064,0.037192,0.036204,0.980150
2011-09-26T14:27:25.827585,9600,1.712495,0.167852,-0.103594,0.037196,0.037908,0.980787
2011-09-26T14:27:25.837585,9610,1.693596,0.091472,-0.100123,0.037200,0.039612,0.981424
2011-09-26T14:27:25.847585,9620,1.674698,0.015092,-0.096652,0.037204,0.041316,0.982060
2011-09-26T14:27:25.857585,9630,1.705435,-0.065820,-0.101106,0.037115,0.040299,0.983960
2011-09-26T14:27:25.867585,9640,1.738112,-0.146910,-0.105870,0.037022,0.039175,0.985909
2011-09-26T14:27:25.877585,9650,1.770789,-0.228000,-0.110634,0.036928,0.038052,0.987859
2011-09-26T14:27:25.887585,9660,1.803466,-0.309090,-0.115398,0.036835,0.036928,0.989808
2011-09-26T14:27:25.897585,9670,1.836143,-0.390180,-0.120161,0.036742,0.035805,0.991757
2011-09-26T14:27:25.907585,9680,1.868820,-0.471269,-0.124925,0.036649,0.034681,0.993706
2011-09-26T14:27:25.917585,9690,1.901497,-0.552359,-0.129689,0.036556,0.033558,0.995656
2011-09-26T14:27:25.927585,9700,1.934174,-0.633449,-0.134453,0.036462,0.032435,0.997605
2011-09-26T14:27:25.937585,9710,1.966851,-0.714539,-0.139216,0.036369,0.031311,0.999554
2011-09-26T14:27:25.947585,9720,1.999527,-0.795629,-0.143980,0.036276,0.030188,1.001504
2011-09-26T14:27:25.957585,9730,1.994237,-0.812759,-0.147767,0.037029,0.032713,1.004260
2011-09-26T14:27:25.967585,9740,1.987257,-0.827044,-0.151510,0.037819,0.035401,1.007052
2011-09-26T14:27:25.977585,9750,1.980276,-0.841329,-0.155253,0.038609,0.038089,1.009844
2011-09-26T14:27:25.987585,9760,1.973296,-0.855614,-0.158996,0.039399,0.040777,1.012637
2011-09-26T14:27:25.997585,9770,1.966316,-0.869898,-0.162740,0.040189,0.043465,1.015429
2011-09-26T14:27:26.007585,9780,1.959336,-0.884183,-0.166483,0.040979,0.046153,1.018221
2011-09-26T14:27:26.017585,9790,1.952356,-0.898468,-0.170226,0.041769,0.048841,1.021013
2011-09-26T14:27:26.027585,9800,1.945375,-0.912752,-0.173969,0.042559,0.051529,1.023806
2011-09-26T14:27:26.037585,9810,1.938395,-0.927037,-0.177712,0.043349,0.054217,1.026598
2011-09-26T14:27:26.047585,9820,1.931415,-0.941322,-0.181456,0.044139,0.056905,1.029390
2011-09-26T14:27:26.057585,9830,1.861659,-0.891162,-0.188048,0.044413,0.055880,1.027757
2011-09-26T14:27:26.067585,9840,1.789274,-0.838302,-0.194761,0.044666,0.054700,1.025939
2011-09-26T14:27:26.077585,9850,1.716888,-0.785443,-0.201473,0.044918,0.053520,1.024121
2011-09-26T14:27:26.087585,9860,1.644502,-0.732583,-0.208185,0.045171,0.052340,1.022303
2011-09-26T14:27:26.097585,9870,1.572117,-0.679724,-0.214898,0.045423,0.051160,1.020485
2011-09-26T14:27:26.107585,9880,1.499731,-0.626864,-0.221610,0.045676,0.049980,1.018667
2011-09-26T14:27:26.117585,9890,1.427345,-0.574005,-0.228322,0.045928,0.048800,1.016849
2011-09-26T14:27:26.127585,9900,1.354960,-0.521145,-0.235035,0.046181,0.047620,1.015031
2011-09-26T14:27:26.137585,9910,1.282574,-0.468286,-0.241747,0.046433,0.046440,1.013212
2011-09-26T14:27:26.147585,9920,1.210188,-0.415426,-0.248459,0.046686,0.045260,1.011394
2011-09-26T14:27:26.157585,9930,1.137803,-0.362567,-0.255171,0.046938,0.044080,1.009576
2011-09-26T14:27:26.167585,9940,1.188129,-0.248599,-0.260480,0.047471,0.045759,1.007411
2011-09-26T14:27:26.177585,9950,1.245903,-0.130921,-0.265703,0.048020,0.047611,1.005225
2011-09-26T14:27:26.187585,9960,1.303678,-0.013244,-0.270927,0.048569,0.049463,1.003038
2011-09-26T14:27:26.197585,9970,1.361453,0.104433,-0.276150,0.049119,0.051316,1.000852
2011-09-26T14:27:26.207585,9980,1.419227,0.222111,-0.281373,0.049668,0.053168,0.998666
2011-09-26T14:27:26.217585,9990,1.477002,0.339788,-0.286597,0.050218,0.055020,0.996479
2011-09-26T14:27:26.227585,10000,1.534777,0.457465,-0.291820,0.050767,0.056873,0.994293
2011-09-26T14:27:26.237585,10010,1.592551,0.575143,-0.297043,0.051317,0.058725,0.992106
2011-09-26T14:27:26.247585,10020,1.650326,0.692820,-0.302267,0.051866,0.060577,0.989920
2011-09-26T14:27:26.257585,10030,1.708101,0.810497,-0.307490,0.052415,0.062430,0.987734
2011-09-26T14:27:26.267585,10040,1.658135,0.819081,-0.322562,0.053084,0.061797,0.988811
2011-09-26T14:27:26.277585,10050,1.603386,0.822822,-0.338071,0.053758,0.061054,0.990034
2011-09-26T14:27:26.287585,10060,1.548638,0.826563,-0.353580,0.054431,0.060311,0.991256
2011-09-26T14:27:26.297585,10070,1.493889,0.830303,-0.369090,0.055105,0.059568,0.992479
2011-09-26T14:27:26.307585,10080,1.439141,0.834044,-0.384599,0.055779,0.058825,0.993701
2011-09-26T14:27:26.317585,10090,1.384392,0.837785,-0.400108,0.056452,0.058082,0.994924
2011-09-26T14:27:26.327585,10100,1.329644,0.841526,-0.415617,0.057126,0.057339,0.996146
2011-09-26T14:27:26.337585,10110,1.274895,0.845267,-0.431126,0.057800,0.056596,0.997369
2011-09-26T14:27:26.347585,10120,1.220146,0.849007,-0.446636,0.058474,0.055852,0.998591
2011-09-26T14:27:26.357585,10130,1.165398,0.852748,-0.462145,0.059147,0.055109,0.999814
2011-09-26T14:27:26.367585,10140,1.207752,0.820820,-0.461967,0.057883,0.055271,0.996996
2011-09-26T14:27:26.377585,10150,1.254382,0.787320,-0.461099,0.056533,0.055473,0.994000
2011-09-26T14:27:26.387585,10160,1.301013,0.753821,-0.460231,0.055184,0.055675,0.991004
2011-09-26T14:27:26.397585,10170,1.347644,0.720321,-0.459363,0.053834,0.055876,0.988009
2011-09-26T14:27:26.407585,10180,1.394275,0.686822,-0.458495,0.052484,0.056078,0.985013
2011-09-26T14:27:26.417585,10190,1.440905,0.653323,-0.457627,0.051135,0.056280,0.982017
2011-09-26T14:27:26.427585,10200,1.487536,0.619823,-0.456758,0.049785,0.056481,0.979021
2011-09-26T14:27:26.437585,10210,1.534167,0.586324,-0.455890,0.048435,0.056683,0.976025
2011-09-26T14:27:26.447585,10220,1.580798,0.552824,-0.455022,0.047086,0.056885,0.973030
2011-09-26T14:27:26.457585,10230,1.627428,0.519325,-0.454154,0.045736,0.057086,0.970034
2011-09-26T14:27:26.467585,10240,1.674059,0.485826,-0.453286,0.044386,0.057288,0.967038
2011-09-26T14:27:26.477585,10250,1.633132,0.370998,-0.439471,0.043193,0.057232,0.968887
2011-09-26T14:27:26.487585,10260,1.588498,0.252726,-0.425108,0.042006,0.057165,0.970941
2011-09-26T14:27:26.497585,10270,1.543863,0.134454,-0.410745,0.040819,0.057098,0.972995
2011-09-26T14:27:26.507585,10280,1.499228,0.016182,-0.396382,0.039633,0.057031,0.975049
2011-09-26T14:27:26.517585,10290,1.454594,-0.102090,-0.382020,0.038446,0.056965,0.977103
2011-09-26T14:27:26.527585,10300,1.409959,-0.220362,-0.367657,0.037259,0.056898,0.979157
2011-09-26T14:27:26.537585,10310,1.365324,-0.338634,-0.353294,0.036072,0.056831,0.981211
2011-09-26T14:27:26.547585,10320,1.320690,-0.456906,-0.338931,0.034886,0.056764,0.983265
2011-09-26T14:27:26.557585,10330,1.276055,-0.575177,-0.324568,0.033699,0.056697,0.985319
2011-09-26T14:27:26.567585,10340,1.231421,-0.693449,-0.310205,0.032512,0.056630,0.987373
2011-09-26T14:27:26.577585,10350,1.158171,-0.783806,-0.288854,0.031723,0.057512,0.990050
2011-09-26T14:27:26.587585,10360,1.083720,-0.872991,-0.267209,0.030951,0.058434,0.992752
2011-09-26T14:27:26.597585,10370,1.009269,-0.962175,-0.245564,0.030179,0.059356,0.995455
2011-09-26T14:27:26.607585,10380,0.934818,-1.051360,-0.223919,0.029408,0.060278,0.998157
2011-09-26T14:27:26.617585,10390,0.860366,-1.140544,-0.202274,0.028636,0.061199,1.000859
2011-09-26T14:27:26.627585,10400,0.785915,-1.229729,-0.180629,0.027864,0.062121,1.003562
2011-09-26T14:27:26.637585,10410,0.711464,-1.318913,-0.158984,0.027092,0.063043,1.006264
2011-09-26T14:27:26.647585,10420,0.637013,-1.408098,-0.137339,0.026320,0.063965,1.008967
2011-09-26T14:27:26.657585,10430,0.562562,-1.497282,-0.115694,0.025548,0.064886,1.011669
2011-09-26T14:27:26.667585,10440,0.488110,-1.586467,-0.094049,0.024776,0.065808,1.014372
2011-09-26T14:27:26.677585,10450,0.413659,-1.675651,-0.072404,0.024004,0.066730,1.017074
2011-09-26T14:27:26.687585,10460,0.379840,-1.609351,-0.056185,0.023753,0.068016,1.020663
2011-09-26T14:27:26.697585,10470,0.347927,-1.535755,-0.040221,0.023527,0.069320,1.024294
2011-09-26T14:27:26.707585,10480,0.316015,-1.462158,-0.024256,0.023301,0.070624,1.027925
2011-09-26T14:27:26.717585,10490,0.284102,-1.388562,-0.008292,0.023075,0.071927,1.031556
2011-09-26T14:27:26.727585,10500,0.252189,-1.314965,0.007673,0.022849,0.073231,1.035187
2011-09-26T14:27:26.737585,10510,0.220277,-1.241368,0.023637,0.022623,0.074535,1.038818
2011-09-26T14:27:26.747585,10520,0.188364,-1.167772,0.039602,0.022397,0.075838,1.042449
2011-09-26T14:27:26.757585,10530,0.156452,-1.094175,0.055566,0.022170,0.077142,1.046080
2011-09-26T14:27:26.767585,10540,0.124539,-1.020579,0.071531,0.021944,0.078446,1.049711
2011-09-26T14:27:26.777585,10550,0.092627,-0.946982,0.087495,0.021718,0.079749,1.053342
2011-09-26T14:27:26.787585,10560,0.042985,-0.810213,0.107304,0.020616,0.080629,1.051479
2011-09-26T14:27:26.797585,10570,-0.007404,-0.670777,0.127275,0.019476,0.081490,1.049385
2011-09-26T14:27:26.807585,10580,-0.057794,-0.531341,0.147246,0.018337,0.082352,1.047290
2011-09-26T14:27:26.817585,10590,-0.108183,-0.391905,0.167217,0.017197,0.083213,1.045196
2011-09-26T14:27:26.827585,10600,-0.158572,-0.252469,0.187188,0.016058,0.084075,1.043102
2011-09-26T14:27:26.837585,10610,-0.208962,-0.113033,0.207159,0.014918,0.084936,1.041007
2011-09-26T14:27:26.847585,10620,-0.259351,0.026403,0.227130,0.013779,0.085798,1.038913
2011-09-26T14:27:26.857585,10630,-0.309741,0.165839,0.247101,0.012639,0.086659,1.036818
2011-09-26T14:27:26.867585,10640,-0.360130,0.305275,0.267072,0.011500,0.087521,1.034724
2011-09-26T14:27:26.877585,10650,-0.410520,0.444711,0.287043,0.010360,0.088382,1.032629
2011-09-26T14:27:26.887585,10660,-0.399267,0.492856,0.301477,0.009455,0.089842,1.029839
2011-09-26T14:27:26.897585,10670,-0.385378,0.537097,0.315674,0.008560,0.091327,1.027019
2011-09-26T14:27:26.907585,10680,-0.371489,0.581337,0.329872,0.007666,0.092811,1.024198
2011-09-26T14:27:26.917585,10690,-0.357600,0.625578,0.344069,0.006771,0.094296,1.021378
2011-09-26T14:27:26.927585,10700,-0.343711,0.669818,0.358266,0.005876,0.095781,1.018558
2011-09-26T14:27:26.937585,10710,-0.329821,0.714059,0.372464,0.004981,0.097266,1.015737
2011-09-26T14:27:26.947585,10720,-0.315932,0.758299,0.386661,0.004086,0.098751,1.012917
2011-09-26T14:27:26.957585,10730,-0.302043,0.802540,0.400859,0.003191,0.100235,1.010097
2011-09-26T14:27:26.967585,10740,-0.288154,0.846781,0.415056,0.002296,0.101720,1.007276
2011-09-26T14:27:26.977585,10750,-0.274265,0.891021,0.429253,0.001402,0.103205,1.004456
2011-09-26T14:27:26.987585,10760,-0.260376,0.935262,0.443451,0.000507,0.104690,1.001635
2011-09-26T14:27:26.997585,10770,-0.340348,0.866539,0.442815,-0.000893,0.102488,1.000007
2011-09-26T14:27:27.007585,10780,-0.424630,0.792630,0.441498,-0.002315,0.100116,0.998434
2011-09-26T14:27:27.017585,10790,-0.508912,0.718720,0.440181,-0.003738,0.097745,0.996860
2011-09-26T14:27:27.027585,10800,-0.593194,0.644811,0.438863,-0.005161,0.095373,0.995286
2011-09-26T14:27:27.037585,10810,-0.677476,0.570902,0.437546,-0.006583,0.093002,0.993713
2011-09-26T14:27:27.047585,10820,-0.761758,0.496993,0.436229,-0.008006,0.090630,0.992139
2011-09-26T14:27:27.057585,10830,-0.846039,0.423084,0.434912,-0.009429,0.088259,0.990565
2011-09-26T14:27:27.067585,10840,-0.930321,0.349175,0.433595,-0.010851,0.085887,0.988992
2011-09-26T14:27:27.077585,10850,-1.014603,0.275265,0.432278,-0.012274,0.083516,0.987418
2011-09-26T14:27:27.087585,10860,-1.098885,0.201356,0.430961,-0.013697,0.081144,0.985844
2011-09-26T14:27:27.097585,10870,-1.084659,0.199024,0.434557,-0.014213,0.079873,0.986801
2011-09-26T14:27:27.107585,10880,-1.063598,0.201659,0.438494,-0.014667,0.078679,0.987932
2011-09-26T14:27:27.117585,10890,-1.042536,0.204295,0.442432,-0.015120,0.077484,0.989064
2011-09-26T14:27:27.127585,10900,-1.021475,0.206930,0.446369,-0.015574,0.076290,0.990195
2011-09-26T14:27:27.137585,10910,-1.000413,0.209565,0.450306,-0.016027,0.075095,0.991327
2011-09-26T14:27:27.147585,10920,-0.979352,0.212201,0.454244,-0.016481,0.073901,0.992459
2011-09-26T14:27:27.157585,10930,-0.958290,0.214836,0.458181,-0.016934,0.072706,0.993590
2011-09-26T14:27:27.167585,10940,-0.937229,0.217471,0.462118,-0.017388,0.071511,0.994722
2011-09-26T14:27:27.177585,10950,-0.916167,0.220106,0.466056,-0.017841,0.070317,0.995854
2011-09-26T14:27:27.187585,10960,-0.895106,0.222742,0.469993,-0.018295,0.069122,0.996985
2011-09-26T14:27:27.197585,10970,-0.911229,0.212552,0.481290,-0.019217,0.068995,0.996918
2011-09-26T14:27:27.207585,10980,-0.929216,0.201720,0.492956,-0.020162,0.068920,0.996790
2011-09-26T14:27:27.217585,10990,-0.947202,0.190888,0.504622,-0.021107,0.068846,0.996662
2011-09-26T14:27:27.227585,11000,-0.965189,0.180056,0.516288,-0.022053,0.068771,0.996535
2011-09-26T14:27:27.237585,11010,-0.983175,0.169224,0.527954,-0.022998,0.068697,0.996407
2011-09-26T14:27:27.247585,11020,-1.001162,0.158392,0.539620,-0.023944,0.068623,0.996279
2011-09-26T14:27:27.257585,11030,-1.019148,0.147560,0.551285,-0.024889,0.068548,0.996151
2011-09-26T14:27:27.267585,11040,-1.037135,0.136728,0.562951,-0.025835,0.068474,0.996024
2011-09-26T14:27:27.277585,11050,-1.055121,0.125896,0.574617,-0.026780,0.068399,0.995896
2011-09-26T14:27:27.287585,11060,-1.073108,0.115064,0.586283,-0.027725,0.068325,0.995768
2011-09-26T14:27:27.297585,11070,-1.044124,0.094671,0.590875,-0.028611,0.068751,0.995061
2011-09-26T14:27:27.307585,11080,-1.012988,0.073841,0.595143,-0.029494,0.069201,0.994327
2011-09-26T14:27:27.317585,11090,-0.981852,0.053011,0.599412,-0.030377,0.069650,0.993594
2011-09-26T14:27:27.327585,11100,-0.950717,0.032180,0.603680,-0.031260,0.070099,0.992860
2011-09-26T14:27:27.337585,11110,-0.919581,0.011350,0.607948,-0.032143,0.070549,0.992126
2011-09-26T14:27:27.347585,11120,-0.888446,-0.009480,0.612216,-0.033025,0.070998,0.991392
2011-09-26T14:27:27.357585,11130,-0.857310,-0.030310,0.616485,-0.033908,0.071447,0.990659
2011-09-26T14:27:27.367585,11140,-0.826174,-0.051141,0.620753,-0.034791,0.071897,0.989925
2011-09-26T14:27:27.377585,11150,-0.795039,-0.071971,0.625021,-0.035674,0.072346,0.989191
2011-09-26T14:27:27.387585,11160,-0.763903,-0.092801,0.629289,-0.036557,0.072795,0.988457
2011-09-26T14:27:27.397585,11170,-0.732768,-0.113631,0.633558,-0.037440,0.073245,0.987724
2011-09-26T14:27:27.407585,11180,-0.675311,-0.091789,0.630571,-0.036359,0.071632,0.989914
2011-09-26T14:27:27.417585,11190,-0.616565,-0.067857,0.627228,-0.035182,0.069918,0.992248
2011-09-26T14:27:27.427585,11200,-0.557819,-0.043924,0.623886,-0.034005,0.068204,0.994582
2011-09-26T14:27:27.437585,11210,-0.499072,-0.019992,0.620544,-0.032828,0.066490,0.996916
2011-09-26T14:27:27.447585,11220,-0.440326,0.003940,0.617201,-0.031651,0.064776,0.999250
2011-09-26T14:27:27.457585,11230,-0.381580,0.027873,0.613859,-0.030474,0.063062,1.001584
2011-09-26T14:27:27.467585,11240,-0.322834,0.051805,0.610517,-0.029297,0.061349,1.003918
2011-09-26T14:27:27.477585,11250,-0.264088,0.075738,0.607174,-0.028120,0.059635,1.006252
2011-09-26T14:27:27.487585,11260,-0.205341,0.099670,0.603832,-0.026943,0.057921,1.008586
2011-09-26T14:27:27.497585,11270,-0.146595,0.123603,0.600490,-0.025766,0.056207,1.010920
2011-09-26T14:27:27.507585,11280,-0.103391,0.122532,0.601624,-0.026711,0.057171,1.010370
2011-09-26T14:27:27.517585,11290,-0.061145,0.119919,0.603034,-0.027787,0.058301,1.009643
2011-09-26T14:27:27.527585,11300,-0.018900,0.117306,0.604444,-0.028863,0.059431,1.008916
2011-09-26T14:27:27.537585,11310,0.023346,0.114692,0.605854,-0.029939,0.060561,1.008189
2011-09-26T14:27:27.547585,11320,0.065591,0.112079,0.607264,-0.031015,0.061691,1.007462
2011-09-26T14:27:27.557585,11330,0.107837,0.109466,0.608674,-0.032091,0.062820,1.006735
2011-09-26T14:27:27.567585,11340,0.150083,0.106853,0.610084,-0.033168,0.063950,1.006008
2011-09-26T14:27:27.577585,11350,0.192328,0.104239,0.611494,-0.034244,0.065080,1.005280
2011-09-26T14:27:27.587585,11360,0.234574,0.101626,0.612904,-0.035320,0.066210,1.004553
2011-09-26T14:27:27.597585,11370,0.276819,0.099013,0.614314,-0.036396,0.067340,1.003826
2011-09-26T14:27:27.607585,11380,0.329092,0.125672,0.622419,-0.037211,0.067801,1.002716
2011-09-26T14:27:27.617585,11390,0.382048,0.154321,0.630980,-0.038008,0.068218,1.001579
2011-09-26T14:27:27.627585,11400,0.435003,0.182971,0.639541,-0.038805,0.068634,1.000442
2011-09-26T14:27:27.637585,11410,0.487958,0.211621,0.648102,-0.039602,0.069050,0.999305
2011-09-26T14:27:27.647585,11420,0.540913,0.240271,0.656663,-0.040400,0.069466,0.998169
2011-09-26T14:27:27.657585,11430,0.593868,0.268921,0.665224,-0.041197,0.069883,0.997032
2011-09-26T14:27:27.667585,11440,0.646823,0.297571,0.673785,-0.041994,0.070299,0.995895
2011-09-26T14:27:27.677585,11450,0.699778,0.326220,0.682345,-0.042791,0.070715,0.994759
2011-09-26T14:27:27.687585,11460,0.752733,0.354870,0.690906,-0.043588,0.071132,0.993622
2011-09-26T14:27:27.697585,11470,0.805688,0.383520,0.699467,-0.044386,0.071548,0.992485
2011-09-26T14:27:27.707585,11480,0.858643,0.412170,0.708028,-0.045183,0.071964,0.991349
2011-09-26T14:27:27.717585,11490,0.767171,0.332484,0.704628,-0.044862,0.073544,0.989655
2011-09-26T14:27:27.727585,11500,0.668879,0.247681,0.700663,-0.044488,0.075179,0.987935
2011-09-26T14:27:27.737585,11510,0.570586,0.162879,0.696697,-0.044115,0.076814,0.986215
2011-09-26T14:27:27.747585,11520,0.472294,0.078077,0.692732,-0.043741,0.078449,0.984495
2011-09-26T14:27:27.757585,11530,0.374002,-0.006725,0.688767,-0.043367,0.080084,0.982775
2011-09-26T14:27:27.767585,11540,0.275709,-0.091527,0.684801,-0.042994,0.081719,0.981055
2011-09-26T14:27:27.777585,11550,0.177417,-0.176329,0.680836,-0.042620,0.083354,0.979335
2011-09-26T14:27:27.787585,11560,0.079125,-0.261132,0.676871,-0.042247,0.084988,0.977615
2011-09-26T14:27:27.797585,11570,-0.019168,-0.345934,0.672906,-0.041873,0.086623,0.975895
2011-09-26T14:27:27.807585,11580,-0.117460,-0.430736,0.668940,-0.041499,0.088258,0.974175
2011-09-26T14:27:27.817585,11590,-0.185753,-0.511116,0.667173,-0.040753,0.088810,0.978844
2011-09-26T14:27:27.827585,11600,-0.252553,-0.591276,0.665514,-0.039987,0.089308,0.983831
2011-09-26T14:27:27.837585,11610,-0.319353,-0.671436,0.663856,-0.039222,0.089807,0.988818
2011-09-26T14:27:27.847585,11620,-0.386153,-0.751597,0.662198,-0.038457,0.090305,0.993805
2011-09-26T14:27:27.857585,11630,-0.452953,-0.831757,0.660539,-0.037692,0.090803,0.998792
2011-09-26T14:27:27.867585,11640,-0.519753,-0.911917,0.658881,-0.036927,0.091301,1.003779
2011-09-26T14:27:27.877585,11650,-0.586553,-0.992077,0.657222,-0.036162,0.091799,1.008766
2011-09-26T14:27:27.887585,11660,-0.653353,-1.072237,0.655564,-0.035396,0.092297,1.013753
2011-09-26T14:27:27.897585,11670,-0.720153,-1.152397,0.653906,-0.034631,0.092796,1.018740
2011-09-26T14:27:27.907585,11680,-0.786953,-1.232557,0.652247,-0.033866,0.093294,1.023727
2011-09-26T14:27:27.917585,11690,-0.838803,-1.120265,0.638537,-0.033230,0.091502,1.024563
2011-09-26T14:27:27.927585,11700,-0.889912,-0.998419,0.624228,-0.032601,0.089596,1.025194
2011-09-26T14:27:27.937585,11710,-0.941020,-0.876574,0.609920,-0.031971,0.087690,1.025824
2011-09-26T14:27:27.947585,11720,-0.992129,-0.754728,0.595611,-0.031341,0.085784,1.026455
2011-09-26T14:27:27.957585,11730,-1.043237,-0.632883,0.581303,-0.030712,0.083879,1.027085
2011-09-26T14:27:27.967585,11740,-1.094346,-0.511037,0.566994,-0.030082,0.081973,1.027716
2011-09-26T14:27:27.977585,11750,-1.145454,-0.389192,0.552686,-0.029453,0.080067,1.028346
2011-09-26T14:27:27.987585,11760,-1.196563,-0.267346,0.538377,-0.028823,0.078161,1.028977
2011-09-26T14:27:27.997585,11770,-1.247671,-0.145501,0.524069,-0.028194,0.076255,1.029607
2011-09-26T14:27:28.007585,11780,-1.298780,-0.023655,0.509760,-0.027564,0.074350,1.030238
2011-09-26T14:27:28.017585,11790,-1.349888,0.098190,0.495451,-0.026935,0.072444,1.030868
2011-09-26T14:27:28.027585,11800,-1.246308,0.269113,0.486606,-0.028964,0.070650,1.028663
2011-09-26T14:27:28.037585,11810,-1.134858,0.442533,0.478038,-0.031128,0.068862,1.026314
2011-09-26T14:27:28.047585,11820,-1.023409,0.615953,0.469470,-0.033292,0.067073,1.023965
2011-09-26T14:27:28.057585,11830,-0.911959,0.789372,0.460901,-0.035456,0.065285,1.021615
2011-09-26T14:27:28.067585,11840,-0.800509,0.962792,0.452333,-0.037620,0.063496,1.019266
2011-09-26T14:27:28.077585,11850,-0.689059,1.136212,0.443765,-0.039784,0.061708,1.016916
2011-09-26T14:27:28.087585,11860,-0.577609,1.309632,0.435197,-0.041948,0.059920,1.014567
2011-09-26T14:27:28.097585,11870,-0.466159,1.483051,0.426629,-0.044112,0.058131,1.012218
2011-09-26T14:27:28.107585,11880,-0.354709,1.656471,0.418061,-0.046276,0.056343,1.009868
2011-09-26T14:27:28.117585,11890,-0.243260,1.829891,0.409493,-0.048440,0.054555,1.007519
2011-09-26T14:27:28.127585,11900,-0.088876,1.806047,0.414852,-0.048911,0.052120,1.001014
2011-09-26T14:27:28.137585,11910,0.068317,1.769293,0.421122,-0.049272,0.049643,0.994236
2011-09-26T14:27:28.147585,11920,0.225511,1.732539,0.427392,-0.049632,0.047167,0.987459
2011-09-26T14:27:28.157585,11930,0.382704,1.695785,0.433661,-0.049993,0.044690,0.980682
2011-09-26T14:27:28.167585,11940,0.539898,1.659031,0.439931,-0.050354,0.042213,0.973904
2011-09-26T14:27:28.177585,11950,0.697091,1.622277,0.446201,-0.050714,0.039736,0.967127
2011-09-26T14:27:28.187585,11960,0.854285,1.585522,0.452471,-0.051075,0.037259,0.960350
2011-09-26T14:27:28.197585,11970,1.011478,1.548768,0.458741,-0.051436,0.034782,0.953572
2011-09-26T14:27:28.207585,11980,1.168671,1.512014,0.465011,-0.051796,0.032306,0.946795
2011-09-26T14:27:28.217585,11990,1.325865,1.475260,0.471281,-0.052157,0.029829,0.940018
2011-09-26T14:27:28.227585,12000,1.431203,1.321389,0.492985,-0.052642,0.032469,0.940542
2011-09-26T14:27:28.237585,12010,1.534093,1.161987,0.515418,-0.053132,0.035351,0.941411
2011-09-26T14:27:28.247585,12020,1.636983,1.002585,0.537850,-0.053622,0.038233,0.942280
2011-09-26T14:27:28.257585,12030,1.739873,0.843184,0.560283,-0.054113,0.041114,0.943149
2011-09-26T14:27:28.267585,12040,1.842763,0.683782,0.582716,-0.054603,0.043996,0.944018
2011-09-26T14:27:28.277585,12050,1.945653,0.524380,0.605149,-0.055093,0.046878,0.944887
2011-09-26T14:27:28.287585,12060,2.048542,0.364978,0.627582,-0.055584,0.049760,0.945756
2011-09-26T14:27:28.297585,12070,2.151432,0.205576,0.650015,-0.056074,0.052642,0.946625
2011-09-26T14:27:28.307585,12080,2.254322,0.046175,0.672448,-0.056565,0.055524,0.947494
2011-09-26T14:27:28.317585,12090,2.357212,-0.113227,0.694880,-0.057055,0.058405,0.948363
2011-09-26T14:27:28.327585,12100,2.460102,-0.272629,0.717313,-0.057545,0.061287,0.949232
2011-09-26T14:27:28.337585,12110,2.357844,-0.416674,0.727539,-0.057879,0.066131,0.953689
2011-09-26T14:27:28.347585,12120,2.245193,-0.559942,0.737146,-0.058204,0.071075,0.958328
2011-09-26T14:27:28.357585,12130,2.132543,-0.703209,0.746753,-0.058529,0.076019,0.962967
2011-09-26T14:27:28.367585,12140,2.019892,-0.846477,0.756360,-0.058855,0.080963,0.967606
2011-09-26T14:27:28.377585,12150,1.907241,-0.989744,0.765967,-0.059180,0.085906,0.972245
2011-09-26T14:27:28.387585,12160,1.794590,-1.133011,0.775574,-0.059506,0.090850,0.976883
2011-09-26T14:27:28.397585,12170,1.681940,-1.276279,0.785181,-0.059831,0.095794,0.981522
2011-09-26T14:27:28.407585,12180,1.569289,-1.419546,0.794789,-0.060156,0.100738,0.986161
2011-09-26T14:27:28.417585,12190,1.456638,-1.562814,0.804396,-0.060482,0.105681,0.990800
2011-09-26T14:27:28.427585,12200,1.343987,-1.706081,0.814003,-0.060807,0.110625,0.995439
2011-09-26T14:27:28.437585,12210,0.957648,-1.818062,0.789851,-0.058651,0.111242,0.999112
2011-09-26T14:27:28.447585,12220,0.558685,-1.928601,0.764143,-0.056380,0.111660,1.002740
2011-09-26T14:27:28.457585,12230,0.159721,-2.039139,0.738435,-0.054109,0.112078,1.006368
2011-09-26T14:27:28.467585,12240,-0.239242,-2.149677,0.712726,-0.051838,0.112496,1.009996
2011-09-26T14:27:28.477585,12250,-0.638206,-2.260215,0.687018,-0.049567,0.112914,1.013624
2011-09-26T14:27:28.487585,12260,-1.037169,-2.370753,0.661309,-0.047296,0.113332,1.017252
2011-09-26T14:27:28.497585,12270,-1.436132,-2.481291,0.635601,-0.045025,0.113750,1.020880
2011-09-26T14:27:28.507585,12280,-1.835096,-2.591829,0.609892,-0.042754,0.114168,1.024508
2011-09-26T14:27:28.517585,12290,-2.234059,-2.702367,0.584184,-0.040483,0.114586,1.028136
2011-09-26T14:27:28.527585,12300,-2.633023,-2.812905,0.558475,-0.038212,0.115004,1.031764
2011-09-26T14:27:28.537585,12310,-2.586830,-2.531933,0.499696,-0.035453,0.115539,1.039627
2011-09-26T14:27:28.547585,12320,-2.517846,-2.230916,0.439225,-0.032669,0.116080,1.047706
2011-09-26T14:27:28.557585,12330,-2.448862,-1.929898,0.378753,-0.029885,0.116620,1.055786
2011-09-26T14:27:28.567585,12340,-2.379878,-1.628881,0.318281,-0.027101,0.117161,1.063865
2011-09-26T14:27:28.577585,12350,-2.310894,-1.327863,0.257809,-0.024317,0.117702,1.071944
2011-09-26T14:27:28.587585,12360,-2.241910,-1.026845,0.197337,-0.021533,0.118242,1.080024
2011-09-26T14:27:28.597585,12370,-2.172926,-0.725828,0.136865,-0.018749,0.118783,1.088103
2011-09-26T14:27:28.607585,12380,-2.103942,-0.424810,0.076393,-0.015965,0.119324,1.096182
2011-09-26T14:27:28.617585,12390,-2.034958,-0.123793,0.015922,-0.013181,0.119864,1.104262
2011-09-26T14:27:28.627585,12400,-1.965974,0.177225,-0.044550,-0.010397,0.120405,1.112341
2011-09-26T14:27:28.637585,12410,-1.896990,0.478242,-0.105022,-0.007613,0.120946,1.120420
2011-09-26T14:27:28.647585,12420,-2.001951,0.848084,-0.126106,-0.010102,0.113217,1.103693
2011-09-26T14:27:28.657585,12430,-2.120349,1.223243,-0.144148,-0.012998,0.104849,1.085049
2011-09-26T14:27:28.667585,12440,-2.238746,1.598401,-0.162189,-0.015894,0.096481,1.066405
2011-09-26T14:27:28.677585,12450,-2.357144,1.973560,-0.180231,-0.018790,0.088113,1.047761
2011-09-26T14:27:28.687585,12460,-2.475541,2.348718,-0.198273,-0.021686,0.079745,1.029117
2011-09-26T14:27:28.697585,12470,-2.593938,2.723877,-0.216314,-0.024582,0.071377,1.010473
2011-09-26T14:27:28.707585,12480,-2.712336,3.099035,-0.234356,-0.027478,0.063009,0.991829
2011-09-26T14:27:28.717585,12490,-2.830733,3.474194,-0.252397,-0.030374,0.054641,0.973185
2011-09-26T14:27:28.727585,12500,-2.949131,3.849352,-0.270439,-0.033270,0.046273,0.954541
2011-09-26T14:27:28.737585,12510,-3.067528,4.224511,-0.288481,-0.036165,0.037905,0.935897
2011-09-26T14:27:28.747585,12520,-2.706521,3.983974,-0.239177,-0.037326,0.034064,0.933043
2011-09-26T14:27:28.757585,12530,-2.319216,3.709664,-0.186178,-0.038392,0.030473,0.931055
2011-09-26T14:27:28.767585,12540,-1.931911,3.435353,-0.133180,-0.039457,0.026881,0.929067
2011-09-26T14:27:28.777585,12550,-1.544606,3.161043,-0.080182,-0.040523,0.023289,0.927080
2011-09-26T14:27:28.787585,12560,-1.157302,2.886733,-0.027184,-0.041588,0.019697,0.925092
2011-09-26T14:27:28.797585,12570,-0.769997,2.612422,0.025815,-0.042654,0.016106,0.923104
2011-09-26T14:27:28.807585,12580,-0.382692,2.338112,0.078813,-0.043719,0.012514,0.921116
2011-09-26T14:27:28.817585,12590,0.004613,2.063801,0.131811,-0.044785,0.008922,0.919128
2011-09-26T14:27:28.827585,12600,0.391918,1.789491,0.184809,-0.045851,0.005330,0.917141
2011-09-26T14:27:28.837585,12610,0.779222,1.515181,0.237808,-0.046916,0.001739,0.915153
2011-09-26T14:27:28.847585,12620,1.071112,1.412904,0.251521,-0.046075,0.004767,0.920045
2011-09-26T14:27:28.857585,12630,1.358350,1.319015,0.263320,-0.045141,0.008117,0.925274
2011-09-26T14:27:28.867585,12640,1.645588,1.225125,0.275119,-0.044207,0.011468,0.930502
2011-09-26T14:27:28.877585,12650,1.932827,1.131235,0.286917,-0.043273,0.014819,0.935730
2011-09-26T14:27:28.887585,12660,2.220065,1.037346,0.298716,-0.042339,0.018169,0.940958
2011-09-26T14:27:28.897585,12670,2.507303,0.943456,0.310515,-0.041405,0.021520,0.946186
2011-09-26T14:27:28.907585,12680,2.794541,0.849567,0.322313,-0.040471,0.024871,0.951414
2011-09-26T14:27:28.917585,12690,3.081779,0.755677,0.334112,-0.039537,0.028221,0.956642
2011-09-26T14:27:28.927585,12700,3.369018,0.661787,0.345911,-0.038603,0.031572,0.961871
2011-09-26T14:27:28.937585,12710,3.656256,0.567898,0.357709,-0.037669,0.034923,0.967099
2011-09-26T14:27:28.947585,12720,3.943494,0.474008,0.369508,-0.036735,0.038273,0.972327
2011-09-26T14:27:28.957585,12730,3.886622,0.407547,0.364811,-0.037052,0.040971,0.975312
2011-09-26T14:27:28.967585,12740,3.813537,0.342378,0.359336,-0.037429,0.043637,0.978191
2011-09-26T14:27:28.977585,12750,3.740452,0.277209,0.353862,-0.037805,0.046304,0.981070
2011-09-26T14:27:28.987585,12760,3.667367,0.212040,0.348388,-0.038181,0.048971,0.983949
2011-09-26T14:27:28.997585,12770,3.594283,0.146871,0.342913,-0.038557,0.051638,0.986828
2011-09-26T14:27:29.007585,12780,3.521198,0.081702,0.337439,-0.038934,0.054304,0.989707
2011-09-26T14:27:29.017585,12790,3.448113,0.016533,0.331964,-0.039310,0.056971,0.992586
2011-09-26T14:27:29.027585,12800,3.375028,-0.048636,0.326490,-0.039686,0.059638,0.995465
2011-09-26T14:27:29.037585,12810,3.301943,-0.113805,0.321016,-0.040062,0.062305,0.998344
2011-09-26T14:27:29.047585,12820,3.228858,-0.178974,0.315541,-0.040438,0.064971,1.001224
2011-09-26T14:27:29.057585,12830,3.087735,-0.333674,0.308966,-0.039179,0.067301,1.001086
2011-09-26T14:27:29.067585,12840,2.942796,-0.493395,0.302330,-0.037827,0.069611,1.000779
2011-09-26T14:27:29.077585,12850,2.797857,-0.653116,0.295693,-0.036476,0.071921,1.000472
2011-09-26T14:27:29.087585,12860,2.652918,-0.812837,0.289056,-0.035124,0.074232,1.000165
2011-09-26T14:27:29.097585,12870,2.507979,-0.972558,0.282420,-0.033772,0.076542,0.999858
2011-09-26T14:27:29.107585,12880,2.363040,-1.132279,0.275783,-0.032421,0.078852,0.999551
2011-09-26T14:27:29.117585,12890,2.218101,-1.292000,0.269146,-0.031069,0.081162,0.999244
2011-09-26T14:27:29.127585,12900,2.073162,-1.451721,0.262510,-0.029718,0.083473,0.998937
2011-09-26T14:27:29.137585,12910,1.928223,-1.611442,0.255873,-0.028366,0.085783,0.998630
2011-09-26T14:27:29.147585,12920,1.783284,-1.771163,0.249237,-0.027015,0.088093,0.998323
2011-09-26T14:27:29.157585,12930,1.649305,-1.800241,0.244279,-0.026519,0.088825,1.000527
2011-09-26T14:27:29.167585,12940,1.516027,-1.820964,0.239428,-0.026077,0.089456,1.002891
2011-09-26T14:27:29.177585,12950,1.382748,-1.841687,0.234578,-0.025636,0.090087,1.005254
2011-09-26T14:27:29.187585,12960,1.249470,-1.862410,0.229727,-0.025195,0.090718,1.007618
2011-09-26T14:27:29.197585,12970,1.116191,-1.883133,0.224877,-0.024754,0.091349,1.009982
2011-09-26T14:27:29.207585,12980,0.982913,-1.903856,0.220026,-0.024312,0.091980,1.012346
2011-09-26T14:27:29.217585,12990,0.849635,-1.924579,0.215176,-0.023871,0.092610,1.014710
2011-09-26T14:27:29.227585,13000,0.716356,-1.945302,0.210325,-0.023430,0.093241,1.017074
2011-09-26T14:27:29.237585,13010,0.583078,-1.966025,0.205475,-0.022988,0.093872,1.019438
2011-09-26T14:27:29.247585,13020,0.449800,-1.986748,0.200624,-0.022547,0.094503,1.021802
2011-09-26T14:27:29.257585,13030,0.316521,-2.007471,0.195774,-0.022106,0.095134,1.024166
2011-09-26T14:27:29.267585,13040,0.175413,-1.919017,0.165186,-0.020066,0.094558,1.026723
2011-09-26T14:27:29.277585,13050,0.033866,-1.824464,0.133161,-0.017937,0.093915,1.029292
2011-09-26T14:27:29.287585,13060,-0.107680,-1.729912,0.101135,-0.015808,0.093271,1.031860
2011-09-26T14:27:29.297585,13070,-0.249226,-1.635359,0.069110,-0.013678,0.092628,1.034428
2011-09-26T14:27:29.307585,13080,-0.390772,-1.540807,0.037084,-0.011549,0.091985,1.036997
2011-09-26T14:27:29.317585,13090,-0.532318,-1.446254,0.005059,-0.009420,0.091341,1.039565
2011-09-26T14:27:29.327585,13100,-0.673864,-1.351702,-0.026967,-0.007291,0.090698,1.042133
2011-09-26T14:27:29.337585,13110,-0.815410,-1.257149,-0.058992,-0.005162,0.090055,1.044702
2011-09-26T14:27:29.347585,13120,-0.956957,-1.162596,-0.091018,-0.003032,0.089411,1.047270
2011-09-26T14:27:29.357585,13130,-1.098503,-1.068044,-0.123044,-0.000903,0.088768,1.049838
2011-09-26T14:27:29.367585,13140,-1.089137,-0.997286,-0.138586,-0.001995,0.083605,1.050151
2011-09-26T14:27:29.377585,13150,-1.070174,-0.928041,-0.153081,-0.003292,0.078156,1.050319
2011-09-26T14:27:29.387585,13160,-1.051212,-0.858796,-0.167575,-0.004588,0.072706,1.050488
2011-09-26T14:27:29.397585,13170,-1.032249,-0.789551,-0.182069,-0.005885,0.067256,1.050656
2011-09-26T14:27:29.407585,13180,-1.013286,-0.720306,-0.196564,-0.007181,0.061806,1.050825
2011-09-26T14:27:29.417585,13190,-0.994324,-0.651061,-0.211058,-0.008478,0.056356,1.050994
2011-09-26T14:27:29.427585,13200,-0.975361,-0.581816,-0.225553,-0.009774,0.050906,1.051162
2011-09-26T14:27:29.437585,13210,-0.956398,-0.512572,-0.240047,-0.011071,0.045456,1.051331
2011-09-26T14:27:29.447585,13220,-0.937436,-0.443327,-0.254541,-0.012368,0.040006,1.051499
2011-09-26T14:27:29.457585,13230,-0.918473,-0.374082,-0.269036,-0.013664,0.034556,1.051668
2011-09-26T14:27:29.467585,13240,-0.848873,-0.248952,-0.265030,-0.014133,0.035394,1.044304
2011-09-26T14:27:29.477585,13250,-0.776592,-0.120863,-0.260045,-0.014558,0.036565,1.036541
2011-09-26T14:27:29.487585,13260,-0.704311,0.007225,-0.255059,-0.014983,0.037735,1.028779
2011-09-26T14:27:29.497585,13270,-0.632030,0.135314,-0.250074,-0.015407,0.038906,1.021016
2011-09-26T14:27:29.507585,13280,-0.559749,0.263403,-0.245089,-0.015832,0.040077,1.013253
2011-09-26T14:27:29.517585,13290,-0.487467,0.391492,-0.240103,-0.016257,0.041248,1.005490
2011-09-26T14:27:29.527585,13300,-0.415186,0.519581,-0.235118,-0.016682,0.042419,0.997727
2011-09-26T14:27:29.537585,13310,-0.342905,0.647670,-0.230133,-0.017107,0.043589,0.989964
2011-09-26T14:27:29.547585,13320,-0.270624,0.775759,-0.225147,-0.017532,0.044760,0.982202
2011-09-26T14:27:29.557585,13330,-0.198343,0.903848,-0.220162,-0.017957,0.045931,0.974439
2011-09-26T14:27:29.567585,13340,-0.126062,1.031937,-0.215177,-0.018382,0.047102,0.966676
2011-09-26T14:27:29.577585,13350,-0.010240,1.096726,-0.209157,-0.019909,0.046638,0.967283
2011-09-26T14:27:29.587585,13360,0.108014,1.157980,-0.203080,-0.021497,0.046083,0.968357
2011-09-26T14:27:29.597585,13370,0.226268,1.219233,-0.197003,-0.023086,0.045527,0.969431
2011-09-26T14:27:29.607585,13380,0.344522,1.280487,-0.190926,-0.024675,0.044972,0.970506
2011-09-26T14:27:29.617585,13390,0.462776,1.341740,-0.184849,-0.026263,0.044417,0.971580
2011-09-26T14:27:29.627585,13400,0.581030,1.402994,-0.178772,-0.027852,0.043862,0.972654
2011-09-26T14:27:29.637585,13410,0.699284,1.464247,-0.172695,-0.029441,0.043307,0.973729
2011-09-26T14:27:29.647585,13420,0.817538,1.525501,-0.166618,-0.031029,0.042752,0.974803
2011-09-26T14:27:29.657585,13430,0.935792,1.586755,-0.160541,-0.032618,0.042197,0.975877
2011-09-26T14:27:29.667585,13440,1.054045,1.648008,-0.154463,-0.034207,0.041642,0.976952
2011-09-26T14:27:29.677585,13450,1.032553,1.542841,-0.149877,-0.035067,0.042643,0.976320
2011-09-26T14:27:29.687585,13460,1.002123,1.427031,-0.145385,-0.035881,0.043743,0.975579
2011-09-26T14:27:29.697585,13470,0.971693,1.311222,-0.140894,-0.036694,0.044844,0.974839
2011-09-26T14:27:29.707585,13480,0.941263,1.195412,-0.136403,-0.037508,0.045945,0.974098
2011-09-26T14:27:29.717585,13490,0.910833,1.079602,-0.131911,-0.038321,0.047045,0.973357
2011-09-26T14:27:29.727585,13500,0.880403,0.963793,-0.127420,-0.039135,0.048146,0.972617
2011-09-26T14:27:29.737585,13510,0.849974,0.847983,-0.122928,-0.039949,0.049246,0.971876
2011-09-26T14:27:29.747585,13520,0.819544,0.732173,-0.118437,-0.040762,0.050347,0.971135
2011-09-26T14:27:29.757585,13530,0.789114,0.616364,-0.113946,-0.041576,0.051448,0.970394
2011-09-26T14:27:29.767585,13540,0.758684,0.500554,-0.109454,-0.042390,0.052548,0.969654
2011-09-26T14:27:29.777585,13550,0.805132,0.360559,-0.097820,-0.041702,0.052190,0.974082
2011-09-26T14:27:29.787585,13560,0.855951,0.219189,-0.085779,-0.040929,0.051750,0.978804
2011-09-26T14:27:29.797585,13570,0.906769,0.077819,-0.073738,-0.040156,0.051309,0.983526
2011-09-26T14:27:29.807585,13580,0.957587,-0.063551,-0.061697,-0.039383,0.050868,0.988248
2011-09-26T14:27:29.817585,13590,1.008405,-0.204921,-0.049657,-0.038611,0.050427,0.992970
2011-09-26T14:27:29.827585,13600,1.059223,-0.346291,-0.037616,-0.037838,0.049986,0.997692
2011-09-26T14:27:29.837585,13610,1.110042,-0.487661,-0.025575,-0.037065,0.049546,1.002414
2011-09-26T14:27:29.847585,13620,1.160860,-0.629031,-0.013534,-0.036292,0.049105,1.007136
