pc_time,ts_ms,gyroX,gyroY,gyroZ,accelX,accelY,accelZ
2011-09-26T13:14:14.274189,0,-1.058345,-0.688082,-0.293695,-0.026436,0.032784,0.999870
2011-09-26T13:14:14.284189,10,-1.095296,-0.679988,-0.286904,-0.027455,0.032215,1.000822
2011-09-26T13:14:14.294189,20,-1.132247,-0.671895,-0.280113,-0.028475,0.031646,1.001774
2011-09-26T13:14:14.304189,30,-1.169198,-0.663801,-0.273323,-0.029494,0.031077,1.002726
2011-09-26T13:14:14.314189,40,-1.206149,-0.655707,-0.266532,-0.030513,0.030508,1.003679
2011-09-26T13:14:14.324189,50,-1.243100,-0.647614,-0.259741,-0.031532,0.029939,1.004631
2011-09-26T13:14:14.334189,60,-1.280051,-0.639520,-0.252950,-0.032551,0.029370,1.005583
2011-09-26T13:14:14.344189,70,-1.317002,-0.631427,-0.246159,-0.033571,0.028801,1.006535
2011-09-26T13:14:14.354189,80,-1.353953,-0.623333,-0.239369,-0.034590,0.028232,1.007487
2011-09-26T13:14:14.364189,90,-1.390904,-0.615239,-0.232578,-0.035609,0.027663,1.008440
2011-09-26T13:14:14.374189,100,-1.427480,-0.607176,-0.225829,-0.036622,0.027094,1.009393
2011-09-26T13:14:14.384189,110,-1.326134,-0.610344,-0.234505,-0.035214,0.026562,1.010748
2011-09-26T13:14:14.394189,120,-1.224789,-0.613512,-0.243181,-0.033805,0.026031,1.012104
2011-09-26T13:14:14.404189,130,-1.123443,-0.616680,-0.251856,-0.032397,0.025500,1.013459
2011-09-26T13:14:14.414189,140,-1.022097,-0.619848,-0.260532,-0.030989,0.024969,1.014814
2011-09-26T13:14:14.424189,150,-0.920752,-0.623016,-0.269208,-0.029581,0.024437,1.016169
2011-09-26T13:14:14.434189,160,-0.819406,-0.626184,-0.277884,-0.028173,0.023906,1.017525
2011-09-26T13:14:14.444189,170,-0.718060,-0.629352,-0.286560,-0.026764,0.023375,1.018880
2011-09-26T13:14:14.454189,180,-0.616715,-0.632520,-0.295236,-0.025356,0.022843,1.020235
2011-09-26T13:14:14.464189,190,-0.515369,-0.635688,-0.303912,-0.023948,0.022312,1.021591
2011-09-26T13:14:14.474189,200,-0.414023,-0.638856,-0.312588,-0.022540,0.021781,1.022946
2011-09-26T13:14:14.484189,210,-0.312994,-0.641929,-0.321210,-0.021145,0.021260,1.024290
2011-09-26T13:14:14.494189,220,-0.299770,-0.618519,-0.315030,-0.023469,0.023540,1.022624
2011-09-26T13:14:14.504189,230,-0.286546,-0.595110,-0.308850,-0.025793,0.025821,1.020958
2011-09-26T13:14:14.514189,240,-0.273321,-0.571700,-0.302671,-0.028117,0.028101,1.019291
2011-09-26T13:14:14.524189,250,-0.260097,-0.548290,-0.296491,-0.030440,0.030382,1.017625
2011-09-26T13:14:14.534189,260,-0.246873,-0.524880,-0.290311,-0.032764,0.032663,1.015958
2011-09-26T13:14:14.544189,270,-0.233649,-0.501470,-0.284131,-0.035088,0.034943,1.014292
2011-09-26T13:14:14.554189,280,-0.220425,-0.478060,-0.277951,-0.037412,0.037224,1.012625
2011-09-26T13:14:14.564189,290,-0.207201,-0.454651,-0.271771,-0.039736,0.039504,1.010959
2011-09-26T13:14:14.574189,300,-0.193977,-0.431241,-0.265592,-0.042060,0.041785,1.009293
2011-09-26T13:14:14.584189,310,-0.180753,-0.407831,-0.259412,-0.044384,0.044065,1.007626
2011-09-26T13:14:14.594189,320,-0.083551,-0.380779,-0.264908,-0.041174,0.040834,1.010012
2011-09-26T13:14:14.604189,330,0.013887,-0.353717,-0.270438,-0.037949,0.037587,1.012409
2011-09-26T13:14:14.614189,340,0.111325,-0.326655,-0.275967,-0.034723,0.034340,1.014806
2011-09-26T13:14:14.624189,350,0.208763,-0.299592,-0.281497,-0.031498,0.031093,1.017203
2011-09-26T13:14:14.634189,360,0.306201,-0.272530,-0.287026,-0.028272,0.027846,1.019600
2011-09-26T13:14:14.644189,370,0.403639,-0.245468,-0.292556,-0.025047,0.024599,1.021997
2011-09-26T13:14:14.654189,380,0.501077,-0.218406,-0.298085,-0.021821,0.021352,1.024394
2011-09-26T13:14:14.664189,390,0.598515,-0.191343,-0.303614,-0.018596,0.018105,1.026791
2011-09-26T13:14:14.674189,400,0.695953,-0.164281,-0.309144,-0.015370,0.014858,1.029188
2011-09-26T13:14:14.684189,410,0.793391,-0.137219,-0.314673,-0.012145,0.011611,1.031585
2011-09-26T13:14:14.694189,420,0.851805,-0.104490,-0.301595,-0.013628,0.011901,1.028478
2011-09-26T13:14:14.704189,430,0.910031,-0.071733,-0.288427,-0.015134,0.012207,1.025345
2011-09-26T13:14:14.714189,440,0.968258,-0.038976,-0.275259,-0.016640,0.012513,1.022212
2011-09-26T13:14:14.724189,450,1.026484,-0.006220,-0.262091,-0.018146,0.012820,1.019078
2011-09-26T13:14:14.734189,460,1.084710,0.026537,-0.248922,-0.019652,0.013126,1.015945
2011-09-26T13:14:14.744189,470,1.142936,0.059294,-0.235754,-0.021158,0.013433,1.012812
2011-09-26T13:14:14.754189,480,1.201162,0.092050,-0.222586,-0.022664,0.013739,1.009678
2011-09-26T13:14:14.764189,490,1.259388,0.124807,-0.209418,-0.024170,0.014045,1.006545
2011-09-26T13:14:14.774189,500,1.317614,0.157564,-0.196250,-0.025676,0.014352,1.003411
2011-09-26T13:14:14.784189,510,1.375840,0.190320,-0.183082,-0.027182,0.014658,1.000278
2011-09-26T13:14:14.794189,520,1.434033,0.223138,-0.169869,-0.028683,0.014970,0.997150
2011-09-26T13:14:14.804189,530,1.476354,0.285100,-0.135598,-0.027577,0.017954,0.996704
2011-09-26T13:14:14.814189,540,1.518676,0.347061,-0.101327,-0.026472,0.020937,0.996257
2011-09-26T13:14:14.824189,550,1.560997,0.409022,-0.067056,-0.025366,0.023920,0.995811
2011-09-26T13:14:14.834189,560,1.603318,0.470983,-0.032785,-0.024260,0.026903,0.995364
2011-09-26T13:14:14.844189,570,1.645639,0.532945,0.001486,-0.023155,0.029887,0.994918
2011-09-26T13:14:14.854189,580,1.687961,0.594906,0.035757,-0.022049,0.032870,0.994471
2011-09-26T13:14:14.864189,590,1.730282,0.656867,0.070028,-0.020944,0.035853,0.994024
2011-09-26T13:14:14.874189,600,1.772603,0.718829,0.104299,-0.019838,0.038837,0.993578
2011-09-26T13:14:14.884189,610,1.814924,0.780790,0.138570,-0.018733,0.041820,0.993131
2011-09-26T13:14:14.894189,620,1.856891,0.842434,0.172801,-0.017633,0.044804,0.992674
2011-09-26T13:14:14.904189,630,1.808414,0.823220,0.196922,-0.017997,0.048103,0.989526
2011-09-26T13:14:14.914189,640,1.759937,0.804005,0.221042,-0.018360,0.051402,0.986378
2011-09-26T13:14:14.924189,650,1.711460,0.784791,0.245162,-0.018724,0.054700,0.983229
2011-09-26T13:14:14.934189,660,1.662983,0.765577,0.269283,-0.019088,0.057999,0.980081
2011-09-26T13:14:14.944189,670,1.614505,0.746363,0.293403,-0.019451,0.061298,0.976933
2011-09-26T13:14:14.954189,680,1.566028,0.727148,0.317523,-0.019815,0.064596,0.973784
2011-09-26T13:14:14.964189,690,1.517551,0.707934,0.341644,-0.020179,0.067895,0.970636
2011-09-26T13:14:14.974189,700,1.469074,0.688720,0.365764,-0.020542,0.071194,0.967488
2011-09-26T13:14:14.984189,710,1.420597,0.669505,0.389885,-0.020906,0.074492,0.964340
2011-09-26T13:14:14.994189,720,1.372198,0.649655,0.413782,-0.021259,0.077769,0.961225
2011-09-26T13:14:15.004189,730,1.337643,0.516760,0.397961,-0.019709,0.077203,0.964046
2011-09-26T13:14:15.014189,740,1.303088,0.383864,0.382140,-0.018160,0.076636,0.966868
2011-09-26T13:14:15.024189,750,1.268533,0.250968,0.366319,-0.016611,0.076070,0.969689
2011-09-26T13:14:15.034189,760,1.233978,0.118072,0.350498,-0.015062,0.075504,0.972511
2011-09-26T13:14:15.044189,770,1.199423,-0.014824,0.334677,-0.013512,0.074937,0.975332
2011-09-26T13:14:15.054189,780,1.164868,-0.147719,0.318856,-0.011963,0.074371,0.978154
2011-09-26T13:14:15.064189,790,1.130313,-0.280615,0.303035,-0.010414,0.073804,0.980975
2011-09-26T13:14:15.074189,800,1.095758,-0.413511,0.287214,-0.008864,0.073238,0.983797
2011-09-26T13:14:15.084189,810,1.061203,-0.546407,0.271393,-0.007315,0.072671,0.986618
2011-09-26T13:14:15.094189,820,1.026648,-0.679303,0.255572,-0.005766,0.072105,0.989440
2011-09-26T13:14:15.104189,830,0.991794,-0.811857,0.239787,-0.004223,0.071534,0.992268
2011-09-26T13:14:15.114189,840,0.860952,-0.834629,0.235517,-0.004747,0.069367,0.997410
2011-09-26T13:14:15.124189,850,0.730109,-0.857401,0.231248,-0.005272,0.067199,1.002552
2011-09-26T13:14:15.134189,860,0.599267,-0.880174,0.226978,-0.005796,0.065032,1.007694
2011-09-26T13:14:15.144189,870,0.468425,-0.902946,0.222708,-0.006321,0.062865,1.012836
2011-09-26T13:14:15.154189,880,0.337582,-0.925718,0.218438,-0.006845,0.060698,1.017978
2011-09-26T13:14:15.164189,890,0.206740,-0.948491,0.214169,-0.007369,0.058531,1.023119
2011-09-26T13:14:15.174189,900,0.075898,-0.971263,0.209899,-0.007894,0.056364,1.028261
2011-09-26T13:14:15.184189,910,-0.054945,-0.994035,0.205629,-0.008418,0.054197,1.033403
2011-09-26T13:14:15.194189,920,-0.185787,-1.016807,0.201359,-0.008943,0.052030,1.038545
2011-09-26T13:14:15.204189,930,-0.316630,-1.039580,0.197090,-0.009467,0.049863,1.043687
2011-09-26T13:14:15.214189,940,-0.209979,-1.073849,0.183367,-0.007250,0.052512,1.043461
2011-09-26T13:14:15.224189,950,-0.101027,-1.108230,0.169554,-0.005006,0.055208,1.043184
2011-09-26T13:14:15.234189,960,0.007925,-1.142610,0.155740,-0.002762,0.057904,1.042906
2011-09-26T13:14:15.244189,970,0.116877,-1.176991,0.141926,-0.000519,0.060599,1.042628
2011-09-26T13:14:15.254189,980,0.225829,-1.211372,0.128113,0.001725,0.063295,1.042350
2011-09-26T13:14:15.264189,990,0.334781,-1.245753,0.114299,0.003969,0.065991,1.042073
2011-09-26T13:14:15.274189,1000,0.443733,-1.280133,0.100485,0.006213,0.068687,1.041795
2011-09-26T13:14:15.284189,1010,0.552684,-1.314514,0.086672,0.008457,0.071383,1.041517
2011-09-26T13:14:15.294189,1020,0.661636,-1.348895,0.072858,0.010700,0.074079,1.041240
2011-09-26T13:14:15.304189,1030,0.770588,-1.383275,0.059044,0.012944,0.076774,1.040962
2011-09-26T13:14:15.314189,1040,0.879540,-1.417656,0.045230,0.015188,0.079470,1.040684
2011-09-26T13:14:15.324189,1050,0.736734,-1.242542,0.029087,0.013692,0.072838,1.038776
2011-09-26T13:14:15.334189,1060,0.593472,-1.067049,0.012939,0.012189,0.066188,1.036865
2011-09-26T13:14:15.344189,1070,0.450210,-0.891556,-0.003209,0.010686,0.059539,1.034955
2011-09-26T13:14:15.354189,1080,0.306948,-0.716063,-0.019357,0.009183,0.052889,1.033044
2011-09-26T13:14:15.364189,1090,0.163686,-0.540570,-0.035505,0.007681,0.046240,1.031133
2011-09-26T13:14:15.374189,1100,0.020424,-0.365076,-0.051652,0.006178,0.039590,1.029222
2011-09-26T13:14:15.384189,1110,-0.122838,-0.189583,-0.067800,0.004675,0.032941,1.027311
2011-09-26T13:14:15.394189,1120,-0.266100,-0.014090,-0.083948,0.003172,0.026291,1.025401
2011-09-26T13:14:15.404189,1130,-0.409362,0.161403,-0.100096,0.001669,0.019642,1.023490
2011-09-26T13:14:15.414189,1140,-0.552624,0.336896,-0.116244,0.000167,0.012993,1.021579
2011-09-26T13:14:15.424189,1150,-0.522508,0.440963,-0.157242,0.000744,0.015127,1.019192
2011-09-26T13:14:15.434189,1160,-0.490357,0.544191,-0.198533,0.001347,0.017365,1.016799
2011-09-26T13:14:15.444189,1170,-0.458207,0.647419,-0.239823,0.001949,0.019603,1.014406
2011-09-26T13:14:15.454189,1180,-0.426057,0.750648,-0.281113,0.002551,0.021841,1.012013
2011-09-26T13:14:15.464189,1190,-0.393907,0.853876,-0.322403,0.003153,0.024078,1.009620
2011-09-26T13:14:15.474189,1200,-0.361757,0.957104,-0.363693,0.003755,0.026316,1.007227
2011-09-26T13:14:15.484189,1210,-0.329606,1.060333,-0.404983,0.004358,0.028554,1.004834
2011-09-26T13:14:15.494189,1220,-0.297456,1.163561,-0.446273,0.004960,0.030792,1.002442
2011-09-26T13:14:15.504189,1230,-0.265306,1.266790,-0.487564,0.005562,0.033030,1.000049
2011-09-26T13:14:15.514189,1240,-0.233345,1.369756,-0.528814,0.006158,0.035267,0.997649
2011-09-26T13:14:15.524189,1250,-0.277401,1.367780,-0.554054,0.004339,0.037311,0.992456
2011-09-26T13:14:15.534189,1260,-0.321456,1.365804,-0.579294,0.002521,0.039355,0.987264
2011-09-26T13:14:15.544189,1270,-0.365511,1.363828,-0.604535,0.000702,0.041399,0.982071
2011-09-26T13:14:15.554189,1280,-0.409566,1.361852,-0.629775,-0.001117,0.043443,0.976879
2011-09-26T13:14:15.564189,1290,-0.453621,1.359876,-0.655015,-0.002935,0.045487,0.971687
2011-09-26T13:14:15.574189,1300,-0.497676,1.357900,-0.680256,-0.004754,0.047530,0.966494
2011-09-26T13:14:15.584189,1310,-0.541731,1.355923,-0.705496,-0.006573,0.049574,0.961302
2011-09-26T13:14:15.594189,1320,-0.585786,1.353947,-0.730736,-0.008392,0.051618,0.956109
2011-09-26T13:14:15.604189,1330,-0.629841,1.351971,-0.755977,-0.010210,0.053662,0.950917
2011-09-26T13:14:15.614189,1340,-0.673896,1.349995,-0.781217,-0.012029,0.055706,0.945724
2011-09-26T13:14:15.624189,1350,-0.717885,1.347907,-0.806419,-0.013843,0.057739,0.940547
2011-09-26T13:14:15.634189,1360,-0.730222,1.292399,-0.813295,-0.013172,0.054721,0.942465
2011-09-26T13:14:15.644189,1370,-0.742559,1.236892,-0.820171,-0.012501,0.051704,0.944383
2011-09-26T13:14:15.654189,1380,-0.754896,1.181385,-0.827047,-0.011831,0.048686,0.946302
2011-09-26T13:14:15.664189,1390,-0.767233,1.125877,-0.833923,-0.011160,0.045668,0.948220
2011-09-26T13:14:15.674189,1400,-0.779570,1.070370,-0.840799,-0.010490,0.042650,0.950138
2011-09-26T13:14:15.684189,1410,-0.791908,1.014863,-0.847676,-0.009819,0.039632,0.952057
2011-09-26T13:14:15.694189,1420,-0.804245,0.959355,-0.854552,-0.009148,0.036614,0.953975
2011-09-26T13:14:15.704189,1430,-0.816582,0.903848,-0.861428,-0.008478,0.033596,0.955893
2011-09-26T13:14:15.714189,1440,-0.828919,0.848341,-0.868304,-0.007807,0.030578,0.957812
2011-09-26T13:14:15.724189,1450,-0.841256,0.792833,-0.875180,-0.007137,0.027560,0.959730
2011-09-26T13:14:15.734189,1460,-0.823317,0.713123,-0.875949,-0.006980,0.027334,0.963904
2011-09-26T13:14:15.744189,1470,-0.804657,0.632837,-0.876573,-0.006836,0.027175,0.968132
2011-09-26T13:14:15.754189,1480,-0.785998,0.552551,-0.877197,-0.006692,0.027015,0.972360
2011-09-26T13:14:15.764189,1490,-0.767339,0.472265,-0.877820,-0.006548,0.026856,0.976588
2011-09-26T13:14:15.774189,1500,-0.748679,0.391979,-0.878444,-0.006404,0.026696,0.980816
2011-09-26T13:14:15.784189,1510,-0.730020,0.311693,-0.879068,-0.006260,0.026537,0.985044
2011-09-26T13:14:15.794189,1520,-0.711361,0.231407,-0.879692,-0.006116,0.026377,0.989272
2011-09-26T13:14:15.804189,1530,-0.692701,0.151121,-0.880315,-0.005972,0.026218,0.993500
2011-09-26T13:14:15.814189,1540,-0.674042,0.070835,-0.880939,-0.005827,0.026058,0.997728
2011-09-26T13:14:15.824189,1550,-0.655383,-0.009451,-0.881563,-0.005683,0.025899,1.001956
2011-09-26T13:14:15.834189,1560,-0.636542,-0.089502,-0.882198,-0.005537,0.025744,1.006150
2011-09-26T13:14:15.844189,1570,-0.562993,-0.098415,-0.886342,-0.004851,0.026861,1.000020
2011-09-26T13:14:15.854189,1580,-0.489444,-0.107328,-0.890485,-0.004164,0.027978,0.993891
2011-09-26T13:14:15.864189,1590,-0.415895,-0.116241,-0.894628,-0.003477,0.029095,0.987761
2011-09-26T13:14:15.874189,1600,-0.342346,-0.125153,-0.898771,-0.002790,0.030212,0.981632
2011-09-26T13:14:15.884189,1610,-0.268797,-0.134066,-0.902914,-0.002104,0.031330,0.975502
2011-09-26T13:14:15.894189,1620,-0.195248,-0.142979,-0.907057,-0.001417,0.032447,0.969372
2011-09-26T13:14:15.904189,1630,-0.121699,-0.151892,-0.911200,-0.000730,0.033564,0.963243
2011-09-26T13:14:15.914189,1640,-0.048150,-0.160805,-0.915343,-0.000043,0.034681,0.957113
2011-09-26T13:14:15.924189,1650,0.025399,-0.169717,-0.919486,0.000644,0.035798,0.950984
2011-09-26T13:14:15.934189,1660,0.098820,-0.178720,-0.923598,0.001329,0.036908,0.944875
2011-09-26T13:14:15.944189,1670,0.091685,-0.243940,-0.908285,0.001387,0.033016,0.951743
2011-09-26T13:14:15.954189,1680,0.084550,-0.309161,-0.892972,0.001444,0.029125,0.958612
2011-09-26T13:14:15.964189,1690,0.077415,-0.374382,-0.877658,0.001501,0.025233,0.965480
2011-09-26T13:14:15.974189,1700,0.070281,-0.439602,-0.862345,0.001558,0.021341,0.972349
2011-09-26T13:14:15.984189,1710,0.063146,-0.504823,-0.847032,0.001616,0.017450,0.979217
2011-09-26T13:14:15.994189,1720,0.056011,-0.570044,-0.831718,0.001673,0.013558,0.986086
2011-09-26T13:14:16.004189,1730,0.048876,-0.635265,-0.816405,0.001730,0.009667,0.992954
2011-09-26T13:14:16.014189,1740,0.041742,-0.700485,-0.801091,0.001788,0.005775,0.999823
2011-09-26T13:14:16.024189,1750,0.034607,-0.765706,-0.785778,0.001845,0.001883,1.006691
2011-09-26T13:14:16.034189,1760,0.027472,-0.830927,-0.770465,0.001902,-0.002008,1.013560
2011-09-26T13:14:16.044189,1770,0.058538,-0.818726,-0.771555,0.002343,-0.000107,1.015000
2011-09-26T13:14:16.054189,1780,0.089617,-0.806500,-0.772650,0.002784,0.001796,1.016439
2011-09-26T13:14:16.064189,1790,0.120695,-0.794274,-0.773746,0.003224,0.003700,1.017878
2011-09-26T13:14:16.074189,1800,0.151773,-0.782049,-0.774841,0.003665,0.005603,1.019316
2011-09-26T13:14:16.084189,1810,0.182851,-0.769823,-0.775936,0.004106,0.007506,1.020755
2011-09-26T13:14:16.094189,1820,0.213930,-0.757597,-0.777032,0.004546,0.009410,1.022194
2011-09-26T13:14:16.104189,1830,0.245008,-0.745372,-0.778127,0.004987,0.011313,1.023632
2011-09-26T13:14:16.114189,1840,0.276086,-0.733146,-0.779222,0.005428,0.013216,1.025071
2011-09-26T13:14:16.124189,1850,0.307165,-0.720920,-0.780318,0.005869,0.015120,1.026510
2011-09-26T13:14:16.134189,1860,0.338243,-0.708695,-0.781413,0.006309,0.017023,1.027948
2011-09-26T13:14:16.144189,1870,0.302702,-0.688122,-0.772993,0.006649,0.017004,1.026209
2011-09-26T13:14:16.154189,1880,0.266899,-0.667517,-0.764535,0.006988,0.016978,1.024457
2011-09-26T13:14:16.164189,1890,0.231096,-0.646913,-0.756077,0.007327,0.016951,1.022705
2011-09-26T13:14:16.174189,1900,0.195294,-0.626308,-0.747620,0.007666,0.016925,1.020954
2011-09-26T13:14:16.184189,1910,0.159491,-0.605703,-0.739162,0.008005,0.016899,1.019202
2011-09-26T13:14:16.194189,1920,0.123689,-0.585098,-0.730705,0.008344,0.016872,1.017450
2011-09-26T13:14:16.204189,1930,0.087886,-0.564493,-0.722247,0.008683,0.016846,1.015698
2011-09-26T13:14:16.214189,1940,0.052083,-0.543888,-0.713789,0.009022,0.016820,1.013946
2011-09-26T13:14:16.224189,1950,0.016281,-0.523283,-0.705332,0.009361,0.016793,1.012194
2011-09-26T13:14:16.234189,1960,-0.019522,-0.502678,-0.696874,0.009700,0.016767,1.010443
2011-09-26T13:14:16.244189,1970,-0.055324,-0.482073,-0.688416,0.010039,0.016741,1.008691
2011-09-26T13:14:16.254189,1980,-0.169828,-0.486660,-0.679842,0.009628,0.017432,1.008290
2011-09-26T13:14:16.264189,1990,-0.284877,-0.491421,-0.671266,0.009212,0.018128,1.007899
2011-09-26T13:14:16.274189,2000,-0.399927,-0.496182,-0.662691,0.008795,0.018824,1.007508
2011-09-26T13:14:16.284189,2010,-0.514976,-0.500943,-0.654115,0.008379,0.019520,1.007117
2011-09-26T13:14:16.294189,2020,-0.630025,-0.505704,-0.645540,0.007963,0.020216,1.006726
2011-09-26T13:14:16.304189,2030,-0.745075,-0.510464,-0.636964,0.007547,0.020912,1.006335
2011-09-26T13:14:16.314189,2040,-0.860124,-0.515225,-0.628389,0.007131,0.021608,1.005944
2011-09-26T13:14:16.324189,2050,-0.975173,-0.519986,-0.619813,0.006714,0.022304,1.005552
2011-09-26T13:14:16.334189,2060,-1.090222,-0.524747,-0.611238,0.006298,0.023000,1.005161
2011-09-26T13:14:16.344189,2070,-1.205224,-0.529476,-0.602681,0.005883,0.023696,1.004772
2011-09-26T13:14:16.354189,2080,-1.272573,-0.502097,-0.612985,0.006517,0.024333,1.005943
2011-09-26T13:14:16.364189,2090,-1.339921,-0.474717,-0.623289,0.007151,0.024971,1.007114
2011-09-26T13:14:16.374189,2100,-1.407270,-0.447337,-0.633593,0.007785,0.025608,1.008285
2011-09-26T13:14:16.384189,2110,-1.474619,-0.419958,-0.643897,0.008418,0.026246,1.009456
2011-09-26T13:14:16.394189,2120,-1.541968,-0.392578,-0.654201,0.009052,0.026884,1.010627
2011-09-26T13:14:16.404189,2130,-1.609316,-0.365199,-0.664505,0.009686,0.027521,1.011797
2011-09-26T13:14:16.414189,2140,-1.676665,-0.337819,-0.674809,0.010320,0.028159,1.012968
2011-09-26T13:14:16.424189,2150,-1.744014,-0.310439,-0.685113,0.010954,0.028796,1.014139
2011-09-26T13:14:16.434189,2160,-1.811362,-0.283060,-0.695417,0.011588,0.029434,1.015310
2011-09-26T13:14:16.444189,2170,-1.878711,-0.255680,-0.705721,0.012222,0.030071,1.016481
2011-09-26T13:14:16.454189,2180,-1.946060,-0.228301,-0.716024,0.012855,0.030709,1.017652
2011-09-26T13:14:16.464189,2190,-1.932686,-0.141355,-0.733402,0.012265,0.029185,1.017153
2011-09-26T13:14:16.474189,2200,-1.919248,-0.054361,-0.750785,0.011674,0.027660,1.016653
2011-09-26T13:14:16.484189,2210,-1.905809,0.032633,-0.768168,0.011082,0.026134,1.016153
2011-09-26T13:14:16.494189,2220,-1.892370,0.119626,-0.785551,0.010491,0.024609,1.015653
2011-09-26T13:14:16.504189,2230,-1.878931,0.206620,-0.802934,0.009899,0.023083,1.015153
2011-09-26T13:14:16.514189,2240,-1.865493,0.293614,-0.820317,0.009308,0.021558,1.014653
2011-09-26T13:14:16.524189,2250,-1.852054,0.380608,-0.837700,0.008716,0.020032,1.014153
2011-09-26T13:14:16.534189,2260,-1.838615,0.467601,-0.855083,0.008125,0.018506,1.013653
2011-09-26T13:14:16.544189,2270,-1.825176,0.554595,-0.872466,0.007533,0.016981,1.013153
2011-09-26T13:14:16.554189,2280,-1.811738,0.641589,-0.889849,0.006942,0.015455,1.012653
2011-09-26T13:14:16.564189,2290,-1.730913,0.659264,-0.880338,0.005502,0.013859,1.008686
2011-09-26T13:14:16.574189,2300,-1.649756,0.676597,-0.870695,0.004058,0.012262,1.004702
2011-09-26T13:14:16.584189,2310,-1.568598,0.693930,-0.861052,0.002614,0.010665,1.000718
2011-09-26T13:14:16.594189,2320,-1.487441,0.711264,-0.851409,0.001170,0.009068,0.996734
2011-09-26T13:14:16.604189,2330,-1.406284,0.728597,-0.841766,-0.000274,0.007471,0.992750
2011-09-26T13:14:16.614189,2340,-1.325127,0.745930,-0.832122,-0.001718,0.005874,0.988766
2011-09-26T13:14:16.624189,2350,-1.243970,0.763263,-0.822479,-0.003162,0.004277,0.984782
2011-09-26T13:14:16.634189,2360,-1.162812,0.780597,-0.812836,-0.004606,0.002681,0.980798
2011-09-26T13:14:16.644189,2370,-1.081655,0.797930,-0.803193,-0.006050,0.001084,0.976814
2011-09-26T13:14:16.654189,2380,-1.000498,0.815263,-0.793550,-0.007494,-0.000513,0.972830
2011-09-26T13:14:16.664189,2390,-0.870976,0.685053,-0.762209,-0.007683,-0.001724,0.975741
2011-09-26T13:14:16.674189,2400,-0.741299,0.554369,-0.730798,-0.007867,-0.002934,0.978675
2011-09-26T13:14:16.684189,2410,-0.611622,0.423686,-0.699387,-0.008051,-0.004143,0.981608
2011-09-26T13:14:16.694189,2420,-0.481945,0.293002,-0.667976,-0.008235,-0.005353,0.984541
2011-09-26T13:14:16.704189,2430,-0.352268,0.162318,-0.636565,-0.008419,-0.006563,0.987475
2011-09-26T13:14:16.714189,2440,-0.222591,0.031635,-0.605154,-0.008603,-0.007772,0.990408
2011-09-26T13:14:16.724189,2450,-0.092913,-0.099049,-0.573743,-0.008787,-0.008982,0.993341
2011-09-26T13:14:16.734189,2460,0.036764,-0.229732,-0.542332,-0.008971,-0.010192,0.996275
2011-09-26T13:14:16.744189,2470,0.166441,-0.360416,-0.510922,-0.009155,-0.011401,0.999208
2011-09-26T13:14:16.754189,2480,0.296118,-0.491100,-0.479511,-0.009339,-0.012611,1.002141
2011-09-26T13:14:16.764189,2490,0.425795,-0.621783,-0.448100,-0.009523,-0.013821,1.005075
2011-09-26T13:14:16.774189,2500,0.549806,-0.685282,-0.434971,-0.009762,-0.010971,1.006914
2011-09-26T13:14:16.784189,2510,0.673778,-0.748314,-0.421969,-0.010001,-0.008093,1.008747
2011-09-26T13:14:16.794189,2520,0.797749,-0.811347,-0.408967,-0.010240,-0.005215,1.010579
2011-09-26T13:14:16.804189,2530,0.921721,-0.874380,-0.395965,-0.010479,-0.002337,1.012411
2011-09-26T13:14:16.814189,2540,1.045693,-0.937412,-0.382963,-0.010718,0.000541,1.014243
2011-09-26T13:14:16.824189,2550,1.169664,-1.000445,-0.369961,-0.010957,0.003419,1.016075
2011-09-26T13:14:16.834189,2560,1.293636,-1.063478,-0.356959,-0.011196,0.006297,1.017907
2011-09-26T13:14:16.844189,2570,1.417608,-1.126510,-0.343957,-0.011435,0.009175,1.019739
2011-09-26T13:14:16.854189,2580,1.541579,-1.189543,-0.330955,-0.011674,0.012053,1.021571
2011-09-26T13:14:16.864189,2590,1.665551,-1.252576,-0.317953,-0.011913,0.014931,1.023403
2011-09-26T13:14:16.874189,2600,1.575593,-1.234442,-0.278799,-0.011491,0.015390,1.024712
2011-09-26T13:14:16.884189,2610,1.484728,-1.215963,-0.239534,-0.011066,0.015838,1.026019
2011-09-26T13:14:16.894189,2620,1.393863,-1.197485,-0.200269,-0.010640,0.016287,1.027326
2011-09-26T13:14:16.904189,2630,1.302998,-1.179006,-0.161004,-0.010215,0.016736,1.028633
2011-09-26T13:14:16.914189,2640,1.212132,-1.160528,-0.121739,-0.009790,0.017184,1.029940
2011-09-26T13:14:16.924189,2650,1.121267,-1.142050,-0.082475,-0.009365,0.017633,1.031247
2011-09-26T13:14:16.934189,2660,1.030402,-1.123571,-0.043210,-0.008939,0.018082,1.032554
2011-09-26T13:14:16.944189,2670,0.939537,-1.105093,-0.003945,-0.008514,0.018530,1.033861
2011-09-26T13:14:16.954189,2680,0.848672,-1.086614,0.035320,-0.008089,0.018979,1.035168
2011-09-26T13:14:16.964189,2690,0.757807,-1.068136,0.074585,-0.007664,0.019427,1.036475
2011-09-26T13:14:16.974189,2700,0.703577,-0.902435,0.099910,-0.008270,0.022445,1.034992
2011-09-26T13:14:16.984189,2710,0.649495,-0.736142,0.125178,-0.008880,0.025474,1.033497
2011-09-26T13:14:16.994189,2720,0.595413,-0.569849,0.150447,-0.009490,0.028502,1.032002
2011-09-26T13:14:17.004189,2730,0.541331,-0.403555,0.175715,-0.010101,0.031530,1.030507
2011-09-26T13:14:17.014189,2740,0.487248,-0.237262,0.200984,-0.010711,0.034559,1.029012
2011-09-26T13:14:17.024189,2750,0.433166,-0.070969,0.226253,-0.011322,0.037587,1.027517
2011-09-26T13:14:17.034189,2760,0.379084,0.095324,0.251521,-0.011932,0.040615,1.026023
2011-09-26T13:14:17.044189,2770,0.325002,0.261617,0.276790,-0.012542,0.043643,1.024528
2011-09-26T13:14:17.054189,2780,0.270919,0.427910,0.302059,-0.013153,0.046672,1.023033
2011-09-26T13:14:17.064189,2790,0.216837,0.594203,0.327327,-0.013763,0.049700,1.021538
2011-09-26T13:14:17.074189,2800,0.162755,0.760496,0.352596,-0.014373,0.052728,1.020043
2011-09-26T13:14:17.084189,2810,0.057360,0.854242,0.362855,-0.014162,0.052359,1.015230
2011-09-26T13:14:17.094189,2820,-0.048523,0.947299,0.372972,-0.013943,0.051958,1.010386
2011-09-26T13:14:17.104189,2830,-0.154405,1.040356,0.383089,-0.013724,0.051557,1.005541
2011-09-26T13:14:17.114189,2840,-0.260288,1.133414,0.393206,-0.013505,0.051156,1.000697
2011-09-26T13:14:17.124189,2850,-0.366170,1.226471,0.403323,-0.013286,0.050755,0.995852
2011-09-26T13:14:17.134189,2860,-0.472052,1.319528,0.413440,-0.013068,0.050353,0.991008
2011-09-26T13:14:17.144189,2870,-0.577935,1.412586,0.423557,-0.012849,0.049952,0.986164
2011-09-26T13:14:17.154189,2880,-0.683817,1.505643,0.433673,-0.012630,0.049551,0.981319
2011-09-26T13:14:17.164189,2890,-0.789699,1.598700,0.443790,-0.012411,0.049150,0.976475
2011-09-26T13:14:17.174189,2900,-0.895582,1.691758,0.453907,-0.012192,0.048748,0.971630
2011-09-26T13:14:17.184189,2910,-0.857706,1.637077,0.453145,-0.013892,0.049408,0.971263
2011-09-26T13:14:17.194189,2920,-0.818423,1.580950,0.452277,-0.015611,0.050079,0.970940
2011-09-26T13:14:17.204189,2930,-0.779140,1.524823,0.451409,-0.017330,0.050749,0.970617
2011-09-26T13:14:17.214189,2940,-0.739857,1.468696,0.450540,-0.019049,0.051419,0.970294
2011-09-26T13:14:17.224189,2950,-0.700575,1.412569,0.449672,-0.020768,0.052089,0.969971
2011-09-26T13:14:17.234189,2960,-0.661292,1.356442,0.448804,-0.022487,0.052760,0.969648
2011-09-26T13:14:17.244189,2970,-0.622009,1.300315,0.447935,-0.024206,0.053430,0.969324
2011-09-26T13:14:17.254189,2980,-0.582726,1.244188,0.447067,-0.025925,0.054100,0.969001
2011-09-26T13:14:17.264189,2990,-0.543443,1.188061,0.446199,-0.027644,0.054770,0.968678
2011-09-26T13:14:17.274189,3000,-0.504160,1.131934,0.445330,-0.029362,0.055441,0.968355
2011-09-26T13:14:17.284189,3010,-0.443452,1.031576,0.472770,-0.029918,0.052737,0.968649
2011-09-26T13:14:17.294189,3020,-0.382453,0.930616,0.500593,-0.030459,0.049988,0.968951
2011-09-26T13:14:17.304189,3030,-0.321454,0.829656,0.528417,-0.030999,0.047239,0.969253
2011-09-26T13:14:17.314189,3040,-0.260455,0.728697,0.556241,-0.031539,0.044490,0.969555
2011-09-26T13:14:17.324189,3050,-0.199456,0.627737,0.584065,-0.032079,0.041740,0.969857
2011-09-26T13:14:17.334189,3060,-0.138457,0.526778,0.611889,-0.032619,0.038991,0.970159
2011-09-26T13:14:17.344189,3070,-0.077458,0.425818,0.639712,-0.033160,0.036242,0.970461
2011-09-26T13:14:17.354189,3080,-0.016459,0.324858,0.667536,-0.033700,0.033493,0.970762
2011-09-26T13:14:17.364189,3090,0.044540,0.223899,0.695360,-0.034240,0.030743,0.971064
2011-09-26T13:14:17.374189,3100,0.105539,0.122939,0.723184,-0.034780,0.027994,0.971366
2011-09-26T13:14:17.384189,3110,0.166539,0.021980,0.751008,-0.035320,0.025245,0.971668
2011-09-26T13:14:17.394189,3120,0.221197,0.084652,0.779324,-0.035867,0.028580,0.973518
2011-09-26T13:14:17.404189,3130,0.275813,0.148411,0.807644,-0.036413,0.031955,0.975378
2011-09-26T13:14:17.414189,3140,0.330429,0.212170,0.835963,-0.036959,0.035331,0.977238
2011-09-26T13:14:17.424189,3150,0.385045,0.275928,0.864283,-0.037506,0.038706,0.979098
2011-09-26T13:14:17.434189,3160,0.439661,0.339687,0.892603,-0.038052,0.042082,0.980958
2011-09-26T13:14:17.444189,3170,0.494277,0.403446,0.920922,-0.038598,0.045457,0.982818
2011-09-26T13:14:17.454189,3180,0.548893,0.467204,0.949242,-0.039145,0.048833,0.984678
2011-09-26T13:14:17.464189,3190,0.603509,0.530963,0.977561,-0.039691,0.052208,0.986538
2011-09-26T13:14:17.474189,3200,0.658125,0.594721,1.005881,-0.040237,0.055584,0.988399
2011-09-26T13:14:17.484189,3210,0.712741,0.658480,1.034201,-0.040784,0.058959,0.990259
2011-09-26T13:14:17.494189,3220,0.730666,0.706885,1.055049,-0.039981,0.059040,0.990547
2011-09-26T13:14:17.504189,3230,0.747661,0.754901,1.075708,-0.039144,0.059038,0.990796
2011-09-26T13:14:17.514189,3240,0.764656,0.802918,1.096367,-0.038307,0.059036,0.991045
2011-09-26T13:14:17.524189,3250,0.781651,0.850934,1.117026,-0.037470,0.059033,0.991293
2011-09-26T13:14:17.534189,3260,0.798646,0.898950,1.137684,-0.036633,0.059031,0.991542
2011-09-26T13:14:17.544189,3270,0.815641,0.946966,1.158343,-0.035796,0.059029,0.991791
2011-09-26T13:14:17.554189,3280,0.832636,0.994982,1.179002,-0.034960,0.059026,0.992040
2011-09-26T13:14:17.564189,3290,0.849631,1.042999,1.199661,-0.034123,0.059024,0.992289
2011-09-26T13:14:17.574189,3300,0.866626,1.091015,1.220320,-0.033286,0.059022,0.992537
2011-09-26T13:14:17.584189,3310,0.883621,1.139031,1.240979,-0.032449,0.059019,0.992786
2011-09-26T13:14:17.594189,3320,0.893016,1.118166,1.254913,-0.031929,0.059808,0.991996
2011-09-26T13:14:17.604189,3330,0.902213,1.095504,1.268672,-0.031418,0.060618,0.991178
2011-09-26T13:14:17.614189,3340,0.911410,1.072842,1.282432,-0.030907,0.061427,0.990361
2011-09-26T13:14:17.624189,3350,0.920607,1.050181,1.296191,-0.030396,0.062236,0.989544
2011-09-26T13:14:17.634189,3360,0.929804,1.027519,1.309950,-0.029884,0.063046,0.988726
2011-09-26T13:14:17.644189,3370,0.939001,1.004857,1.323709,-0.029373,0.063855,0.987909
2011-09-26T13:14:17.654189,3380,0.948198,0.982196,1.337468,-0.028862,0.064665,0.987091
2011-09-26T13:14:17.664189,3390,0.957396,0.959534,1.351227,-0.028351,0.065474,0.986274
2011-09-26T13:14:17.674189,3400,0.966593,0.936872,1.364986,-0.027839,0.066283,0.985457
2011-09-26T13:14:17.684189,3410,0.975790,0.914211,1.378746,-0.027328,0.067093,0.984639
2011-09-26T13:14:17.694189,3420,0.984987,0.891549,1.392505,-0.026817,0.067902,0.983822
2011-09-26T13:14:17.704189,3430,0.994904,0.821582,1.399349,-0.027264,0.068314,0.983171
2011-09-26T13:14:17.714189,3440,1.004833,0.750889,1.406087,-0.027726,0.068720,0.982522
2011-09-26T13:14:17.724189,3450,1.014762,0.680195,1.412825,-0.028187,0.069126,0.981874
2011-09-26T13:14:17.734189,3460,1.024690,0.609502,1.419563,-0.028649,0.069532,0.981226
2011-09-26T13:14:17.744189,3470,1.034619,0.538809,1.426301,-0.029111,0.069937,0.980577
2011-09-26T13:14:17.754189,3480,1.044548,0.468116,1.433038,-0.029572,0.070343,0.979929
2011-09-26T13:14:17.764189,3490,1.054477,0.397423,1.439776,-0.030034,0.070749,0.979280
2011-09-26T13:14:17.774189,3500,1.064405,0.326729,1.446514,-0.030496,0.071155,0.978632
2011-09-26T13:14:17.784189,3510,1.074334,0.256036,1.453252,-0.030958,0.071561,0.977983
2011-09-26T13:14:17.794189,3520,1.084263,0.185343,1.459990,-0.031419,0.071966,0.977335
2011-09-26T13:14:17.804189,3530,0.966988,0.084594,1.487083,-0.033002,0.071022,0.976978
2011-09-26T13:14:17.814189,3540,0.848087,-0.016539,1.514436,-0.034600,0.070060,0.976625
2011-09-26T13:14:17.824189,3550,0.729186,-0.117672,1.541789,-0.036197,0.069098,0.976272
2011-09-26T13:14:17.834189,3560,0.610285,-0.218805,1.569142,-0.037795,0.068135,0.975919
2011-09-26T13:14:17.844189,3570,0.491385,-0.319939,1.596496,-0.039392,0.067173,0.975566
2011-09-26T13:14:17.854189,3580,0.372484,-0.421072,1.623849,-0.040990,0.066211,0.975213
2011-09-26T13:14:17.864189,3590,0.253583,-0.522205,1.651202,-0.042587,0.065249,0.974860
2011-09-26T13:14:17.874189,3600,0.134682,-0.623338,1.678555,-0.044185,0.064287,0.974507
2011-09-26T13:14:17.884189,3610,0.015781,-0.724471,1.705908,-0.045782,0.063325,0.974154
2011-09-26T13:14:17.894189,3620,-0.103120,-0.825604,1.733261,-0.047379,0.062363,0.973801
2011-09-26T13:14:17.904189,3630,-0.108277,-0.900898,1.722369,-0.046080,0.063207,0.977567
2011-09-26T13:14:17.914189,3640,-0.112321,-0.975940,1.711103,-0.044753,0.064069,0.981374
2011-09-26T13:14:17.924189,3650,-0.116366,-1.050981,1.699837,-0.043426,0.064931,0.985181
2011-09-26T13:14:17.934189,3660,-0.120410,-1.126022,1.688571,-0.042098,0.065793,0.988987
2011-09-26T13:14:17.944189,3670,-0.124454,-1.201063,1.677305,-0.040771,0.066655,0.992794
2011-09-26T13:14:17.954189,3680,-0.128498,-1.276104,1.666038,-0.039444,0.067517,0.996601
2011-09-26T13:14:17.964189,3690,-0.132542,-1.351145,1.654772,-0.038116,0.068379,1.000407
2011-09-26T13:14:17.974189,3700,-0.136587,-1.426186,1.643506,-0.036789,0.069241,1.004214
2011-09-26T13:14:17.984189,3710,-0.140631,-1.501227,1.632240,-0.035462,0.070103,1.008021
2011-09-26T13:14:17.994189,3720,-0.144675,-1.576268,1.620974,-0.034134,0.070965,1.011827
2011-09-26T13:14:18.004189,3730,-0.148719,-1.651310,1.609708,-0.032807,0.071827,1.015634
2011-09-26T13:14:18.014189,3740,-0.214909,-1.596231,1.615987,-0.031625,0.074800,1.018275
2011-09-26T13:14:18.024189,3750,-0.281599,-1.540106,1.622408,-0.030444,0.077791,1.020907
2011-09-26T13:14:18.034189,3760,-0.348289,-1.483981,1.628829,-0.029264,0.080782,1.023539
2011-09-26T13:14:18.044189,3770,-0.414978,-1.427856,1.635249,-0.028083,0.083773,1.026171
2011-09-26T13:14:18.054189,3780,-0.481668,-1.371731,1.641670,-0.026902,0.086764,1.028803
2011-09-26T13:14:18.064189,3790,-0.548358,-1.315606,1.648091,-0.025721,0.089755,1.031435
2011-09-26T13:14:18.074189,3800,-0.615048,-1.259480,1.654512,-0.024540,0.092746,1.034067
2011-09-26T13:14:18.084189,3810,-0.681738,-1.203355,1.660933,-0.023360,0.095736,1.036699
2011-09-26T13:14:18.094189,3820,-0.748427,-1.147230,1.667353,-0.022179,0.098727,1.039331
2011-09-26T13:14:18.104189,3830,-0.815117,-1.091105,1.673774,-0.020998,0.101718,1.041963
2011-09-26T13:14:18.114189,3840,-0.799471,-0.984553,1.693956,-0.021357,0.098053,1.040610
2011-09-26T13:14:18.124189,3850,-0.783136,-0.877579,1.714253,-0.021729,0.094332,1.039225
2011-09-26T13:14:18.134189,3860,-0.766800,-0.770605,1.734549,-0.022101,0.090611,1.037839
2011-09-26T13:14:18.144189,3870,-0.750465,-0.663631,1.754846,-0.022473,0.086890,1.036453
2011-09-26T13:14:18.154189,3880,-0.734130,-0.556657,1.775143,-0.022845,0.083169,1.035067
2011-09-26T13:14:18.164189,3890,-0.717795,-0.449683,1.795440,-0.023218,0.079448,1.033682
2011-09-26T13:14:18.174189,3900,-0.701459,-0.342709,1.815737,-0.023590,0.075727,1.032296
2011-09-26T13:14:18.184189,3910,-0.685124,-0.235735,1.836034,-0.023962,0.072006,1.030910
2011-09-26T13:14:18.194189,3920,-0.668789,-0.128761,1.856331,-0.024334,0.068285,1.029525
2011-09-26T13:14:18.204189,3930,-0.652453,-0.021787,1.876628,-0.024706,0.064564,1.028139
2011-09-26T13:14:18.214189,3940,-0.622381,0.072791,1.897718,-0.024764,0.066956,1.024187
2011-09-26T13:14:18.224189,3950,-0.592006,0.167097,1.918826,-0.024815,0.069482,1.020180
2011-09-26T13:14:18.234189,3960,-0.561631,0.261403,1.939934,-0.024866,0.072008,1.016172
2011-09-26T13:14:18.244189,3970,-0.531256,0.355709,1.961043,-0.024917,0.074534,1.012164
2011-09-26T13:14:18.254189,3980,-0.500882,0.450014,1.982151,-0.024968,0.077060,1.008156
2011-09-26T13:14:18.264189,3990,-0.470507,0.544320,2.003259,-0.025019,0.079586,1.004148
2011-09-26T13:14:18.274189,4000,-0.440132,0.638626,2.024367,-0.025070,0.082112,1.000140
2011-09-26T13:14:18.284189,4010,-0.409757,0.732932,2.045475,-0.025122,0.084638,0.996133
2011-09-26T13:14:18.294189,4020,-0.379382,0.827237,2.066583,-0.025173,0.087164,0.992125
2011-09-26T13:14:18.304189,4030,-0.349008,0.921543,2.087691,-0.025224,0.089690,0.988117
2011-09-26T13:14:18.314189,4040,-0.318633,1.015849,2.108799,-0.025275,0.092216,0.984109
2011-09-26T13:14:18.324189,4050,-0.303088,1.018822,2.118884,-0.025235,0.091307,0.984443
2011-09-26T13:14:18.334189,4060,-0.287738,1.020593,2.128823,-0.025194,0.090352,0.984835
2011-09-26T13:14:18.344189,4070,-0.272389,1.022363,2.138762,-0.025153,0.089397,0.985226
2011-09-26T13:14:18.354189,4080,-0.257039,1.024134,2.148701,-0.025112,0.088442,0.985617
2011-09-26T13:14:18.364189,4090,-0.241689,1.025905,2.158640,-0.025071,0.087487,0.986009
2011-09-26T13:14:18.374189,4100,-0.226340,1.027676,2.168579,-0.025030,0.086532,0.986400
2011-09-26T13:14:18.384189,4110,-0.210990,1.029447,2.178518,-0.024989,0.085577,0.986792
2011-09-26T13:14:18.394189,4120,-0.195640,1.031218,2.188457,-0.024948,0.084622,0.987183
2011-09-26T13:14:18.404189,4130,-0.180291,1.032989,2.198396,-0.024907,0.083667,0.987574
2011-09-26T13:14:18.414189,4140,-0.164941,1.034760,2.208335,-0.024866,0.082712,0.987966
2011-09-26T13:14:18.424189,4150,-0.215333,0.967468,2.209717,-0.025075,0.083242,0.985051
2011-09-26T13:14:18.434189,4160,-0.266923,0.898919,2.210944,-0.025289,0.083799,0.982077
2011-09-26T13:14:18.444189,4170,-0.318513,0.830369,2.212170,-0.025502,0.084356,0.979102
2011-09-26T13:14:18.454189,4180,-0.370103,0.761820,2.213396,-0.025716,0.084913,0.976128
2011-09-26T13:14:18.464189,4190,-0.421693,0.693270,2.214622,-0.025930,0.085470,0.973153
2011-09-26T13:14:18.474189,4200,-0.473283,0.624720,2.215849,-0.026143,0.086027,0.970178
2011-09-26T13:14:18.484189,4210,-0.524872,0.556171,2.217075,-0.026357,0.086584,0.967204
2011-09-26T13:14:18.494189,4220,-0.576462,0.487621,2.218301,-0.026571,0.087141,0.964229
2011-09-26T13:14:18.504189,4230,-0.628052,0.419072,2.219527,-0.026784,0.087697,0.961255
2011-09-26T13:14:18.514189,4240,-0.679642,0.350522,2.220754,-0.026998,0.088254,0.958280
2011-09-26T13:14:18.524189,4250,-0.701115,0.298584,2.216070,-0.025735,0.088665,0.960781
2011-09-26T13:14:18.534189,4260,-0.722092,0.246920,2.211289,-0.024447,0.089072,0.963373
2011-09-26T13:14:18.544189,4270,-0.743069,0.195255,2.206508,-0.023160,0.089480,0.965965
2011-09-26T13:14:18.554189,4280,-0.764047,0.143591,2.201728,-0.021872,0.089888,0.968556
2011-09-26T13:14:18.564189,4290,-0.785024,0.091926,2.196947,-0.020585,0.090296,0.971148
2011-09-26T13:14:18.574189,4300,-0.806001,0.040261,2.192166,-0.019298,0.090703,0.973739
2011-09-26T13:14:18.584189,4310,-0.826978,-0.011403,2.187385,-0.018010,0.091111,0.976331
2011-09-26T13:14:18.594189,4320,-0.847956,-0.063068,2.182604,-0.016723,0.091519,0.978922
2011-09-26T13:14:18.604189,4330,-0.868933,-0.114732,2.177823,-0.015435,0.091927,0.981514
2011-09-26T13:14:18.614189,4340,-0.889910,-0.166397,2.173043,-0.014148,0.092334,0.984105
2011-09-26T13:14:18.624189,4350,-0.910887,-0.218061,2.168262,-0.012860,0.092742,0.986697
2011-09-26T13:14:18.634189,4360,-0.930643,-0.221525,2.198731,-0.012014,0.092835,0.989441
2011-09-26T13:14:18.644189,4370,-0.950381,-0.224290,2.229713,-0.011175,0.092923,0.992187
2011-09-26T13:14:18.654189,4380,-0.970119,-0.227054,2.260694,-0.010335,0.093011,0.994933
2011-09-26T13:14:18.664189,4390,-0.989857,-0.229818,2.291675,-0.009496,0.093099,0.997679
2011-09-26T13:14:18.674189,4400,-1.009595,-0.232583,2.322656,-0.008656,0.093187,1.000425
2011-09-26T13:14:18.684189,4410,-1.029332,-0.235347,2.353637,-0.007816,0.093275,1.003171
2011-09-26T13:14:18.694189,4420,-1.049070,-0.238111,2.384619,-0.006977,0.093364,1.005917
2011-09-26T13:14:18.704189,4430,-1.068808,-0.240876,2.415600,-0.006137,0.093452,1.008663
2011-09-26T13:14:18.714189,4440,-1.088546,-0.243640,2.446581,-0.005298,0.093540,1.011409
2011-09-26T13:14:18.724189,4450,-1.108284,-0.246405,2.477562,-0.004458,0.093628,1.014155
2011-09-26T13:14:18.734189,4460,-1.056696,-0.188409,2.488587,-0.003826,0.094203,1.011804
2011-09-26T13:14:18.744189,4470,-1.003689,-0.129204,2.499215,-0.003198,0.094787,1.009352
2011-09-26T13:14:18.754189,4480,-0.950682,-0.069999,2.509843,-0.002571,0.095371,1.006899
2011-09-26T13:14:18.764189,4490,-0.897675,-0.010794,2.520471,-0.001943,0.095956,1.004446
2011-09-26T13:14:18.774189,4500,-0.844667,0.048410,2.531098,-0.001315,0.096540,1.001994
2011-09-26T13:14:18.784189,4510,-0.791660,0.107615,2.541726,-0.000687,0.097124,0.999541
2011-09-26T13:14:18.794189,4520,-0.738653,0.166820,2.552354,-0.000060,0.097708,0.997088
2011-09-26T13:14:18.804189,4530,-0.685646,0.226025,2.562982,0.000568,0.098293,0.994636
2011-09-26T13:14:18.814189,4540,-0.632639,0.285230,2.573610,0.001196,0.098877,0.992183
2011-09-26T13:14:18.824189,4550,-0.579632,0.344434,2.584238,0.001824,0.099461,0.989730
2011-09-26T13:14:18.834189,4560,-0.526625,0.403639,2.594865,0.002451,0.100046,0.987278
2011-09-26T13:14:18.844189,4570,-0.532567,0.397943,2.606039,0.001815,0.098772,0.987544
2011-09-26T13:14:18.854189,4580,-0.539279,0.391400,2.617219,0.001162,0.097473,0.987846
2011-09-26T13:14:18.864189,4590,-0.545991,0.384856,2.628399,0.000509,0.096175,0.988148
2011-09-26T13:14:18.874189,4600,-0.552704,0.378313,2.639580,-0.000144,0.094877,0.988449
2011-09-26T13:14:18.884189,4610,-0.559416,0.371769,2.650760,-0.000797,0.093579,0.988751
2011-09-26T13:14:18.894189,4620,-0.566128,0.365226,2.661940,-0.001450,0.092281,0.989053
2011-09-26T13:14:18.904189,4630,-0.572840,0.358682,2.673121,-0.002103,0.090982,0.989355
2011-09-26T13:14:18.914189,4640,-0.579552,0.352139,2.684301,-0.002756,0.089684,0.989656
2011-09-26T13:14:18.924189,4650,-0.586264,0.345595,2.695481,-0.003409,0.088386,0.989958
2011-09-26T13:14:18.934189,4660,-0.592976,0.339052,2.706662,-0.004062,0.087088,0.990260
2011-09-26T13:14:18.944189,4670,-0.582082,0.341332,2.712382,-0.004539,0.086677,0.989867
2011-09-26T13:14:18.954189,4680,-0.570903,0.343755,2.718015,-0.005014,0.086281,0.989463
2011-09-26T13:14:18.964189,4690,-0.559723,0.346178,2.723647,-0.005488,0.085885,0.989059
2011-09-26T13:14:18.974189,4700,-0.548544,0.348601,2.729280,-0.005963,0.085489,0.988655
2011-09-26T13:14:18.984189,4710,-0.537365,0.351023,2.734912,-0.006438,0.085093,0.988251
2011-09-26T13:14:18.994189,4720,-0.526186,0.353446,2.740545,-0.006912,0.084697,0.987847
2011-09-26T13:14:19.004189,4730,-0.515007,0.355869,2.746177,-0.007387,0.084301,0.987443
2011-09-26T13:14:19.014189,4740,-0.503828,0.358292,2.751809,-0.007862,0.083905,0.987039
2011-09-26T13:14:19.024189,4750,-0.492648,0.360715,2.757442,-0.008336,0.083509,0.986636
2011-09-26T13:14:19.034189,4760,-0.481469,0.363138,2.763074,-0.008811,0.083113,0.986232
2011-09-26T13:14:19.044189,4770,-0.454504,0.332796,2.768279,-0.008758,0.084568,0.986394
2011-09-26T13:14:19.054189,4780,-0.427282,0.301918,2.773477,-0.008696,0.086053,0.986565
2011-09-26T13:14:19.064189,4790,-0.400059,0.271040,2.778674,-0.008635,0.087538,0.986737
2011-09-26T13:14:19.074189,4800,-0.372836,0.240162,2.783872,-0.008573,0.089023,0.986908
2011-09-26T13:14:19.084189,4810,-0.345613,0.209284,2.789069,-0.008511,0.090508,0.987080
2011-09-26T13:14:19.094189,4820,-0.318390,0.178406,2.794267,-0.008449,0.091992,0.987252
2011-09-26T13:14:19.104189,4830,-0.291167,0.147528,2.799465,-0.008388,0.093477,0.987423
2011-09-26T13:14:19.114189,4840,-0.263945,0.116649,2.804662,-0.008326,0.094962,0.987595
2011-09-26T13:14:19.124189,4850,-0.236722,0.085771,2.809860,-0.008264,0.096447,0.987766
2011-09-26T13:14:19.134189,4860,-0.209499,0.054893,2.815058,-0.008203,0.097932,0.987938
2011-09-26T13:14:19.144189,4870,-0.182276,0.024015,2.820255,-0.008141,0.099417,0.988109
2011-09-26T13:14:19.154189,4880,-0.172917,-0.068864,2.826800,-0.008537,0.096727,0.988862
2011-09-26T13:14:19.164189,4890,-0.163929,-0.163036,2.833373,-0.008943,0.093951,0.989627
2011-09-26T13:14:19.174189,4900,-0.154942,-0.257208,2.839945,-0.009348,0.091174,0.990393
2011-09-26T13:14:19.184189,4910,-0.145955,-0.351379,2.846518,-0.009754,0.088397,0.991158
2011-09-26T13:14:19.194189,4920,-0.136968,-0.445551,2.853091,-0.010159,0.085621,0.991923
2011-09-26T13:14:19.204189,4930,-0.127981,-0.539722,2.859663,-0.010565,0.082844,0.992688
2011-09-26T13:14:19.214189,4940,-0.118993,-0.633894,2.866236,-0.010970,0.080067,0.993453
2011-09-26T13:14:19.224189,4950,-0.110006,-0.728066,2.872809,-0.011376,0.077291,0.994219
2011-09-26T13:14:19.234189,4960,-0.101019,-0.822237,2.879382,-0.011782,0.074514,0.994984
2011-09-26T13:14:19.244189,4970,-0.092032,-0.916409,2.885954,-0.012187,0.071737,0.995749
2011-09-26T13:14:19.254189,4980,-0.064905,-0.904355,2.893027,-0.010828,0.074892,0.998119
2011-09-26T13:14:19.264189,4990,-0.036957,-0.887492,2.900123,-0.009390,0.078316,1.000562
2011-09-26T13:14:19.274189,5000,-0.009009,-0.870629,2.907219,-0.007951,0.081740,1.003004
2011-09-26T13:14:19.284189,5010,0.018940,-0.853766,2.914314,-0.006513,0.085164,1.005447
2011-09-26T13:14:19.294189,5020,0.046888,-0.836903,2.921410,-0.005074,0.088587,1.007890
2011-09-26T13:14:19.304189,5030,0.074836,-0.820040,2.928505,-0.003636,0.092011,1.010332
2011-09-26T13:14:19.314189,5040,0.102784,-0.803177,2.935601,-0.002197,0.095435,1.012775
2011-09-26T13:14:19.324189,5050,0.130732,-0.786314,2.942697,-0.000759,0.098858,1.015218
2011-09-26T13:14:19.334189,5060,0.158681,-0.769451,2.949792,0.000680,0.102282,1.017660
2011-09-26T13:14:19.344189,5070,0.186629,-0.752589,2.956888,0.002118,0.105706,1.020103
2011-09-26T13:14:19.354189,5080,0.171989,-0.680334,2.952087,0.002930,0.105421,1.019940
2011-09-26T13:14:19.364189,5090,0.156560,-0.607052,2.947066,0.003730,0.105067,1.019728
2011-09-26T13:14:19.374189,5100,0.141131,-0.533770,2.942045,0.004530,0.104713,1.019517
2011-09-26T13:14:19.384189,5110,0.125701,-0.460488,2.937024,0.005330,0.104359,1.019305
2011-09-26T13:14:19.394189,5120,0.110272,-0.387206,2.932002,0.006130,0.104005,1.019094
2011-09-26T13:14:19.404189,5130,0.094843,-0.313924,2.926981,0.006930,0.103651,1.018882
2011-09-26T13:14:19.414189,5140,0.079414,-0.240642,2.921960,0.007730,0.103297,1.018670
2011-09-26T13:14:19.424189,5150,0.063984,-0.167360,2.916939,0.008530,0.102943,1.018459
2011-09-26T13:14:19.434189,5160,0.048555,-0.094078,2.911917,0.009330,0.102589,1.018247
2011-09-26T13:14:19.444189,5170,0.033126,-0.020796,2.906896,0.010130,0.102235,1.018036
2011-09-26T13:14:19.454189,5180,0.017696,0.052486,2.901875,0.010930,0.101881,1.017824
2011-09-26T13:14:19.464189,5190,-0.013135,0.101255,2.870164,0.010547,0.102465,1.015946
2011-09-26T13:14:19.474189,5200,-0.044282,0.149521,2.837905,0.010141,0.103069,1.014034
2011-09-26T13:14:19.484189,5210,-0.075429,0.197787,2.805646,0.009735,0.103674,1.012122
2011-09-26T13:14:19.494189,5220,-0.106576,0.246053,2.773387,0.009328,0.104278,1.010210
2011-09-26T13:14:19.504189,5230,-0.137723,0.294319,2.741127,0.008922,0.104882,1.008298
2011-09-26T13:14:19.514189,5240,-0.168870,0.342585,2.708868,0.008516,0.105486,1.006386
2011-09-26T13:14:19.524189,5250,-0.200017,0.390851,2.676609,0.008109,0.106090,1.004474
2011-09-26T13:14:19.534189,5260,-0.231164,0.439117,2.644350,0.007703,0.106694,1.002561
2011-09-26T13:14:19.544189,5270,-0.262311,0.487383,2.612091,0.007297,0.107298,1.000649
2011-09-26T13:14:19.554189,5280,-0.293458,0.535649,2.579832,0.006890,0.107902,0.998737
2011-09-26T13:14:19.564189,5290,-0.257977,0.480278,2.544930,0.006943,0.105638,0.998446
2011-09-26T13:14:19.574189,5300,-0.221447,0.423274,2.509987,0.007003,0.103329,0.998180
2011-09-26T13:14:19.584189,5310,-0.184916,0.366271,2.475043,0.007064,0.101020,0.997914
2011-09-26T13:14:19.594189,5320,-0.148386,0.309267,2.440100,0.007124,0.098711,0.997648
2011-09-26T13:14:19.604189,5330,-0.111855,0.252263,2.405156,0.007184,0.096402,0.997382
2011-09-26T13:14:19.614189,5340,-0.075325,0.195260,2.370213,0.007244,0.094093,0.997116
2011-09-26T13:14:19.624189,5350,-0.038794,0.138256,2.335269,0.007305,0.091784,0.996850
2011-09-26T13:14:19.634189,5360,-0.002264,0.081252,2.300326,0.007365,0.089475,0.996584
2011-09-26T13:14:19.644189,5370,0.034267,0.024249,2.265382,0.007425,0.087166,0.996318
2011-09-26T13:14:19.654189,5380,0.070797,-0.032755,2.230439,0.007485,0.084857,0.996052
2011-09-26T13:14:19.664189,5390,0.107327,-0.089758,2.195495,0.007545,0.082547,0.995786
2011-09-26T13:14:19.674189,5400,0.118843,-0.101293,2.173025,0.007400,0.081420,0.994420
2011-09-26T13:14:19.684189,5410,0.129871,-0.111941,2.150798,0.007251,0.080315,0.993032
2011-09-26T13:14:19.694189,5420,0.140899,-0.122589,2.128571,0.007101,0.079210,0.991645
2011-09-26T13:14:19.704189,5430,0.151926,-0.133237,2.106344,0.006952,0.078105,0.990257
2011-09-26T13:14:19.714189,5440,0.162954,-0.143886,2.084116,0.006802,0.077000,0.988869
2011-09-26T13:14:19.724189,5450,0.173982,-0.154534,2.061889,0.006653,0.075895,0.987481
2011-09-26T13:14:19.734189,5460,0.185010,-0.165182,2.039662,0.006503,0.074790,0.986093
2011-09-26T13:14:19.744189,5470,0.196038,-0.175830,2.017435,0.006354,0.073685,0.984706
2011-09-26T13:14:19.754189,5480,0.207066,-0.186478,1.995208,0.006205,0.072580,0.983318
2011-09-26T13:14:19.764189,5490,0.218094,-0.197127,1.972981,0.006055,0.071476,0.981930
2011-09-26T13:14:19.774189,5500,0.254754,-0.159068,1.970193,0.006491,0.071699,0.983546
2011-09-26T13:14:19.784189,5510,0.291990,-0.119917,1.967841,0.006940,0.071952,0.985228
2011-09-26T13:14:19.794189,5520,0.329225,-0.080766,1.965489,0.007389,0.072206,0.986911
2011-09-26T13:14:19.804189,5530,0.366460,-0.041615,1.963137,0.007838,0.072459,0.988594
2011-09-26T13:14:19.814189,5540,0.403696,-0.002464,1.960786,0.008287,0.072712,0.990277
2011-09-26T13:14:19.824189,5550,0.440931,0.036687,1.958434,0.008736,0.072966,0.991960
2011-09-26T13:14:19.834189,5560,0.478166,0.075838,1.956082,0.009185,0.073219,0.993642
2011-09-26T13:14:19.844189,5570,0.515401,0.114989,1.953730,0.009634,0.073473,0.995325
2011-09-26T13:14:19.854189,5580,0.552637,0.154140,1.951378,0.010083,0.073726,0.997008
2011-09-26T13:14:19.864189,5590,0.589872,0.193290,1.949026,0.010532,0.073979,0.998691
2011-09-26T13:14:19.874189,5600,0.600356,0.250659,1.954516,0.010898,0.072993,0.999425
2011-09-26T13:14:19.884189,5610,0.610201,0.308463,1.960194,0.011262,0.071977,1.000136
2011-09-26T13:14:19.894189,5620,0.620046,0.366267,1.965872,0.011626,0.070961,1.000847
2011-09-26T13:14:19.904189,5630,0.629891,0.424071,1.971549,0.011991,0.069945,1.001559
2011-09-26T13:14:19.914189,5640,0.639736,0.481875,1.977227,0.012355,0.068930,1.002270
2011-09-26T13:14:19.924189,5650,0.649582,0.539678,1.982905,0.012719,0.067914,1.002981
2011-09-26T13:14:19.934189,5660,0.659427,0.597482,1.988582,0.013083,0.066898,1.003692
2011-09-26T13:14:19.944189,5670,0.669272,0.655286,1.994260,0.013448,0.065882,1.004404
2011-09-26T13:14:19.954189,5680,0.679117,0.713090,1.999938,0.013812,0.064866,1.005115
2011-09-26T13:14:19.964189,5690,0.688962,0.770894,2.005615,0.014176,0.063850,1.005826
2011-09-26T13:14:19.974189,5700,0.687953,0.763750,2.004282,0.013760,0.065605,1.002755
2011-09-26T13:14:19.984189,5710,0.686675,0.755000,2.002775,0.013325,0.067427,0.999590
2011-09-26T13:14:19.994189,5720,0.685397,0.746251,2.001268,0.012890,0.069250,0.996426
2011-09-26T13:14:20.004189,5730,0.684119,0.737502,1.999761,0.012455,0.071073,0.993261
2011-09-26T13:14:20.014189,5740,0.682842,0.728753,1.998254,0.012020,0.072896,0.990097
2011-09-26T13:14:20.024189,5750,0.681564,0.720003,1.996747,0.011585,0.074718,0.986932
2011-09-26T13:14:20.034189,5760,0.680286,0.711254,1.995240,0.011150,0.076541,0.983767
2011-09-26T13:14:20.044189,5770,0.679008,0.702505,1.993734,0.010715,0.078364,0.980603
2011-09-26T13:14:20.054189,5780,0.677731,0.693755,1.992227,0.010279,0.080187,0.977438
2011-09-26T13:14:20.064189,5790,0.676453,0.685006,1.990720,0.009844,0.082009,0.974273
2011-09-26T13:14:20.074189,5800,0.675175,0.676257,1.989213,0.009409,0.083832,0.971109
2011-09-26T13:14:20.084189,5810,0.685776,0.564571,1.985640,0.010587,0.082655,0.972455
2011-09-26T13:14:20.094189,5820,0.696604,0.450914,1.982027,0.011796,0.081421,0.973887
2011-09-26T13:14:20.104189,5830,0.707432,0.337256,1.978414,0.013004,0.080186,0.975320
2011-09-26T13:14:20.114189,5840,0.718261,0.223598,1.974801,0.014213,0.078952,0.976752
2011-09-26T13:14:20.124189,5850,0.729089,0.109940,1.971188,0.015422,0.077717,0.978185
2011-09-26T13:14:20.134189,5860,0.739917,-0.003717,1.967575,0.016631,0.076483,0.979617
2011-09-26T13:14:20.144189,5870,0.750745,-0.117375,1.963962,0.017839,0.075249,0.981050
2011-09-26T13:14:20.154189,5880,0.761574,-0.231033,1.960350,0.019048,0.074014,0.982482
2011-09-26T13:14:20.164189,5890,0.772402,-0.344690,1.956737,0.020257,0.072780,0.983915
2011-09-26T13:14:20.174189,5900,0.783230,-0.458348,1.953124,0.021466,0.071545,0.985347
2011-09-26T13:14:20.184189,5910,0.773821,-0.454065,1.952847,0.021666,0.073004,0.988112
2011-09-26T13:14:20.194189,5920,0.763950,-0.447090,1.952647,0.021844,0.074525,0.990907
2011-09-26T13:14:20.204189,5930,0.754078,-0.440115,1.952447,0.022022,0.076045,0.993701
2011-09-26T13:14:20.214189,5940,0.744207,-0.433139,1.952246,0.022200,0.077566,0.996496
2011-09-26T13:14:20.224189,5950,0.734336,-0.426164,1.952046,0.022378,0.079087,0.999291
2011-09-26T13:14:20.234189,5960,0.724465,-0.419189,1.951846,0.022555,0.080607,1.002086
2011-09-26T13:14:20.244189,5970,0.714593,-0.412214,1.951645,0.022733,0.082128,1.004881
2011-09-26T13:14:20.254189,5980,0.704722,-0.405239,1.951445,0.022911,0.083648,1.007676
2011-09-26T13:14:20.264189,5990,0.694851,-0.398264,1.951244,0.023089,0.085169,1.010471
2011-09-26T13:14:20.274189,6000,0.684980,-0.391289,1.951044,0.023266,0.086689,1.013266
2011-09-26T13:14:20.284189,6010,0.673121,-0.304147,1.946715,0.023574,0.086482,1.012927
2011-09-26T13:14:20.294189,6020,0.661215,-0.215094,1.942287,0.023884,0.086234,1.012513
2011-09-26T13:14:20.304189,6030,0.649309,-0.126041,1.937859,0.024195,0.085986,1.012099
2011-09-26T13:14:20.314189,6040,0.637403,-0.036988,1.933431,0.024505,0.085737,1.011685
2011-09-26T13:14:20.324189,6050,0.625497,0.052065,1.929004,0.024816,0.085489,1.011272
2011-09-26T13:14:20.334189,6060,0.613591,0.141118,1.924576,0.025126,0.085241,1.010858
2011-09-26T13:14:20.344189,6070,0.601685,0.230171,1.920148,0.025437,0.084993,1.010444
2011-09-26T13:14:20.354189,6080,0.589779,0.319224,1.915720,0.025747,0.084744,1.010030
2011-09-26T13:14:20.364189,6090,0.577873,0.408277,1.911292,0.026058,0.084496,1.009617
2011-09-26T13:14:20.374189,6100,0.565967,0.497330,1.906865,0.026368,0.084248,1.009203
2011-09-26T13:14:20.384189,6110,0.554061,0.586383,1.902437,0.026679,0.084000,1.008789
2011-09-26T13:14:20.394189,6120,0.549109,0.600829,1.893629,0.025359,0.084184,1.005787
2011-09-26T13:14:20.404189,6130,0.544426,0.612399,1.884653,0.023976,0.084386,1.002685
2011-09-26T13:14:20.414189,6140,0.539743,0.623969,1.875676,0.022594,0.084587,0.999583
2011-09-26T13:14:20.424189,6150,0.535059,0.635539,1.866700,0.021211,0.084789,0.996482
2011-09-26T13:14:20.434189,6160,0.530376,0.647109,1.857723,0.019829,0.084990,0.993380
2011-09-26T13:14:20.444189,6170,0.525693,0.658679,1.848747,0.018446,0.085192,0.990278
2011-09-26T13:14:20.454189,6180,0.521009,0.670249,1.839770,0.017064,0.085393,0.987176
2011-09-26T13:14:20.464189,6190,0.516326,0.681820,1.830794,0.015681,0.085595,0.984074
2011-09-26T13:14:20.474189,6200,0.511642,0.693390,1.821817,0.014298,0.085796,0.980972
2011-09-26T13:14:20.484189,6210,0.506959,0.704960,1.812841,0.012916,0.085997,0.977871
2011-09-26T13:14:20.494189,6220,0.430730,0.644756,1.797724,0.013553,0.084274,0.978216
2011-09-26T13:14:20.504189,6230,0.351536,0.581577,1.782352,0.014273,0.082471,0.978705
2011-09-26T13:14:20.514189,6240,0.272342,0.518399,1.766981,0.014994,0.080668,0.979194
2011-09-26T13:14:20.524189,6250,0.193148,0.455220,1.751610,0.015714,0.078865,0.979682
2011-09-26T13:14:20.534189,6260,0.113954,0.392042,1.736238,0.016435,0.077062,0.980171
2011-09-26T13:14:20.544189,6270,0.034760,0.328863,1.720867,0.017155,0.075259,0.980660
2011-09-26T13:14:20.554189,6280,-0.044434,0.265685,1.705495,0.017876,0.073456,0.981148
2011-09-26T13:14:20.564189,6290,-0.123628,0.202506,1.690124,0.018597,0.071653,0.981637
2011-09-26T13:14:20.574189,6300,-0.202822,0.139328,1.674753,0.019317,0.069850,0.982126
2011-09-26T13:14:20.584189,6310,-0.282016,0.076149,1.659381,0.020038,0.068047,0.982615
2011-09-26T13:14:20.594189,6320,-0.361210,0.012971,1.644010,0.020758,0.066244,0.983103
2011-09-26T13:14:20.604189,6330,-0.350914,0.048483,1.610464,0.021315,0.069543,0.981495
2011-09-26T13:14:20.614189,6340,-0.338568,0.086258,1.576502,0.021868,0.072959,0.979838
2011-09-26T13:14:20.624189,6350,-0.326221,0.124033,1.542539,0.022421,0.076374,0.978182
2011-09-26T13:14:20.634189,6360,-0.313874,0.161808,1.508577,0.022974,0.079790,0.976526
2011-09-26T13:14:20.644189,6370,-0.301527,0.199583,1.474615,0.023527,0.083206,0.974869
2011-09-26T13:14:20.654189,6380,-0.289180,0.237358,1.440652,0.024080,0.086622,0.973213
2011-09-26T13:14:20.664189,6390,-0.276833,0.275133,1.406690,0.024633,0.090038,0.971556
2011-09-26T13:14:20.674189,6400,-0.264487,0.312907,1.372727,0.025186,0.093454,0.969900
2011-09-26T13:14:20.684189,6410,-0.252140,0.350682,1.338765,0.025739,0.096870,0.968243
2011-09-26T13:14:20.694189,6420,-0.239793,0.388457,1.304802,0.026293,0.100286,0.966587
2011-09-26T13:14:20.704189,6430,-0.237030,0.365272,1.288455,0.027771,0.100261,0.968432
2011-09-26T13:14:20.714189,6440,-0.234658,0.339600,1.272826,0.029288,0.100096,0.970420
2011-09-26T13:14:20.724189,6450,-0.232286,0.313927,1.257198,0.030805,0.099931,0.972408
2011-09-26T13:14:20.734189,6460,-0.229914,0.288254,1.241569,0.032321,0.099766,0.974395
2011-09-26T13:14:20.744189,6470,-0.227542,0.262582,1.225940,0.033838,0.099601,0.976383
2011-09-26T13:14:20.754189,6480,-0.225170,0.236909,1.210312,0.035355,0.099436,0.978371
2011-09-26T13:14:20.764189,6490,-0.222798,0.211236,1.194683,0.036871,0.099270,0.980359
2011-09-26T13:14:20.774189,6500,-0.220426,0.185564,1.179054,0.038388,0.099105,0.982347
2011-09-26T13:14:20.784189,6510,-0.218054,0.159891,1.163426,0.039905,0.098940,0.984335
2011-09-26T13:14:20.794189,6520,-0.215682,0.134218,1.147797,0.041422,0.098775,0.986322
2011-09-26T13:14:20.804189,6530,-0.201725,0.164872,1.136507,0.040456,0.095252,0.987875
2011-09-26T13:14:20.814189,6540,-0.187413,0.197245,1.125350,0.039416,0.091627,0.989414
2011-09-26T13:14:20.824189,6550,-0.173102,0.229617,1.114192,0.038375,0.088001,0.990954
2011-09-26T13:14:20.834189,6560,-0.158790,0.261990,1.103035,0.037334,0.084376,0.992493
2011-09-26T13:14:20.844189,6570,-0.144479,0.294363,1.091878,0.036293,0.080751,0.994032
2011-09-26T13:14:20.854189,6580,-0.130167,0.326735,1.080720,0.035252,0.077125,0.995571
2011-09-26T13:14:20.864189,6590,-0.115856,0.359108,1.069563,0.034211,0.073500,0.997111
2011-09-26T13:14:20.874189,6600,-0.101545,0.391480,1.058405,0.033171,0.069874,0.998650
2011-09-26T13:14:20.884189,6610,-0.087233,0.423853,1.047248,0.032130,0.066249,1.000189
2011-09-26T13:14:20.894189,6620,-0.072922,0.456226,1.036091,0.031089,0.062623,1.001728
2011-09-26T13:14:20.904189,6630,-0.058610,0.488598,1.024933,0.030048,0.058998,1.003268
2011-09-26T13:14:20.914189,6640,-0.047858,0.475283,1.024588,0.029875,0.056436,1.003258
2011-09-26T13:14:20.924189,6650,-0.037198,0.460786,1.024523,0.029724,0.053902,1.003208
2011-09-26T13:14:20.934189,6660,-0.026538,0.446289,1.024458,0.029573,0.051368,1.003158
2011-09-26T13:14:20.944189,6670,-0.015878,0.431792,1.024392,0.029422,0.048834,1.003107
2011-09-26T13:14:20.954189,6680,-0.005218,0.417294,1.024327,0.029271,0.046300,1.003057
2011-09-26T13:14:20.964189,6690,0.005442,0.402797,1.024262,0.029120,0.043765,1.003007
2011-09-26T13:14:20.974189,6700,0.016102,0.388300,1.024196,0.028969,0.041231,1.002957
2011-09-26T13:14:20.984189,6710,0.026762,0.373803,1.024131,0.028818,0.038697,1.002907
2011-09-26T13:14:20.994189,6720,0.037422,0.359306,1.024066,0.028667,0.036163,1.002857
2011-09-26T13:14:21.004189,6730,0.048082,0.344808,1.024001,0.028517,0.033629,1.002807
2011-09-26T13:14:21.014189,6740,0.065818,0.385863,1.029680,0.028523,0.035857,1.001131
2011-09-26T13:14:21.024189,6750,0.083744,0.428408,1.035513,0.028533,0.038212,0.999411
2011-09-26T13:14:21.034189,6760,0.101670,0.470953,1.041347,0.028543,0.040568,0.997692
2011-09-26T13:14:21.044189,6770,0.119596,0.513498,1.047180,0.028554,0.042924,0.995972
2011-09-26T13:14:21.054189,6780,0.137522,0.556043,1.053014,0.028564,0.045279,0.994253
2011-09-26T13:14:21.064189,6790,0.155448,0.598587,1.058847,0.028574,0.047635,0.992533
2011-09-26T13:14:21.074189,6800,0.173374,0.641132,1.064680,0.028584,0.049991,0.990813
2011-09-26T13:14:21.084189,6810,0.191300,0.683677,1.070514,0.028595,0.052347,0.989094
2011-09-26T13:14:21.094189,6820,0.209226,0.726222,1.076347,0.028605,0.054702,0.987374
2011-09-26T13:14:21.104189,6830,0.227152,0.768767,1.082181,0.028615,0.057058,0.985655
2011-09-26T13:14:21.114189,6840,0.176541,0.734741,1.092190,0.027539,0.057230,0.984819
2011-09-26T13:14:21.124189,6850,0.123925,0.698476,1.102322,0.026431,0.057339,0.984010
2011-09-26T13:14:21.134189,6860,0.071309,0.662210,1.112453,0.025323,0.057448,0.983200
2011-09-26T13:14:21.144189,6870,0.018693,0.625945,1.122585,0.024214,0.057556,0.982390
2011-09-26T13:14:21.154189,6880,-0.033923,0.589679,1.132717,0.023106,0.057665,0.981581
2011-09-26T13:14:21.164189,6890,-0.086539,0.553414,1.142848,0.021998,0.057774,0.980771
2011-09-26T13:14:21.174189,6900,-0.139155,0.517148,1.152980,0.020890,0.057882,0.979962
2011-09-26T13:14:21.184189,6910,-0.191771,0.480882,1.163112,0.019782,0.057991,0.979152
2011-09-26T13:14:21.194189,6920,-0.244387,0.444617,1.173243,0.018673,0.058100,0.978342
2011-09-26T13:14:21.204189,6930,-0.297003,0.408351,1.183375,0.017565,0.058208,0.977533
2011-09-26T13:14:21.214189,6940,-0.349619,0.372086,1.193507,0.016457,0.058317,0.976723
2011-09-26T13:14:21.224189,6950,-0.318766,0.283092,1.201259,0.017049,0.061056,0.976121
2011-09-26T13:14:21.234189,6960,-0.283971,0.191608,1.208898,0.017721,0.063919,0.975530
2011-09-26T13:14:21.244189,6970,-0.249176,0.100123,1.216538,0.018393,0.066782,0.974938
2011-09-26T13:14:21.254189,6980,-0.214381,0.008639,1.224177,0.019065,0.069646,0.974346
2011-09-26T13:14:21.264189,6990,-0.179586,-0.082845,1.231817,0.019737,0.072509,0.973754
2011-09-26T13:14:21.274189,7000,-0.144791,-0.174329,1.239457,0.020409,0.075372,0.973162
2011-09-26T13:14:21.284189,7010,-0.109996,-0.265813,1.247096,0.021081,0.078235,0.972570
2011-09-26T13:14:21.294189,7020,-0.075201,-0.357297,1.254736,0.021753,0.081099,0.971978
2011-09-26T13:14:21.304189,7030,-0.040406,-0.448782,1.262375,0.022425,0.083962,0.971386
2011-09-26T13:14:21.314189,7040,-0.005611,-0.540266,1.270015,0.023096,0.086825,0.970794
2011-09-26T13:14:21.324189,7050,-0.111294,-0.607359,1.264151,0.023030,0.083892,0.977261
2011-09-26T13:14:21.334189,7060,-0.220950,-0.673761,1.257905,0.022942,0.080796,0.983928
2011-09-26T13:14:21.344189,7070,-0.330607,-0.740164,1.251659,0.022854,0.077699,0.990595
2011-09-26T13:14:21.354189,7080,-0.440263,-0.806566,1.245413,0.022766,0.074603,0.997262
2011-09-26T13:14:21.364189,7090,-0.549920,-0.872969,1.239167,0.022678,0.071506,1.003928
2011-09-26T13:14:21.374189,7100,-0.659577,-0.939372,1.232920,0.022590,0.068410,1.010595
2011-09-26T13:14:21.384189,7110,-0.769233,-1.005774,1.226674,0.022502,0.065313,1.017262
2011-09-26T13:14:21.394189,7120,-0.878890,-1.072177,1.220428,0.022414,0.062216,1.023928
2011-09-26T13:14:21.404189,7130,-0.988547,-1.138579,1.214182,0.022326,0.059120,1.030595
2011-09-26T13:14:21.414189,7140,-1.098203,-1.204982,1.207936,0.022238,0.056023,1.037262
2011-09-26T13:14:21.424189,7150,-1.146332,-1.183627,1.209833,0.022432,0.056294,1.034570
2011-09-26T13:14:21.434189,7160,-1.192216,-1.159070,1.212027,0.022636,0.056689,1.031536
2011-09-26T13:14:21.444189,7170,-1.238100,-1.134513,1.214220,0.022840,0.057083,1.028502
2011-09-26T13:14:21.454189,7180,-1.283984,-1.109956,1.216414,0.023045,0.057477,1.025468
2011-09-26T13:14:21.464189,7190,-1.329868,-1.085399,1.218608,0.023249,0.057871,1.022435
2011-09-26T13:14:21.474189,7200,-1.375752,-1.060841,1.220802,0.023453,0.058265,1.019401
2011-09-26T13:14:21.484189,7210,-1.421636,-1.036284,1.222996,0.023657,0.058659,1.016367
2011-09-26T13:14:21.494189,7220,-1.467520,-1.011727,1.225189,0.023861,0.059053,1.013334
2011-09-26T13:14:21.504189,7230,-1.513404,-0.987170,1.227383,0.024065,0.059447,1.010300
2011-09-26T13:14:21.514189,7240,-1.559288,-0.962613,1.229577,0.024269,0.059841,1.007266
2011-09-26T13:14:21.524189,7250,-1.605172,-0.938056,1.231771,0.024474,0.060235,1.004232
2011-09-26T13:14:21.534189,7260,-1.509994,-0.847339,1.214142,0.024427,0.059358,1.008795
2011-09-26T13:14:21.544189,7270,-1.411006,-0.754836,1.195977,0.024374,0.058446,1.013562
2011-09-26T13:14:21.554189,7280,-1.312018,-0.662333,1.177813,0.024321,0.057535,1.018330
2011-09-26T13:14:21.564189,7290,-1.213031,-0.569830,1.159648,0.024268,0.056623,1.023097
2011-09-26T13:14:21.574189,7300,-1.114043,-0.477326,1.141483,0.024214,0.055712,1.027865
2011-09-26T13:14:21.584189,7310,-1.015055,-0.384823,1.123319,0.024161,0.054801,1.032632
2011-09-26T13:14:21.594189,7320,-0.916068,-0.292320,1.105154,0.024108,0.053889,1.037400
2011-09-26T13:14:21.604189,7330,-0.817080,-0.199817,1.086990,0.024055,0.052978,1.042167
2011-09-26T13:14:21.614189,7340,-0.718092,-0.107314,1.068825,0.024002,0.052066,1.046935
2011-09-26T13:14:21.624189,7350,-0.619104,-0.014811,1.050661,0.023948,0.051155,1.051702
2011-09-26T13:14:21.634189,7360,-0.599948,0.142716,1.040951,0.022085,0.052437,1.041716
2011-09-26T13:14:21.644189,7370,-0.583022,0.302061,1.031477,0.020171,0.053781,1.031317
2011-09-26T13:14:21.654189,7380,-0.566097,0.461405,1.022003,0.018257,0.055126,1.020918
2011-09-26T13:14:21.664189,7390,-0.549172,0.620750,1.012530,0.016343,0.056470,1.010519
2011-09-26T13:14:21.674189,7400,-0.532247,0.780095,1.003056,0.014429,0.057814,1.000120
2011-09-26T13:14:21.684189,7410,-0.515322,0.939439,0.993582,0.012515,0.059158,0.989721
2011-09-26T13:14:21.694189,7420,-0.498397,1.098784,0.984109,0.010601,0.060502,0.979322
2011-09-26T13:14:21.704189,7430,-0.481472,1.258128,0.974635,0.008686,0.061846,0.968924
2011-09-26T13:14:21.714189,7440,-0.464547,1.417473,0.965161,0.006772,0.063190,0.958525
2011-09-26T13:14:21.724189,7450,-0.447622,1.576818,0.955687,0.004858,0.064534,0.948126
2011-09-26T13:14:21.734189,7460,-0.345468,1.537751,0.988718,0.004989,0.061984,0.948420
2011-09-26T13:14:21.744189,7470,-0.239345,1.489442,1.023728,0.005214,0.059251,0.949213
2011-09-26T13:14:21.754189,7480,-0.133221,1.441133,1.058738,0.005440,0.056519,0.950005
2011-09-26T13:14:21.764189,7490,-0.027097,1.392825,1.093748,0.005665,0.053787,0.950798
2011-09-26T13:14:21.774189,7500,0.079026,1.344516,1.128758,0.005891,0.051055,0.951590
2011-09-26T13:14:21.784189,7510,0.185150,1.296207,1.163768,0.006116,0.048323,0.952383
2011-09-26T13:14:21.794189,7520,0.291273,1.247898,1.198778,0.006342,0.045591,0.953176
2011-09-26T13:14:21.804189,7530,0.397397,1.199590,1.233788,0.006567,0.042859,0.953968
2011-09-26T13:14:21.814189,7540,0.503520,1.151281,1.268799,0.006793,0.040127,0.954761
2011-09-26T13:14:21.824189,7550,0.609644,1.102972,1.303809,0.007018,0.037395,0.955553
2011-09-26T13:14:21.834189,7560,0.715768,1.054663,1.338819,0.007244,0.034663,0.956346
2011-09-26T13:14:21.844189,7570,0.806116,1.087334,1.334909,0.006464,0.037467,0.960083
2011-09-26T13:14:21.854189,7580,0.895997,1.122397,1.329849,0.005654,0.040435,0.963907
2011-09-26T13:14:21.864189,7590,0.985879,1.157461,1.324789,0.004844,0.043403,0.967731
2011-09-26T13:14:21.874189,7600,1.075761,1.192525,1.319729,0.004034,0.046371,0.971556
2011-09-26T13:14:21.884189,7610,1.165642,1.227589,1.314669,0.003224,0.049339,0.975380
2011-09-26T13:14:21.894189,7620,1.255524,1.262653,1.309610,0.002414,0.052307,0.979204
2011-09-26T13:14:21.904189,7630,1.345406,1.297717,1.304550,0.001604,0.055275,0.983028
2011-09-26T13:14:21.914189,7640,1.435288,1.332781,1.299490,0.000794,0.058243,0.986852
2011-09-26T13:14:21.924189,7650,1.525169,1.367845,1.294430,-0.000016,0.061212,0.990677
2011-09-26T13:14:21.934189,7660,1.615051,1.402909,1.289370,-0.000826,0.064180,0.994501
2011-09-26T13:14:21.944189,7670,1.532006,1.287144,1.288859,-0.001958,0.064153,0.993829
2011-09-26T13:14:21.954189,7680,1.443283,1.166428,1.288498,-0.003100,0.064028,0.993010
2011-09-26T13:14:21.964189,7690,1.354561,1.045711,1.288136,-0.004243,0.063902,0.992190
2011-09-26T13:14:21.974189,7700,1.265839,0.924995,1.287775,-0.005385,0.063777,0.991371
2011-09-26T13:14:21.984189,7710,1.177116,0.804279,1.287414,-0.006527,0.063652,0.990551
2011-09-26T13:14:21.994189,7720,1.088394,0.683562,1.287053,-0.007670,0.063527,0.989732
2011-09-26T13:14:22.004189,7730,0.999671,0.562846,1.286691,-0.008812,0.063402,0.988912
2011-09-26T13:14:22.014189,7740,0.910949,0.442129,1.286330,-0.009954,0.063277,0.988093
2011-09-26T13:14:22.024189,7750,0.822227,0.321413,1.285969,-0.011097,0.063151,0.987274
2011-09-26T13:14:22.034189,7760,0.733504,0.200696,1.285607,-0.012239,0.063026,0.986454
2011-09-26T13:14:22.044189,7770,0.644782,0.079980,1.285246,-0.013381,0.062901,0.985635
2011-09-26T13:14:22.054189,7780,0.664635,-0.046863,1.290714,-0.013839,0.063672,0.986829
2011-09-26T13:14:22.064189,7790,0.688100,-0.173909,1.296376,-0.014274,0.064473,0.988091
2011-09-26T13:14:22.074189,7800,0.711565,-0.300956,1.302038,-0.014709,0.065274,0.989352
2011-09-26T13:14:22.084189,7810,0.735031,-0.428002,1.307699,-0.015144,0.066075,0.990614
2011-09-26T13:14:22.094189,7820,0.758496,-0.555049,1.313361,-0.015579,0.066876,0.991875
2011-09-26T13:14:22.104189,7830,0.781962,-0.682096,1.319023,-0.016014,0.067677,0.993137
2011-09-26T13:14:22.114189,7840,0.805427,-0.809142,1.324685,-0.016449,0.068478,0.994398
2011-09-26T13:14:22.124189,7850,0.828892,-0.936189,1.330347,-0.016884,0.069279,0.995660
2011-09-26T13:14:22.134189,7860,0.852358,-1.063235,1.336009,-0.017320,0.070080,0.996922
2011-09-26T13:14:22.144189,7870,0.875823,-1.190282,1.341671,-0.017755,0.070881,0.998183
2011-09-26T13:14:22.154189,7880,0.857217,-1.237608,1.348884,-0.017168,0.070302,1.002302
2011-09-26T13:14:22.164189,7890,0.837252,-1.282358,1.356146,-0.016548,0.069677,1.006513
2011-09-26T13:14:22.174189,7900,0.817287,-1.327108,1.363409,-0.015929,0.069053,1.010724
2011-09-26T13:14:22.184189,7910,0.797322,-1.371858,1.370672,-0.015309,0.068429,1.014934
2011-09-26T13:14:22.194189,7920,0.777356,-1.416608,1.377935,-0.014689,0.067804,1.019145
2011-09-26T13:14:22.204189,7930,0.757391,-1.461358,1.385198,-0.014070,0.067180,1.023356
2011-09-26T13:14:22.214189,7940,0.737426,-1.506109,1.392461,-0.013450,0.066556,1.027567
2011-09-26T13:14:22.224189,7950,0.717461,-1.550859,1.399724,-0.012830,0.065932,1.031778
2011-09-26T13:14:22.234189,7960,0.697496,-1.595609,1.406987,-0.012211,0.065307,1.035989
2011-09-26T13:14:22.244189,7970,0.677530,-1.640359,1.414250,-0.011591,0.064683,1.040200
2011-09-26T13:14:22.254189,7980,0.688596,-1.554384,1.406217,-0.011236,0.064462,1.040595
2011-09-26T13:14:22.264189,7990,0.701148,-1.462148,1.397452,-0.010893,0.064261,1.040807
2011-09-26T13:14:22.274189,8000,0.713700,-1.369912,1.388687,-0.010550,0.064059,1.041018
2011-09-26T13:14:22.284189,8010,0.726252,-1.277676,1.379921,-0.010208,0.063858,1.041230
2011-09-26T13:14:22.294189,8020,0.738804,-1.185440,1.371156,-0.009865,0.063656,1.041442
2011-09-26T13:14:22.304189,8030,0.751356,-1.093204,1.362391,-0.009523,0.063455,1.041654
2011-09-26T13:14:22.314189,8040,0.763908,-1.000969,1.353625,-0.009180,0.063253,1.041866
2011-09-26T13:14:22.324189,8050,0.776460,-0.908733,1.344860,-0.008837,0.063052,1.042078
2011-09-26T13:14:22.334189,8060,0.789012,-0.816497,1.336095,-0.008495,0.062850,1.042290
2011-09-26T13:14:22.344189,8070,0.801564,-0.724261,1.327329,-0.008152,0.062649,1.042501
2011-09-26T13:14:22.354189,8080,0.814116,-0.632025,1.318564,-0.007810,0.062447,1.042713
2011-09-26T13:14:22.364189,8090,0.842021,-0.592507,1.305764,-0.009633,0.062554,1.038885
2011-09-26T13:14:22.374189,8100,0.870431,-0.554725,1.292830,-0.011527,0.062670,1.034924
2011-09-26T13:14:22.384189,8110,0.898842,-0.516944,1.279897,-0.013422,0.062787,1.030964
2011-09-26T13:14:22.394189,8120,0.927253,-0.479162,1.266964,-0.015316,0.062904,1.027003
2011-09-26T13:14:22.404189,8130,0.955663,-0.441380,1.254030,-0.017210,0.063020,1.023042
2011-09-26T13:14:22.414189,8140,0.984074,-0.403599,1.241097,-0.019105,0.063137,1.019081
2011-09-26T13:14:22.424189,8150,1.012485,-0.365817,1.228164,-0.020999,0.063253,1.015120
2011-09-26T13:14:22.434189,8160,1.040895,-0.328035,1.215230,-0.022894,0.063370,1.011159
2011-09-26T13:14:22.444189,8170,1.069306,-0.290253,1.202297,-0.024788,0.063487,1.007198
2011-09-26T13:14:22.454189,8180,1.097716,-0.252472,1.189364,-0.026683,0.063603,1.003237
2011-09-26T13:14:22.464189,8190,1.095427,-0.311671,1.173173,-0.025992,0.064373,1.004417
2011-09-26T13:14:22.474189,8200,1.092229,-0.373738,1.156887,-0.025224,0.065162,1.005749
2011-09-26T13:14:22.484189,8210,1.089032,-0.435804,1.140600,-0.024457,0.065950,1.007080
2011-09-26T13:14:22.494189,8220,1.085834,-0.497871,1.124313,-0.023690,0.066739,1.008412
2011-09-26T13:14:22.504189,8230,1.082637,-0.559937,1.108027,-0.022922,0.067528,1.009744
2011-09-26T13:14:22.514189,8240,1.079440,-0.622004,1.091740,-0.022155,0.068317,1.011075
2011-09-26T13:14:22.524189,8250,1.076242,-0.684070,1.075453,-0.021387,0.069105,1.012407
2011-09-26T13:14:22.534189,8260,1.073045,-0.746136,1.059167,-0.020620,0.069894,1.013738
2011-09-26T13:14:22.544189,8270,1.069848,-0.808203,1.042880,-0.019853,0.070683,1.015070
2011-09-26T13:14:22.554189,8280,1.066650,-0.870269,1.026593,-0.019085,0.071472,1.016401
2011-09-26T13:14:22.564189,8290,1.063453,-0.932336,1.010307,-0.018318,0.072261,1.017733
2011-09-26T13:14:22.574189,8300,1.026989,-0.825814,0.988416,-0.018107,0.072570,1.020221
2011-09-26T13:14:22.584189,8310,0.989418,-0.713682,0.966340,-0.017915,0.072864,1.022748
2011-09-26T13:14:22.594189,8320,0.951847,-0.601550,0.944263,-0.017723,0.073158,1.025275
2011-09-26T13:14:22.604189,8330,0.914276,-0.489419,0.922186,-0.017531,0.073451,1.027802
2011-09-26T13:14:22.614189,8340,0.876705,-0.377287,0.900109,-0.017339,0.073745,1.030328
2011-09-26T13:14:22.624189,8350,0.839134,-0.265155,0.878032,-0.017147,0.074039,1.032855
2011-09-26T13:14:22.634189,8360,0.801563,-0.153024,0.855955,-0.016955,0.074332,1.035382
2011-09-26T13:14:22.644189,8370,0.763992,-0.040892,0.833878,-0.016763,0.074626,1.037909
2011-09-26T13:14:22.654189,8380,0.726421,0.071239,0.811801,-0.016571,0.074920,1.040436
2011-09-26T13:14:22.664189,8390,0.688850,0.183371,0.789724,-0.016379,0.075213,1.042962
2011-09-26T13:14:22.674189,8400,0.617535,0.186223,0.787267,-0.016812,0.073479,1.036167
2011-09-26T13:14:22.684189,8410,0.545067,0.185345,0.785478,-0.017266,0.071676,1.029053
2011-09-26T13:14:22.694189,8420,0.472599,0.184467,0.783690,-0.017720,0.069872,1.021939
2011-09-26T13:14:22.704189,8430,0.400131,0.183589,0.781902,-0.018174,0.068069,1.014825
2011-09-26T13:14:22.714189,8440,0.327664,0.182711,0.780113,-0.018628,0.066265,1.007711
2011-09-26T13:14:22.724189,8450,0.255196,0.181833,0.778325,-0.019082,0.064462,1.000597
2011-09-26T13:14:22.734189,8460,0.182728,0.180955,0.776537,-0.019536,0.062658,0.993483
2011-09-26T13:14:22.744189,8470,0.110261,0.180077,0.774749,-0.019990,0.060855,0.986370
2011-09-26T13:14:22.754189,8480,0.037793,0.179199,0.772960,-0.020444,0.059051,0.979256
2011-09-26T13:14:22.764189,8490,-0.034675,0.178321,0.771172,-0.020898,0.057248,0.972142
2011-09-26T13:14:22.774189,8500,-0.054420,0.163239,0.754113,-0.021319,0.057749,0.973561
2011-09-26T13:14:22.784189,8510,-0.072100,0.147600,0.736456,-0.021740,0.058341,0.975314
2011-09-26T13:14:22.794189,8520,-0.089780,0.131961,0.718799,-0.022160,0.058933,0.977068
2011-09-26T13:14:22.804189,8530,-0.107459,0.116322,0.701142,-0.022580,0.059524,0.978821
2011-09-26T13:14:22.814189,8540,-0.125139,0.100684,0.683484,-0.023000,0.060116,0.980575
2011-09-26T13:14:22.824189,8550,-0.142819,0.085045,0.665827,-0.023421,0.060708,0.982328
2011-09-26T13:14:22.834189,8560,-0.160499,0.069406,0.648170,-0.023841,0.061299,0.984082
2011-09-26T13:14:22.844189,8570,-0.178179,0.053768,0.630513,-0.024261,0.061891,0.985835
2011-09-26T13:14:22.854189,8580,-0.195859,0.038129,0.612856,-0.024681,0.062483,0.987588
2011-09-26T13:14:22.864189,8590,-0.213539,0.022490,0.595198,-0.025102,0.063075,0.989342
2011-09-26T13:14:22.874189,8600,-0.219610,0.045054,0.605545,-0.023840,0.063311,0.990499
2011-09-26T13:14:22.884189,8610,-0.225252,0.069033,0.616929,-0.022516,0.063535,0.991635
2011-09-26T13:14:22.894189,8620,-0.230894,0.093012,0.628314,-0.021192,0.063759,0.992770
2011-09-26T13:14:22.904189,8630,-0.236536,0.116991,0.639698,-0.019868,0.063982,0.993906
2011-09-26T13:14:22.914189,8640,-0.242178,0.140970,0.651082,-0.018544,0.064206,0.995041
2011-09-26T13:14:22.924189,8650,-0.247820,0.164949,0.662466,-0.017220,0.064429,0.996176
2011-09-26T13:14:22.934189,8660,-0.253462,0.188928,0.673850,-0.015896,0.064653,0.997312
2011-09-26T13:14:22.944189,8670,-0.259104,0.212908,0.685235,-0.014572,0.064876,0.998447
2011-09-26T13:14:22.954189,8680,-0.264746,0.236887,0.696619,-0.013248,0.065100,0.999583
2011-09-26T13:14:22.964189,8690,-0.270388,0.260866,0.708003,-0.011924,0.065324,1.000718
2011-09-26T13:14:22.974189,8700,-0.276030,0.284845,0.719387,-0.010600,0.065547,1.001854
2011-09-26T13:14:22.984189,8710,-0.254870,0.272282,0.723737,-0.010438,0.064539,1.000549
2011-09-26T13:14:22.994189,8720,-0.232782,0.258453,0.727844,-0.010316,0.063487,0.999161
2011-09-26T13:14:23.004189,8730,-0.210694,0.244624,0.731950,-0.010194,0.062436,0.997772
2011-09-26T13:14:23.014189,8740,-0.188605,0.230795,0.736057,-0.010073,0.061384,0.996383
2011-09-26T13:14:23.024189,8750,-0.166517,0.216966,0.740163,-0.009951,0.060333,0.994994
2011-09-26T13:14:23.034189,8760,-0.144429,0.203137,0.744270,-0.009829,0.059282,0.993605
2011-09-26T13:14:23.044189,8770,-0.122341,0.189308,0.748376,-0.009708,0.058230,0.992217
2011-09-26T13:14:23.054189,8780,-0.100252,0.175479,0.752483,-0.009586,0.057179,0.990828
2011-09-26T13:14:23.064189,8790,-0.078164,0.161651,0.756589,-0.009464,0.056128,0.989439
2011-09-26T13:14:23.074189,8800,-0.056076,0.147822,0.760696,-0.009343,0.055076,0.988050
2011-09-26T13:14:23.084189,8810,0.002052,0.131483,0.769684,-0.008473,0.055257,0.988931
2011-09-26T13:14:23.094189,8820,0.061515,0.115051,0.778853,-0.007576,0.055483,0.989895
2011-09-26T13:14:23.104189,8830,0.120978,0.098619,0.788022,-0.006679,0.055709,0.990860
2011-09-26T13:14:23.114189,8840,0.180441,0.082187,0.797191,-0.005782,0.055935,0.991824
2011-09-26T13:14:23.124189,8850,0.239904,0.065755,0.806360,-0.004885,0.056162,0.992788
2011-09-26T13:14:23.134189,8860,0.299367,0.049323,0.815529,-0.003988,0.056388,0.993753
2011-09-26T13:14:23.144189,8870,0.358830,0.032891,0.824698,-0.003090,0.056614,0.994717
2011-09-26T13:14:23.154189,8880,0.418292,0.016459,0.833867,-0.002193,0.056840,0.995682
2011-09-26T13:14:23.164189,8890,0.477755,0.000027,0.843036,-0.001296,0.057066,0.996646
2011-09-26T13:14:23.174189,8900,0.537218,-0.016405,0.852205,-0.000399,0.057293,0.997611
2011-09-26T13:14:23.184189,8910,0.532187,-0.038393,0.855057,-0.000341,0.057467,0.996947
2011-09-26T13:14:23.194189,8920,0.524495,-0.060611,0.857648,-0.000318,0.057640,0.996217
2011-09-26T13:14:23.204189,8930,0.516802,-0.082828,0.860239,-0.000295,0.057813,0.995486
2011-09-26T13:14:23.214189,8940,0.509110,-0.105046,0.862830,-0.000272,0.057986,0.994756
2011-09-26T13:14:23.224189,8950,0.501418,-0.127264,0.865421,-0.000249,0.058159,0.994025
2011-09-26T13:14:23.234189,8960,0.493725,-0.149482,0.868012,-0.000226,0.058332,0.993294
2011-09-26T13:14:23.244189,8970,0.486033,-0.171699,0.870603,-0.000203,0.058505,0.992564
2011-09-26T13:14:23.254189,8980,0.478341,-0.193917,0.873194,-0.000180,0.058678,0.991833
2011-09-26T13:14:23.264189,8990,0.470648,-0.216135,0.875785,-0.000157,0.058850,0.991103
2011-09-26T13:14:23.274189,9000,0.462956,-0.238352,0.878376,-0.000134,0.059023,0.990372
2011-09-26T13:14:23.284189,9010,0.455264,-0.260570,0.880967,-0.000111,0.059196,0.989642
2011-09-26T13:14:23.294189,9020,0.477941,-0.289002,0.874881,0.000643,0.059890,0.990324
2011-09-26T13:14:23.304189,9030,0.502303,-0.317780,0.868314,0.001438,0.060613,0.991086
2011-09-26T13:14:23.314189,9040,0.526666,-0.346557,0.861746,0.002232,0.061336,0.991847
2011-09-26T13:14:23.324189,9050,0.551029,-0.375334,0.855179,0.003026,0.062058,0.992608
2011-09-26T13:14:23.334189,9060,0.575392,-0.404112,0.848611,0.003821,0.062781,0.993369
2011-09-26T13:14:23.344189,9070,0.599754,-0.432889,0.842044,0.004615,0.063504,0.994131
2011-09-26T13:14:23.354189,9080,0.624117,-0.461666,0.835476,0.005410,0.064227,0.994892
2011-09-26T13:14:23.364189,9090,0.648480,-0.490443,0.828909,0.006204,0.064950,0.995653
2011-09-26T13:14:23.374189,9100,0.672843,-0.519221,0.822341,0.006998,0.065672,0.996414
2011-09-26T13:14:23.384189,9110,0.697205,-0.547998,0.815774,0.007793,0.066395,0.997176
2011-09-26T13:14:23.394189,9120,0.637547,-0.487159,0.824933,0.007918,0.067503,0.997875
2011-09-26T13:14:23.404189,9130,0.574096,-0.422275,0.834803,0.008013,0.068629,0.998572
2011-09-26T13:14:23.414189,9140,0.510645,-0.357391,0.844673,0.008108,0.069755,0.999269
2011-09-26T13:14:23.424189,9150,0.447194,-0.292508,0.854542,0.008203,0.070880,0.999966
2011-09-26T13:14:23.434189,9160,0.383743,-0.227624,0.864412,0.008298,0.072006,1.000663
2011-09-26T13:14:23.444189,9170,0.320292,-0.162740,0.874282,0.008393,0.073131,1.001360
2011-09-26T13:14:23.454189,9180,0.256841,-0.097856,0.884151,0.008488,0.074257,1.002057
2011-09-26T13:14:23.464189,9190,0.193390,-0.032972,0.894021,0.008582,0.075383,1.002754
2011-09-26T13:14:23.474189,9200,0.129940,0.031912,0.903891,0.008677,0.076508,1.003451
2011-09-26T13:14:23.484189,9210,0.066489,0.096796,0.913760,0.008772,0.077634,1.004147
2011-09-26T13:14:23.494189,9220,0.003038,0.161680,0.923630,0.008867,0.078759,1.004844
2011-09-26T13:14:23.504189,9230,-0.070854,0.203010,0.934412,0.008353,0.079797,1.003098
2011-09-26T13:14:23.514189,9240,-0.145120,0.243493,0.945226,0.007817,0.080832,1.001263
2011-09-26T13:14:23.524189,9250,-0.219387,0.283977,0.956041,0.007281,0.081867,0.999428
2011-09-26T13:14:23.534189,9260,-0.293654,0.324461,0.966855,0.006744,0.082902,0.997594
2011-09-26T13:14:23.544189,9270,-0.367921,0.364945,0.977670,0.006208,0.083937,0.995759
2011-09-26T13:14:23.554189,9280,-0.442187,0.405428,0.988484,0.005672,0.084972,0.993925
2011-09-26T13:14:23.564189,9290,-0.516454,0.445912,0.999298,0.005136,0.086007,0.992090
2011-09-26T13:14:23.574189,9300,-0.590721,0.486396,1.010113,0.004600,0.087042,0.990256
2011-09-26T13:14:23.584189,9310,-0.664987,0.526879,1.020927,0.004064,0.088077,0.988421
2011-09-26T13:14:23.594189,9320,-0.739254,0.567363,1.031742,0.003527,0.089112,0.986586
2011-09-26T13:14:23.604189,9330,-0.748038,0.499730,1.039911,0.003369,0.088292,0.985582
2011-09-26T13:14:23.614189,9340,-0.754028,0.427484,1.047968,0.003228,0.087392,0.984613
2011-09-26T13:14:23.624189,9350,-0.760018,0.355238,1.056025,0.003086,0.086493,0.983644
2011-09-26T13:14:23.634189,9360,-0.766008,0.282993,1.064082,0.002944,0.085593,0.982675
2011-09-26T13:14:23.644189,9370,-0.771999,0.210747,1.072139,0.002802,0.084694,0.981706
2011-09-26T13:14:23.654189,9380,-0.777989,0.138501,1.080196,0.002661,0.083794,0.980737
2011-09-26T13:14:23.664189,9390,-0.783979,0.066255,1.088252,0.002519,0.082895,0.979769
2011-09-26T13:14:23.674189,9400,-0.789969,-0.005991,1.096309,0.002377,0.081995,0.978800
2011-09-26T13:14:23.684189,9410,-0.795959,-0.078236,1.104366,0.002235,0.081095,0.977831
2011-09-26T13:14:23.694189,9420,-0.801950,-0.150482,1.112423,0.002093,0.080196,0.976862
2011-09-26T13:14:23.704189,9430,-0.836192,-0.206504,1.112881,0.002911,0.078890,0.979567
2011-09-26T13:14:23.714189,9440,-0.871993,-0.261631,1.112921,0.003782,0.077562,0.982475
2011-09-26T13:14:23.724189,9450,-0.907795,-0.316758,1.112960,0.004652,0.076234,0.985383
2011-09-26T13:14:23.734189,9460,-0.943596,-0.371884,1.112999,0.005523,0.074906,0.988291
2011-09-26T13:14:23.744189,9470,-0.979397,-0.427011,1.113038,0.006393,0.073578,0.991199
2011-09-26T13:14:23.754189,9480,-1.015198,-0.482138,1.113078,0.007264,0.072250,0.994107
2011-09-26T13:14:23.764189,9490,-1.051000,-0.537264,1.113117,0.008134,0.070922,0.997016
2011-09-26T13:14:23.774189,9500,-1.086801,-0.592391,1.113156,0.009005,0.069594,0.999924
2011-09-26T13:14:23.784189,9510,-1.122602,-0.647518,1.113195,0.009875,0.068266,1.002832
2011-09-26T13:14:23.794189,9520,-1.158404,-0.702644,1.113234,0.010746,0.066938,1.005740
2011-09-26T13:14:23.804189,9530,-1.194205,-0.757771,1.113274,0.011616,0.065610,1.008648
2011-09-26T13:14:23.814189,9540,-1.126244,-0.663017,1.105291,0.012680,0.065226,1.009915
2011-09-26T13:14:23.824189,9550,-1.053406,-0.561217,1.096931,0.013753,0.064886,1.011105
2011-09-26T13:14:23.834189,9560,-0.980568,-0.459417,1.088571,0.014826,0.064546,1.012295
2011-09-26T13:14:23.844189,9570,-0.907730,-0.357617,1.080212,0.015899,0.064206,1.013485
2011-09-26T13:14:23.854189,9580,-0.834892,-0.255817,1.071852,0.016972,0.063866,1.014675
2011-09-26T13:14:23.864189,9590,-0.762054,-0.154017,1.063492,0.018044,0.063526,1.015865
2011-09-26T13:14:23.874189,9600,-0.689216,-0.052217,1.055132,0.019117,0.063185,1.017055
2011-09-26T13:14:23.884189,9610,-0.616377,0.049583,1.046772,0.020190,0.062845,1.018245
2011-09-26T13:14:23.894189,9620,-0.543539,0.151383,1.038413,0.021263,0.062505,1.019435
2011-09-26T13:14:23.904189,9630,-0.470701,0.253183,1.030053,0.022336,0.062165,1.020625
2011-09-26T13:14:23.914189,9640,-0.429645,0.235986,1.040220,0.021752,0.062149,1.018441
2011-09-26T13:14:23.924189,9650,-0.389921,0.213803,1.051163,0.021100,0.062146,1.016116
2011-09-26T13:14:23.934189,9660,-0.350196,0.191621,1.062106,0.020447,0.062144,1.013791
2011-09-26T13:14:23.944189,9670,-0.310472,0.169438,1.073050,0.019794,0.062141,1.011466
2011-09-26T13:14:23.954189,9680,-0.270747,0.147255,1.083993,0.019141,0.062138,1.009141
2011-09-26T13:14:23.964189,9690,-0.231023,0.125073,1.094936,0.018488,0.062135,1.006816
2011-09-26T13:14:23.974189,9700,-0.191298,0.102890,1.105879,0.017835,0.062133,1.004491
2011-09-26T13:14:23.984189,9710,-0.151574,0.080708,1.116823,0.017182,0.062130,1.002166
2011-09-26T13:14:23.994189,9720,-0.111849,0.058525,1.127766,0.016530,0.062127,0.999841
2011-09-26T13:14:24.004189,9730,-0.072125,0.036342,1.138709,0.015877,0.062125,0.997516
2011-09-26T13:14:24.014189,9740,0.003881,-0.041012,1.130443,0.015483,0.060738,0.997517
2011-09-26T13:14:24.024189,9750,0.081332,-0.120563,1.121411,0.015100,0.059296,0.997612
2011-09-26T13:14:24.034189,9760,0.158783,-0.200115,1.112379,0.014716,0.057854,0.997706
2011-09-26T13:14:24.044189,9770,0.236234,-0.279666,1.103348,0.014333,0.056413,0.997801
2011-09-26T13:14:24.054189,9780,0.313685,-0.359218,1.094316,0.013950,0.054971,0.997895
2011-09-26T13:14:24.064189,9790,0.391136,-0.438769,1.085285,0.013567,0.053529,0.997990
2011-09-26T13:14:24.074189,9800,0.468587,-0.518321,1.076253,0.013183,0.052087,0.998084
2011-09-26T13:14:24.084189,9810,0.546038,-0.597872,1.067222,0.012800,0.050645,0.998178
2011-09-26T13:14:24.094189,9820,0.623489,-0.677424,1.058190,0.012417,0.049204,0.998273
2011-09-26T13:14:24.104189,9830,0.700940,-0.756975,1.049158,0.012033,0.047762,0.998367
2011-09-26T13:14:24.114189,9840,0.778391,-0.836527,1.040127,0.011650,0.046320,0.998462
2011-09-26T13:14:24.124189,9850,0.710286,-0.797886,1.036604,0.013305,0.047450,1.000754
2011-09-26T13:14:24.134189,9860,0.637077,-0.755100,1.033274,0.015032,0.048670,1.003123
2011-09-26T13:14:24.144189,9870,0.563868,-0.712314,1.029944,0.016759,0.049890,1.005493
2011-09-26T13:14:24.154189,9880,0.490658,-0.669528,1.026614,0.018485,0.051110,1.007862
2011-09-26T13:14:24.164189,9890,0.417449,-0.626741,1.023284,0.020212,0.052331,1.010231
2011-09-26T13:14:24.174189,9900,0.344239,-0.583955,1.019954,0.021939,0.053551,1.012601
2011-09-26T13:14:24.184189,9910,0.271030,-0.541169,1.016624,0.023665,0.054771,1.014970
2011-09-26T13:14:24.194189,9920,0.197820,-0.498383,1.013294,0.025392,0.055991,1.017339
2011-09-26T13:14:24.204189,9930,0.124611,-0.455597,1.009964,0.027119,0.057211,1.019708
2011-09-26T13:14:24.214189,9940,0.051401,-0.412810,1.006634,0.028845,0.058432,1.022078
2011-09-26T13:14:24.224189,9950,0.059584,-0.104760,0.989274,0.028216,0.059727,1.019481
2011-09-26T13:14:24.234189,9960,0.071968,0.216986,0.971189,0.027465,0.061027,1.016629
2011-09-26T13:14:24.244189,9970,0.084353,0.538732,0.953105,0.026714,0.062326,1.013776
2011-09-26T13:14:24.254189,9980,0.096738,0.860478,0.935020,0.025962,0.063625,1.010923
2011-09-26T13:14:24.264189,9990,0.109122,1.182224,0.916935,0.025211,0.064925,1.008071
2011-09-26T13:14:24.274189,10000,0.121507,1.503970,0.898851,0.024460,0.066224,1.005218
2011-09-26T13:14:24.284189,10010,0.133891,1.825716,0.880766,0.023709,0.067524,1.002365
2011-09-26T13:14:24.294189,10020,0.146276,2.147462,0.862681,0.022958,0.068823,0.999513
2011-09-26T13:14:24.304189,10030,0.158661,2.469208,0.844596,0.022207,0.070123,0.996660
2011-09-26T13:14:24.314189,10040,0.171045,2.790954,0.826512,0.021456,0.071422,0.993807
2011-09-26T13:14:24.324189,10050,0.123881,2.570834,0.809487,0.022957,0.068796,0.987384
2011-09-26T13:14:24.334189,10060,0.074209,2.327897,0.792507,0.024553,0.066004,0.980810
2011-09-26T13:14:24.344189,10070,0.024537,2.084961,0.775527,0.026149,0.063212,0.974236
2011-09-26T13:14:24.354189,10080,-0.025135,1.842024,0.758548,0.027745,0.060421,0.967661
2011-09-26T13:14:24.364189,10090,-0.074807,1.599088,0.741568,0.029341,0.057629,0.961087
2011-09-26T13:14:24.374189,10100,-0.124479,1.356152,0.724588,0.030937,0.054838,0.954513
2011-09-26T13:14:24.384189,10110,-0.174151,1.113215,0.707608,0.032533,0.052046,0.947939
2011-09-26T13:14:24.394189,10120,-0.223823,0.870279,0.690628,0.034129,0.049254,0.941365
2011-09-26T13:14:24.404189,10130,-0.273495,0.627342,0.673648,0.035725,0.046463,0.934791
2011-09-26T13:14:24.414189,10140,-0.323167,0.384406,0.656669,0.037321,0.043671,0.928217
2011-09-26T13:14:24.424189,10150,-0.372839,0.141470,0.639689,0.038917,0.040880,0.921643
2011-09-26T13:14:24.434189,10160,-0.379511,-0.069447,0.639023,0.036476,0.044127,0.927767
2011-09-26T13:14:24.444189,10170,-0.384217,-0.278899,0.639103,0.033851,0.047652,0.934471
2011-09-26T13:14:24.454189,10180,-0.388923,-0.488352,0.639183,0.031226,0.051176,0.941176
2011-09-26T13:14:24.464189,10190,-0.393629,-0.697804,0.639263,0.028601,0.054700,0.947881
2011-09-26T13:14:24.474189,10200,-0.398335,-0.907257,0.639344,0.025976,0.058224,0.954585
2011-09-26T13:14:24.484189,10210,-0.403041,-1.116709,0.639424,0.023351,0.061748,0.961290
2011-09-26T13:14:24.494189,10220,-0.407747,-1.326162,0.639504,0.020726,0.065272,0.967995
2011-09-26T13:14:24.504189,10230,-0.412453,-1.535615,0.639584,0.018101,0.068796,0.974699
2011-09-26T13:14:24.514189,10240,-0.417159,-1.745067,0.639664,0.015476,0.072321,0.981404
2011-09-26T13:14:24.524189,10250,-0.421865,-1.954520,0.639745,0.012851,0.075845,0.988109
2011-09-26T13:14:24.534189,10260,-0.436346,-1.933984,0.636125,0.014839,0.074234,0.996298
2011-09-26T13:14:24.544189,10270,-0.451241,-1.903692,0.632349,0.017023,0.072406,1.004550
2011-09-26T13:14:24.554189,10280,-0.466136,-1.873399,0.628572,0.019207,0.070578,1.012802
2011-09-26T13:14:24.564189,10290,-0.481031,-1.843107,0.624796,0.021391,0.068750,1.021054
2011-09-26T13:14:24.574189,10300,-0.495926,-1.812814,0.621019,0.023575,0.066922,1.029306
2011-09-26T13:14:24.584189,10310,-0.510821,-1.782521,0.617243,0.025759,0.065094,1.037558
2011-09-26T13:14:24.594189,10320,-0.525716,-1.752229,0.613466,0.027942,0.063266,1.045811
2011-09-26T13:14:24.604189,10330,-0.540611,-1.721936,0.609690,0.030126,0.061438,1.054063
2011-09-26T13:14:24.614189,10340,-0.555506,-1.691644,0.605913,0.032310,0.059609,1.062315
2011-09-26T13:14:24.624189,10350,-0.570401,-1.661351,0.602137,0.034494,0.057781,1.070567
2011-09-26T13:14:24.634189,10360,-0.585296,-1.631059,0.598360,0.036678,0.055953,1.078819
2011-09-26T13:14:24.644189,10370,-0.632472,-1.468280,0.581536,0.036685,0.056368,1.076207
2011-09-26T13:14:24.654189,10380,-0.681069,-1.299666,0.564137,0.036597,0.056881,1.073116
2011-09-26T13:14:24.664189,10390,-0.729667,-1.131052,0.546738,0.036508,0.057395,1.070025
2011-09-26T13:14:24.674189,10400,-0.778264,-0.962438,0.529339,0.036420,0.057908,1.066934
2011-09-26T13:14:24.684189,10410,-0.826862,-0.793824,0.511940,0.036331,0.058422,1.063843
2011-09-26T13:14:24.694189,10420,-0.875459,-0.625210,0.494541,0.036243,0.058935,1.060752
2011-09-26T13:14:24.704189,10430,-0.924056,-0.456596,0.477142,0.036154,0.059449,1.057661
2011-09-26T13:14:24.714189,10440,-0.972654,-0.287981,0.459743,0.036065,0.059962,1.054570
2011-09-26T13:14:24.724189,10450,-1.021251,-0.119367,0.442345,0.035977,0.060476,1.051479
2011-09-26T13:14:24.734189,10460,-1.069849,0.049247,0.424946,0.035888,0.060989,1.048388
2011-09-26T13:14:24.744189,10470,-1.090221,0.109512,0.406804,0.035692,0.059561,1.044362
2011-09-26T13:14:24.754189,10480,-1.108727,0.162618,0.388613,0.035488,0.058004,1.040275
2011-09-26T13:14:24.764189,10490,-1.127233,0.215724,0.370423,0.035285,0.056447,1.036187
2011-09-26T13:14:24.774189,10500,-1.145740,0.268830,0.352232,0.035082,0.054891,1.032100
2011-09-26T13:14:24.784189,10510,-1.164246,0.321935,0.334041,0.034878,0.053334,1.028013
2011-09-26T13:14:24.794189,10520,-1.182753,0.375041,0.315851,0.034675,0.051777,1.023925
2011-09-26T13:14:24.804189,10530,-1.201259,0.428147,0.297660,0.034471,0.050220,1.019838
2011-09-26T13:14:24.814189,10540,-1.219765,0.481252,0.279469,0.034268,0.048664,1.015751
2011-09-26T13:14:24.824189,10550,-1.238272,0.534358,0.261279,0.034064,0.047107,1.011664
2011-09-26T13:14:24.834189,10560,-1.256778,0.587464,0.243088,0.033861,0.045550,1.007576
2011-09-26T13:14:24.844189,10570,-1.254915,0.584043,0.231703,0.033517,0.044948,1.005451
2011-09-26T13:14:24.854189,10580,-1.252161,0.578150,0.220616,0.033167,0.044388,1.003412
2011-09-26T13:14:24.864189,10590,-1.249406,0.572257,0.209529,0.032817,0.043828,1.001373
2011-09-26T13:14:24.874189,10600,-1.246652,0.566363,0.198442,0.032467,0.043268,0.999334
2011-09-26T13:14:24.884189,10610,-1.243897,0.560470,0.187356,0.032117,0.042708,0.997295
2011-09-26T13:14:24.894189,10620,-1.241143,0.554576,0.176269,0.031767,0.042148,0.995256
2011-09-26T13:14:24.904189,10630,-1.238389,0.548683,0.165182,0.031417,0.041588,0.993216
2011-09-26T13:14:24.914189,10640,-1.235634,0.542789,0.154095,0.031067,0.041028,0.991177
2011-09-26T13:14:24.924189,10650,-1.232880,0.536896,0.143008,0.030718,0.040468,0.989138
2011-09-26T13:14:24.934189,10660,-1.230125,0.531002,0.131921,0.030368,0.039908,0.987099
2011-09-26T13:14:24.944189,10670,-1.227371,0.525109,0.120834,0.030018,0.039348,0.985060
2011-09-26T13:14:24.954189,10680,-1.182830,0.503673,0.114581,0.029412,0.038389,0.984629
2011-09-26T13:14:24.964189,10690,-1.136452,0.481554,0.108541,0.028796,0.037413,0.984268
2011-09-26T13:14:24.974189,10700,-1.090074,0.459435,0.102501,0.028179,0.036437,0.983907
2011-09-26T13:14:24.984189,10710,-1.043696,0.437316,0.096461,0.027563,0.035462,0.983547
2011-09-26T13:14:24.994189,10720,-0.997318,0.415197,0.090421,0.026946,0.034486,0.983186
2011-09-26T13:14:25.004189,10730,-0.950940,0.393078,0.084381,0.026330,0.033510,0.982825
2011-09-26T13:14:25.014189,10740,-0.904562,0.370960,0.078341,0.025713,0.032534,0.982465
2011-09-26T13:14:25.024189,10750,-0.858184,0.348841,0.072301,0.025097,0.031558,0.982104
2011-09-26T13:14:25.034189,10760,-0.811806,0.326722,0.066260,0.024480,0.030582,0.981743
2011-09-26T13:14:25.044189,10770,-0.765428,0.304603,0.060220,0.023864,0.029607,0.981383
2011-09-26T13:14:25.054189,10780,-0.783712,0.245548,0.057550,0.024001,0.030159,0.982506
2011-09-26T13:14:25.064189,10790,-0.804917,0.184825,0.055032,0.024173,0.030781,0.983697
2011-09-26T13:14:25.074189,10800,-0.826122,0.124102,0.052514,0.024344,0.031403,0.984888
2011-09-26T13:14:25.084189,10810,-0.847326,0.063378,0.049996,0.024516,0.032024,0.986079
2011-09-26T13:14:25.094189,10820,-0.868531,0.002655,0.047478,0.024687,0.032646,0.987269
2011-09-26T13:14:25.104189,10830,-0.889735,-0.058068,0.044960,0.024859,0.033268,0.988460
2011-09-26T13:14:25.114189,10840,-0.910940,-0.118791,0.042443,0.025030,0.033890,0.989651
2011-09-26T13:14:25.124189,10850,-0.932144,-0.179514,0.039925,0.025202,0.034511,0.990841
2011-09-26T13:14:25.134189,10860,-0.953349,-0.240237,0.037407,0.025373,0.035133,0.992032
2011-09-26T13:14:25.144189,10870,-0.974553,-0.300960,0.034889,0.025545,0.035755,0.993223
2011-09-26T13:14:25.154189,10880,-0.907784,-0.318300,0.025907,0.025668,0.035045,0.995668
2011-09-26T13:14:25.164189,10890,-0.836908,-0.333614,0.016624,0.025788,0.034272,0.998171
2011-09-26T13:14:25.174189,10900,-0.766031,-0.348929,0.007341,0.025909,0.033500,1.000674
2011-09-26T13:14:25.184189,10910,-0.695154,-0.364243,-0.001942,0.026030,0.032728,1.003178
2011-09-26T13:14:25.194189,10920,-0.624278,-0.379557,-0.011225,0.026151,0.031955,1.005681
2011-09-26T13:14:25.204189,10930,-0.553401,-0.394872,-0.020509,0.026271,0.031183,1.008184
2011-09-26T13:14:25.214189,10940,-0.482524,-0.410186,-0.029792,0.026392,0.030411,1.010688
2011-09-26T13:14:25.224189,10950,-0.411648,-0.425500,-0.039075,0.026513,0.029638,1.013191
2011-09-26T13:14:25.234189,10960,-0.340771,-0.440815,-0.048358,0.026634,0.028866,1.015694
2011-09-26T13:14:25.244189,10970,-0.269895,-0.456129,-0.057641,0.026754,0.028094,1.018198
2011-09-26T13:14:25.254189,10980,-0.199018,-0.471443,-0.066925,0.026875,0.027321,1.020701
2011-09-26T13:14:25.264189,10990,-0.213910,-0.410664,-0.071210,0.026705,0.027770,1.020157
2011-09-26T13:14:25.274189,11000,-0.235476,-0.343965,-0.075106,0.026513,0.028313,1.019375
2011-09-26T13:14:25.284189,11010,-0.257042,-0.277265,-0.079002,0.026321,0.028856,1.018594
2011-09-26T13:14:25.294189,11020,-0.278608,-0.210565,-0.082898,0.026128,0.029399,1.017812
2011-09-26T13:14:25.304189,11030,-0.300174,-0.143865,-0.086794,0.025936,0.029942,1.017030
2011-09-26T13:14:25.314189,11040,-0.321739,-0.077165,-0.090691,0.025743,0.030485,1.016249
2011-09-26T13:14:25.324189,11050,-0.343305,-0.010465,-0.094587,0.025551,0.031028,1.015467
2011-09-26T13:14:25.334189,11060,-0.364871,0.056234,-0.098483,0.025358,0.031571,1.014686
2011-09-26T13:14:25.344189,11070,-0.386437,0.122934,-0.102379,0.025166,0.032115,1.013904
2011-09-26T13:14:25.354189,11080,-0.408003,0.189634,-0.106276,0.024974,0.032658,1.013123
2011-09-26T13:14:25.364189,11090,-0.349007,0.197026,-0.112149,0.023785,0.030433,1.012826
2011-09-26T13:14:25.374189,11100,-0.285959,0.201434,-0.118121,0.022545,0.028070,1.012554
2011-09-26T13:14:25.384189,11110,-0.222911,0.205842,-0.124094,0.021306,0.025706,1.012281
2011-09-26T13:14:25.394189,11120,-0.159862,0.210250,-0.130066,0.020067,0.023343,1.012009
2011-09-26T13:14:25.404189,11130,-0.096814,0.214658,-0.136039,0.018827,0.020979,1.011736
2011-09-26T13:14:25.414189,11140,-0.033766,0.219066,-0.142012,0.017588,0.018616,1.011464
2011-09-26T13:14:25.424189,11150,0.029282,0.223474,-0.147984,0.016349,0.016252,1.011191
2011-09-26T13:14:25.434189,11160,0.092331,0.227882,-0.153957,0.015109,0.013888,1.010919
2011-09-26T13:14:25.444189,11170,0.155379,0.232290,-0.159929,0.013870,0.011525,1.010646
2011-09-26T13:14:25.454189,11180,0.218427,0.236698,-0.165902,0.012631,0.009161,1.010374
2011-09-26T13:14:25.464189,11190,0.249819,0.235185,-0.162607,0.011091,0.010340,1.009036
2011-09-26T13:14:25.474189,11200,0.279726,0.233394,-0.158878,0.009537,0.011684,1.007648
2011-09-26T13:14:25.484189,11210,0.309634,0.231603,-0.155148,0.007983,0.013028,1.006260
2011-09-26T13:14:25.494189,11220,0.339541,0.229813,-0.151419,0.006430,0.014372,1.004872
2011-09-26T13:14:25.504189,11230,0.369448,0.228022,-0.147689,0.004876,0.015717,1.003485
2011-09-26T13:14:25.514189,11240,0.399355,0.226231,-0.143960,0.003322,0.017061,1.002097
2011-09-26T13:14:25.524189,11250,0.429262,0.224440,-0.140231,0.001768,0.018405,1.000709
2011-09-26T13:14:25.534189,11260,0.459170,0.222649,-0.136501,0.000214,0.019750,0.999321
2011-09-26T13:14:25.544189,11270,0.489077,0.220858,-0.132772,-0.001339,0.021094,0.997933
2011-09-26T13:14:25.554189,11280,0.518984,0.219067,-0.129042,-0.002893,0.022438,0.996545
2011-09-26T13:14:25.564189,11290,0.548891,0.217276,-0.125313,-0.004447,0.023783,0.995157
2011-09-26T13:14:25.574189,11300,0.596545,0.248844,-0.125543,-0.004779,0.023889,0.995784
2011-09-26T13:14:25.584189,11310,0.645080,0.282067,-0.125970,-0.005050,0.023934,0.996512
2011-09-26T13:14:25.594189,11320,0.693614,0.315290,-0.126396,-0.005320,0.023978,0.997239
2011-09-26T13:14:25.604189,11330,0.742149,0.348513,-0.126823,-0.005591,0.024023,0.997966
2011-09-26T13:14:25.614189,11340,0.790684,0.381737,-0.127249,-0.005862,0.024068,0.998693
2011-09-26T13:14:25.624189,11350,0.839218,0.414960,-0.127676,-0.006133,0.024113,0.999420
2011-09-26T13:14:25.634189,11360,0.887753,0.448183,-0.128103,-0.006404,0.024157,1.000148
2011-09-26T13:14:25.644189,11370,0.936288,0.481406,-0.128529,-0.006675,0.024202,1.000875
2011-09-26T13:14:25.654189,11380,0.984822,0.514630,-0.128956,-0.006946,0.024247,1.001602
2011-09-26T13:14:25.664189,11390,1.033357,0.547853,-0.129382,-0.007217,0.024292,1.002329
2011-09-26T13:14:25.674189,11400,0.996763,0.494959,-0.127776,-0.008095,0.024516,1.002008
2011-09-26T13:14:25.684189,11410,0.955954,0.437800,-0.126070,-0.009003,0.024750,1.001635
2011-09-26T13:14:25.694189,11420,0.915144,0.380642,-0.124363,-0.009911,0.024983,1.001262
2011-09-26T13:14:25.704189,11430,0.874334,0.323483,-0.122656,-0.010819,0.025216,1.000888
2011-09-26T13:14:25.714189,11440,0.833524,0.266324,-0.120950,-0.011727,0.025450,1.000515
2011-09-26T13:14:25.724189,11450,0.792714,0.209165,-0.119243,-0.012636,0.025683,1.000142
2011-09-26T13:14:25.734189,11460,0.751904,0.152006,-0.117536,-0.013544,0.025916,0.999769
2011-09-26T13:14:25.744189,11470,0.711095,0.094847,-0.115829,-0.014452,0.026150,0.999395
2011-09-26T13:14:25.754189,11480,0.670285,0.037688,-0.114123,-0.015360,0.026383,0.999022
2011-09-26T13:14:25.764189,11490,0.629475,-0.019471,-0.112416,-0.016268,0.026616,0.998649
2011-09-26T13:14:25.774189,11500,0.716402,0.005569,-0.121140,-0.016781,0.026979,1.001991
2011-09-26T13:14:25.784189,11510,0.810084,0.034956,-0.130415,-0.017273,0.027348,1.005529
2011-09-26T13:14:25.794189,11520,0.903766,0.064342,-0.139690,-0.017765,0.027717,1.009067
2011-09-26T13:14:25.804189,11530,0.997447,0.093729,-0.148966,-0.018257,0.028086,1.012605
2011-09-26T13:14:25.814189,11540,1.091129,0.123115,-0.158241,-0.018749,0.028456,1.016143
2011-09-26T13:14:25.824189,11550,1.184811,0.152502,-0.167516,-0.019241,0.028825,1.019681
2011-09-26T13:14:25.834189,11560,1.278492,0.181888,-0.176792,-0.019732,0.029194,1.023219
2011-09-26T13:14:25.844189,11570,1.372174,0.211275,-0.186067,-0.020224,0.029563,1.026757
2011-09-26T13:14:25.854189,11580,1.465856,0.240661,-0.195342,-0.020716,0.029932,1.030295
2011-09-26T13:14:25.864189,11590,1.559538,0.270048,-0.204618,-0.021208,0.030302,1.033833
2011-09-26T13:14:25.874189,11600,1.653219,0.299434,-0.213893,-0.021700,0.030671,1.037371
2011-09-26T13:14:25.884189,11610,1.570906,0.310700,-0.210704,-0.022756,0.030325,1.028479
2011-09-26T13:14:25.894189,11620,1.479664,0.321045,-0.206883,-0.023840,0.029942,1.018956
2011-09-26T13:14:25.904189,11630,1.388421,0.331391,-0.203061,-0.024925,0.029560,1.009434
2011-09-26T13:14:25.914189,11640,1.297178,0.341737,-0.199240,-0.026009,0.029177,0.999911
2011-09-26T13:14:25.924189,11650,1.205935,0.352083,-0.195418,-0.027094,0.028795,0.990389
2011-09-26T13:14:25.934189,11660,1.114692,0.362429,-0.191597,-0.028179,0.028412,0.980866
2011-09-26T13:14:25.944189,11670,1.023449,0.372775,-0.187775,-0.029263,0.028030,0.971343
2011-09-26T13:14:25.954189,11680,0.932206,0.383121,-0.183954,-0.030348,0.027647,0.961821
2011-09-26T13:14:25.964189,11690,0.840963,0.393467,-0.180132,-0.031432,0.027265,0.952298
2011-09-26T13:14:25.974189,11700,0.749721,0.403813,-0.176311,-0.032517,0.026882,0.942775
2011-09-26T13:14:25.984189,11710,0.793706,0.388436,-0.183065,-0.031777,0.027030,0.949542
2011-09-26T13:14:25.994189,11720,0.844659,0.371734,-0.190364,-0.030944,0.027206,0.957147
2011-09-26T13:14:26.004189,11730,0.895612,0.355032,-0.197663,-0.030111,0.027382,0.964752
2011-09-26T13:14:26.014189,11740,0.946565,0.338331,-0.204962,-0.029277,0.027557,0.972358
2011-09-26T13:14:26.024189,11750,0.997518,0.321629,-0.212261,-0.028444,0.027733,0.979963
2011-09-26T13:14:26.034189,11760,1.048471,0.304927,-0.219560,-0.027611,0.027909,0.987568
2011-09-26T13:14:26.044189,11770,1.099424,0.288225,-0.226858,-0.026777,0.028084,0.995174
2011-09-26T13:14:26.054189,11780,1.150377,0.271523,-0.234157,-0.025944,0.028260,1.002779
2011-09-26T13:14:26.064189,11790,1.201330,0.254821,-0.241456,-0.025110,0.028436,1.010384
2011-09-26T13:14:26.074189,11800,1.252283,0.238119,-0.248755,-0.024277,0.028611,1.017990
2011-09-26T13:14:26.084189,11810,1.199501,0.302448,-0.245980,-0.024634,0.030032,1.016334
2011-09-26T13:14:26.094189,11820,1.141029,0.371220,-0.242652,-0.025056,0.031521,1.014170
2011-09-26T13:14:26.104189,11830,1.082557,0.439993,-0.239324,-0.025478,0.033010,1.012007
2011-09-26T13:14:26.114189,11840,1.024085,0.508766,-0.235997,-0.025899,0.034498,1.009843
2011-09-26T13:14:26.124189,11850,0.965612,0.577539,-0.232669,-0.026321,0.035987,1.007680
2011-09-26T13:14:26.134189,11860,0.907140,0.646312,-0.229341,-0.026743,0.037476,1.005516
2011-09-26T13:14:26.144189,11870,0.848668,0.715085,-0.226013,-0.027165,0.038965,1.003352
2011-09-26T13:14:26.154189,11880,0.790196,0.783858,-0.222686,-0.027587,0.040453,1.001189
2011-09-26T13:14:26.164189,11890,0.731723,0.852631,-0.219358,-0.028009,0.041942,0.999025
2011-09-26T13:14:26.174189,11900,0.673251,0.921404,-0.216030,-0.028431,0.043431,0.996861
2011-09-26T13:14:26.184189,11910,0.614779,0.990177,-0.212702,-0.028853,0.044920,0.994698
2011-09-26T13:14:26.194189,11920,0.600901,0.965097,-0.220472,-0.029865,0.043329,0.994140
2011-09-26T13:14:26.204189,11930,0.589470,0.934869,-0.228849,-0.030909,0.041569,0.993671
2011-09-26T13:14:26.214189,11940,0.578039,0.904641,-0.237227,-0.031954,0.039809,0.993202
2011-09-26T13:14:26.224189,11950,0.566607,0.874413,-0.245605,-0.032999,0.038049,0.992732
2011-09-26T13:14:26.234189,11960,0.555176,0.844184,-0.253983,-0.034043,0.036289,0.992263
2011-09-26T13:14:26.244189,11970,0.543745,0.813956,-0.262360,-0.035088,0.034529,0.991794
2011-09-26T13:14:26.254189,11980,0.532313,0.783728,-0.270738,-0.036132,0.032769,0.991324
2011-09-26T13:14:26.264189,11990,0.520882,0.753500,-0.279116,-0.037177,0.031009,0.990855
2011-09-26T13:14:26.274189,12000,0.509451,0.723272,-0.287494,-0.038221,0.029249,0.990386
2011-09-26T13:14:26.284189,12010,0.498019,0.693043,-0.295871,-0.039266,0.027489,0.989916
2011-09-26T13:14:26.294189,12020,0.426001,0.660874,-0.300389,-0.039542,0.028756,0.988978
2011-09-26T13:14:26.304189,12030,0.349431,0.628559,-0.304617,-0.039760,0.030250,0.988005
2011-09-26T13:14:26.314189,12040,0.272860,0.596244,-0.308844,-0.039978,0.031745,0.987033
2011-09-26T13:14:26.324189,12050,0.196289,0.563929,-0.313072,-0.040196,0.033240,0.986060
2011-09-26T13:14:26.334189,12060,0.119718,0.531614,-0.317299,-0.040414,0.034734,0.985087
2011-09-26T13:14:26.344189,12070,0.043147,0.499299,-0.321527,-0.040633,0.036229,0.984114
2011-09-26T13:14:26.354189,12080,-0.033424,0.466984,-0.325755,-0.040851,0.037723,0.983141
2011-09-26T13:14:26.364189,12090,-0.109995,0.434669,-0.329982,-0.041069,0.039218,0.982168
2011-09-26T13:14:26.374189,12100,-0.186565,0.402354,-0.334210,-0.041287,0.040713,0.981195
2011-09-26T13:14:26.384189,12110,-0.263136,0.370038,-0.338437,-0.041505,0.042207,0.980222
2011-09-26T13:14:26.394189,12120,-0.267073,0.353898,-0.346848,-0.041402,0.041194,0.981012
2011-09-26T13:14:26.404189,12130,-0.265936,0.338888,-0.355550,-0.041276,0.040005,0.981926
2011-09-26T13:14:26.414189,12140,-0.264799,0.323878,-0.364252,-0.041151,0.038816,0.982839
2011-09-26T13:14:26.424189,12150,-0.263663,0.308867,-0.372955,-0.041025,0.037627,0.983753
2011-09-26T13:14:26.434189,12160,-0.262526,0.293857,-0.381657,-0.040899,0.036438,0.984666
2011-09-26T13:14:26.444189,12170,-0.261390,0.278847,-0.390359,-0.040773,0.035249,0.985579
2011-09-26T13:14:26.454189,12180,-0.260253,0.263836,-0.399062,-0.040647,0.034060,0.986493
2011-09-26T13:14:26.464189,12190,-0.259116,0.248826,-0.407764,-0.040522,0.032871,0.987406
2011-09-26T13:14:26.474189,12200,-0.257980,0.233815,-0.416467,-0.040396,0.031682,0.988320
2011-09-26T13:14:26.484189,12210,-0.256843,0.218805,-0.425169,-0.040270,0.030493,0.989233
2011-09-26T13:14:26.494189,12220,-0.255707,0.203795,-0.433871,-0.040144,0.029304,0.990147
2011-09-26T13:14:26.504189,12230,-0.255701,0.198912,-0.431239,-0.040406,0.030319,0.991340
2011-09-26T13:14:26.514189,12240,-0.255754,0.194552,-0.428021,-0.040689,0.031450,0.992548
2011-09-26T13:14:26.524189,12250,-0.255807,0.190193,-0.424803,-0.040971,0.032580,0.993757
2011-09-26T13:14:26.534189,12260,-0.255860,0.185834,-0.421584,-0.041253,0.033710,0.994965
2011-09-26T13:14:26.544189,12270,-0.255914,0.181475,-0.418366,-0.041535,0.034840,0.996173
2011-09-26T13:14:26.554189,12280,-0.255967,0.177116,-0.415148,-0.041817,0.035970,0.997381
2011-09-26T13:14:26.564189,12290,-0.256020,0.172757,-0.411929,-0.042099,0.037100,0.998589
2011-09-26T13:14:26.574189,12300,-0.256073,0.168398,-0.408711,-0.042381,0.038230,0.999797
2011-09-26T13:14:26.584189,12310,-0.256126,0.164039,-0.405493,-0.042663,0.039360,1.001005
2011-09-26T13:14:26.594189,12320,-0.256179,0.159679,-0.402274,-0.042945,0.040490,1.002214
2011-09-26T13:14:26.604189,12330,-0.237558,0.126223,-0.402621,-0.042654,0.038693,1.002622
2011-09-26T13:14:26.614189,12340,-0.217927,0.091193,-0.403160,-0.042331,0.036738,1.002988
2011-09-26T13:14:26.624189,12350,-0.198297,0.056164,-0.403699,-0.042009,0.034783,1.003354
2011-09-26T13:14:26.634189,12360,-0.178666,0.021134,-0.404239,-0.041687,0.032828,1.003719
2011-09-26T13:14:26.644189,12370,-0.159035,-0.013896,-0.404778,-0.041364,0.030873,1.004085
2011-09-26T13:14:26.654189,12380,-0.139404,-0.048925,-0.405317,-0.041042,0.028917,1.004451
2011-09-26T13:14:26.664189,12390,-0.119774,-0.083955,-0.405856,-0.040719,0.026962,1.004816
2011-09-26T13:14:26.674189,12400,-0.100143,-0.118984,-0.406396,-0.040397,0.025007,1.005182
2011-09-26T13:14:26.684189,12410,-0.080512,-0.154014,-0.406935,-0.040075,0.023052,1.005548
2011-09-26T13:14:26.694189,12420,-0.060882,-0.189044,-0.407474,-0.039752,0.021097,1.005913
2011-09-26T13:14:26.704189,12430,-0.020826,-0.190435,-0.411651,-0.039642,0.020777,1.005791
2011-09-26T13:14:26.714189,12440,0.020550,-0.189653,-0.416064,-0.039545,0.020563,1.005637
2011-09-26T13:14:26.724189,12450,0.061926,-0.188870,-0.420476,-0.039449,0.020348,1.005484
2011-09-26T13:14:26.734189,12460,0.103302,-0.188087,-0.424888,-0.039352,0.020134,1.005330
2011-09-26T13:14:26.744189,12470,0.144678,-0.187304,-0.429301,-0.039255,0.019920,1.005177
2011-09-26T13:14:26.754189,12480,0.186054,-0.186522,-0.433713,-0.039159,0.019706,1.005023
2011-09-26T13:14:26.764189,12490,0.227430,-0.185739,-0.438126,-0.039062,0.019491,1.004869
2011-09-26T13:14:26.774189,12500,0.268805,-0.184956,-0.442538,-0.038965,0.019277,1.004716
2011-09-26T13:14:26.784189,12510,0.310181,-0.184173,-0.446950,-0.038869,0.019063,1.004562
2011-09-26T13:14:26.794189,12520,0.351557,-0.183390,-0.451363,-0.038772,0.018849,1.004408
2011-09-26T13:14:26.804189,12530,0.392933,-0.182608,-0.455775,-0.038676,0.018634,1.004255
2011-09-26T13:14:26.814189,12540,0.375728,-0.155646,-0.455669,-0.039085,0.019093,1.004038
2011-09-26T13:14:26.824189,12550,0.355452,-0.127313,-0.455326,-0.039520,0.019587,1.003818
2011-09-26T13:14:26.834189,12560,0.335177,-0.098980,-0.454982,-0.039956,0.020081,1.003599
2011-09-26T13:14:26.844189,12570,0.314901,-0.070647,-0.454639,-0.040392,0.020575,1.003379
2011-09-26T13:14:26.854189,12580,0.294625,-0.042313,-0.454296,-0.040827,0.021069,1.003159
2011-09-26T13:14:26.864189,12590,0.274350,-0.013980,-0.453953,-0.041263,0.021563,1.002939
2011-09-26T13:14:26.874189,12600,0.254074,0.014353,-0.453610,-0.041699,0.022057,1.002719
2011-09-26T13:14:26.884189,12610,0.233798,0.042687,-0.453267,-0.042134,0.022551,1.002500
2011-09-26T13:14:26.894189,12620,0.213522,0.071020,-0.452923,-0.042570,0.023045,1.002280
2011-09-26T13:14:26.904189,12630,0.193247,0.099353,-0.452580,-0.043006,0.023539,1.002060
2011-09-26T13:14:26.914189,12640,0.219600,0.112619,-0.456311,-0.043200,0.023070,1.001180
2011-09-26T13:14:26.924189,12650,0.248454,0.125076,-0.460260,-0.043381,0.022549,1.000264
2011-09-26T13:14:26.934189,12660,0.277307,0.137533,-0.464209,-0.043562,0.022029,0.999348
2011-09-26T13:14:26.944189,12670,0.306161,0.149990,-0.468159,-0.043742,0.021508,0.998432
2011-09-26T13:14:26.954189,12680,0.335015,0.162448,-0.472108,-0.043923,0.020987,0.997516
2011-09-26T13:14:26.964189,12690,0.363869,0.174905,-0.476057,-0.044104,0.020466,0.996601
2011-09-26T13:14:26.974189,12700,0.392722,0.187362,-0.480006,-0.044285,0.019946,0.995685
2011-09-26T13:14:26.984189,12710,0.421576,0.199819,-0.483955,-0.044466,0.019425,0.994769
2011-09-26T13:14:26.994189,12720,0.450430,0.212276,-0.487905,-0.044647,0.018904,0.993853
2011-09-26T13:14:27.004189,12730,0.479284,0.224734,-0.491854,-0.044828,0.018383,0.992937
2011-09-26T13:14:27.014189,12740,0.508138,0.237191,-0.495803,-0.045009,0.017862,0.992022
2011-09-26T13:14:27.024189,12750,0.528724,0.243015,-0.492347,-0.045573,0.019225,0.992976
2011-09-26T13:14:27.034189,12760,0.548847,0.248466,-0.488475,-0.046159,0.020694,0.994035
2011-09-26T13:14:27.044189,12770,0.568969,0.253918,-0.484603,-0.046745,0.022162,0.995093
2011-09-26T13:14:27.054189,12780,0.589091,0.259369,-0.480731,-0.047331,0.023631,0.996152
2011-09-26T13:14:27.064189,12790,0.609214,0.264820,-0.476859,-0.047917,0.025099,0.997211
2011-09-26T13:14:27.074189,12800,0.629336,0.270272,-0.472987,-0.048503,0.026568,0.998270
2011-09-26T13:14:27.084189,12810,0.649458,0.275723,-0.469115,-0.049088,0.028036,0.999329
2011-09-26T13:14:27.094189,12820,0.669581,0.281174,-0.465243,-0.049674,0.029505,1.000388
2011-09-26T13:14:27.104189,12830,0.689703,0.286626,-0.461371,-0.050260,0.030973,1.001447
2011-09-26T13:14:27.114189,12840,0.709825,0.292077,-0.457499,-0.050846,0.032441,1.002506
2011-09-26T13:14:27.124189,12850,0.732916,0.245517,-0.443091,-0.050473,0.031480,1.001578
2011-09-26T13:14:27.134189,12860,0.756146,0.196511,-0.428188,-0.050055,0.030404,1.000556
2011-09-26T13:14:27.144189,12870,0.779376,0.147504,-0.413285,-0.049636,0.029328,0.999534
2011-09-26T13:14:27.154189,12880,0.802606,0.098498,-0.398383,-0.049218,0.028251,0.998512
2011-09-26T13:14:27.164189,12890,0.825836,0.049491,-0.383480,-0.048800,0.027175,0.997490
2011-09-26T13:14:27.174189,12900,0.849067,0.000485,-0.368577,-0.048381,0.026099,0.996468
2011-09-26T13:14:27.184189,12910,0.872297,-0.048522,-0.353674,-0.047963,0.025023,0.995446
2011-09-26T13:14:27.194189,12920,0.895527,-0.097528,-0.338771,-0.047544,0.023947,0.994424
2011-09-26T13:14:27.204189,12930,0.918757,-0.146534,-0.323868,-0.047126,0.022871,0.993402
2011-09-26T13:14:27.214189,12940,0.941987,-0.195541,-0.308965,-0.046708,0.021795,0.992380
2011-09-26T13:14:27.224189,12950,0.947111,-0.209547,-0.310648,-0.046930,0.022177,0.993888
2011-09-26T13:14:27.234189,12960,0.950836,-0.220850,-0.313612,-0.047202,0.022672,0.995591
2011-09-26T13:14:27.244189,12970,0.954560,-0.232153,-0.316575,-0.047474,0.023167,0.997295
2011-09-26T13:14:27.254189,12980,0.958285,-0.243455,-0.319539,-0.047746,0.023661,0.998998
2011-09-26T13:14:27.264189,12990,0.962010,-0.254758,-0.322503,-0.048018,0.024156,1.000702
2011-09-26T13:14:27.274189,13000,0.965735,-0.266061,-0.325466,-0.048290,0.024651,1.002405
2011-09-26T13:14:27.284189,13010,0.969460,-0.277364,-0.328430,-0.048562,0.025146,1.004108
2011-09-26T13:14:27.294189,13020,0.973185,-0.288667,-0.331394,-0.048834,0.025640,1.005812
2011-09-26T13:14:27.304189,13030,0.976909,-0.299969,-0.334357,-0.049106,0.026135,1.007515
2011-09-26T13:14:27.314189,13040,0.980634,-0.311272,-0.337321,-0.049378,0.026630,1.009219
2011-09-26T13:14:27.324189,13050,0.984359,-0.322575,-0.340285,-0.049650,0.027125,1.010922
2011-09-26T13:14:27.334189,13060,0.961602,-0.295913,-0.348911,-0.049595,0.027577,1.009900
2011-09-26T13:14:27.344189,13070,0.937434,-0.267228,-0.357839,-0.049522,0.028027,1.008732
2011-09-26T13:14:27.354189,13080,0.913265,-0.238543,-0.366767,-0.049449,0.028477,1.007564
2011-09-26T13:14:27.364189,13090,0.889096,-0.209858,-0.375695,-0.049376,0.028928,1.006396
2011-09-26T13:14:27.374189,13100,0.864928,-0.181173,-0.384623,-0.049303,0.029378,1.005228
2011-09-26T13:14:27.384189,13110,0.840759,-0.152487,-0.393552,-0.049230,0.029828,1.004060
2011-09-26T13:14:27.394189,13120,0.816590,-0.123802,-0.402480,-0.049157,0.030278,1.002892
2011-09-26T13:14:27.404189,13130,0.792421,-0.095117,-0.411408,-0.049084,0.030728,1.001725
2011-09-26T13:14:27.414189,13140,0.768253,-0.066432,-0.420336,-0.049011,0.031179,1.000557
2011-09-26T13:14:27.424189,13150,0.744084,-0.037747,-0.429264,-0.048938,0.031629,0.999389
2011-09-26T13:14:27.434189,13160,0.724245,-0.040581,-0.429030,-0.049327,0.032508,0.999961
2011-09-26T13:14:27.444189,13170,0.704637,-0.045104,-0.428305,-0.049740,0.033410,1.000627
2011-09-26T13:14:27.454189,13180,0.685030,-0.049626,-0.427581,-0.050154,0.034311,1.001292
2011-09-26T13:14:27.464189,13190,0.665422,-0.054148,-0.426856,-0.050567,0.035213,1.001958
2011-09-26T13:14:27.474189,13200,0.645815,-0.058670,-0.426132,-0.050980,0.036115,1.002623
2011-09-26T13:14:27.484189,13210,0.626208,-0.063192,-0.425407,-0.051394,0.037017,1.003289
2011-09-26T13:14:27.494189,13220,0.606600,-0.067714,-0.424683,-0.051807,0.037918,1.003954
2011-09-26T13:14:27.504189,13230,0.586993,-0.072236,-0.423959,-0.052220,0.038820,1.004620
2011-09-26T13:14:27.514189,13240,0.567385,-0.076758,-0.423234,-0.052634,0.039722,1.005285
2011-09-26T13:14:27.524189,13250,0.547778,-0.081280,-0.422510,-0.053047,0.040624,1.005951
2011-09-26T13:14:27.534189,13260,0.532246,-0.093149,-0.423385,-0.052897,0.040234,1.006198
2011-09-26T13:14:27.544189,13270,0.516932,-0.105410,-0.424346,-0.052717,0.039776,1.006423
2011-09-26T13:14:27.554189,13280,0.501618,-0.117671,-0.425307,-0.052537,0.039318,1.006648
2011-09-26T13:14:27.564189,13290,0.486303,-0.129931,-0.426269,-0.052357,0.038860,1.006873
2011-09-26T13:14:27.574189,13300,0.470989,-0.142192,-0.427230,-0.052177,0.038402,1.007098
2011-09-26T13:14:27.584189,13310,0.455675,-0.154453,-0.428191,-0.051997,0.037944,1.007323
2011-09-26T13:14:27.594189,13320,0.440361,-0.166713,-0.429152,-0.051817,0.037486,1.007548
2011-09-26T13:14:27.604189,13330,0.425046,-0.178974,-0.430113,-0.051637,0.037027,1.007773
2011-09-26T13:14:27.614189,13340,0.409732,-0.191235,-0.431074,-0.051457,0.036569,1.007999
2011-09-26T13:14:27.624189,13350,0.394418,-0.203496,-0.432035,-0.051277,0.036111,1.008224
2011-09-26T13:14:27.634189,13360,0.379103,-0.215756,-0.432996,-0.051097,0.035653,1.008449
2011-09-26T13:14:27.644189,13370,0.380933,-0.223608,-0.431013,-0.051448,0.035909,1.007540
2011-09-26T13:14:27.654189,13380,0.383715,-0.231215,-0.428867,-0.051829,0.036204,1.006568
2011-09-26T13:14:27.664189,13390,0.386497,-0.238822,-0.426721,-0.052210,0.036500,1.005597
2011-09-26T13:14:27.674189,13400,0.389278,-0.246428,-0.424575,-0.052591,0.036795,1.004625
2011-09-26T13:14:27.684189,13410,0.392060,-0.254035,-0.422429,-0.052972,0.037091,1.003654
2011-09-26T13:14:27.694189,13420,0.394842,-0.261642,-0.420282,-0.053352,0.037386,1.002682
2011-09-26T13:14:27.704189,13430,0.397624,-0.269248,-0.418136,-0.053733,0.037682,1.001710
2011-09-26T13:14:27.714189,13440,0.400405,-0.276855,-0.415990,-0.054114,0.037977,1.000739
2011-09-26T13:14:27.724189,13450,0.403187,-0.284462,-0.413844,-0.054495,0.038273,0.999767
2011-09-26T13:14:27.734189,13460,0.405969,-0.292069,-0.411698,-0.054876,0.038568,0.998795
2011-09-26T13:14:27.744189,13470,0.394287,-0.290259,-0.410085,-0.054284,0.038544,0.999493
2011-09-26T13:14:27.754189,13480,0.381627,-0.287811,-0.408508,-0.053625,0.038498,1.000304
2011-09-26T13:14:27.764189,13490,0.368967,-0.285364,-0.406932,-0.052967,0.038452,1.001114
2011-09-26T13:14:27.774189,13500,0.356307,-0.282916,-0.405355,-0.052309,0.038406,1.001925
2011-09-26T13:14:27.784189,13510,0.343646,-0.280469,-0.403779,-0.051651,0.038360,1.002735
2011-09-26T13:14:27.794189,13520,0.330986,-0.278021,-0.402202,-0.050993,0.038314,1.003546
2011-09-26T13:14:27.804189,13530,0.318326,-0.275574,-0.400625,-0.050335,0.038268,1.004356
2011-09-26T13:14:27.814189,13540,0.305665,-0.273126,-0.399049,-0.049677,0.038222,1.005167
2011-09-26T13:14:27.824189,13550,0.293005,-0.270678,-0.397472,-0.049018,0.038176,1.005978
2011-09-26T13:14:27.834189,13560,0.280345,-0.268231,-0.395896,-0.048360,0.038130,1.006788
2011-09-26T13:14:27.844189,13570,0.204519,-0.257822,-0.400885,-0.048254,0.039237,1.006480
2011-09-26T13:14:27.854189,13580,0.125194,-0.246972,-0.406238,-0.048178,0.040408,1.006109
2011-09-26T13:14:27.864189,13590,0.045869,-0.236121,-0.411591,-0.048103,0.041579,1.005739
2011-09-26T13:14:27.874189,13600,-0.033456,-0.225271,-0.416944,-0.048027,0.042751,1.005368
2011-09-26T13:14:27.884189,13610,-0.112781,-0.214421,-0.422298,-0.047951,0.043922,1.004998
