pc_time,ts_ms,gyroX,gyroY,gyroZ,accelX,accelY,accelZ
2011-09-26T13:15:56.008430,0,0.069872,-0.036918,-0.062440,0.007088,0.051091,0.999684
2011-09-26T13:15:56.018430,10,0.060873,-0.036447,-0.056308,0.007325,0.051209,0.999705
2011-09-26T13:15:56.028430,20,0.051874,-0.035976,-0.050176,0.007562,0.051327,0.999725
2011-09-26T13:15:56.038430,30,0.042875,-0.035505,-0.044044,0.007799,0.051446,0.999746
2011-09-26T13:15:56.048430,40,0.033876,-0.035035,-0.037911,0.008036,0.051564,0.999767
2011-09-26T13:15:56.058430,50,0.024877,-0.034564,-0.031779,0.008273,0.051682,0.999787
2011-09-26T13:15:56.068430,60,0.015878,-0.034093,-0.025647,0.008510,0.051800,0.999808
2011-09-26T13:15:56.078430,70,0.006879,-0.033622,-0.019515,0.008747,0.051919,0.999829
2011-09-26T13:15:56.088430,80,-0.002120,-0.033152,-0.013383,0.008984,0.052037,0.999849
2011-09-26T13:15:56.098430,90,-0.011119,-0.032681,-0.007251,0.009221,0.052155,0.999870
2011-09-26T13:15:56.108430,100,-0.020118,-0.032210,-0.001119,0.009458,0.052273,0.999890
2011-09-26T13:15:56.118430,110,-0.024651,-0.026817,-0.004247,0.009828,0.052435,0.999680
2011-09-26T13:15:56.128430,120,-0.029183,-0.021422,-0.007377,0.010198,0.052596,0.999469
2011-09-26T13:15:56.138430,130,-0.033715,-0.016028,-0.010508,0.010569,0.052758,0.999259
2011-09-26T13:15:56.148430,140,-0.038246,-0.010633,-0.013638,0.010939,0.052919,0.999048
2011-09-26T13:15:56.158430,150,-0.042778,-0.005238,-0.016768,0.011309,0.053080,0.998838
2011-09-26T13:15:56.168430,160,-0.047310,0.000156,-0.019899,0.011680,0.053242,0.998627
2011-09-26T13:15:56.178430,170,-0.051842,0.005551,-0.023029,0.012050,0.053403,0.998417
2011-09-26T13:15:56.188430,180,-0.056374,0.010946,-0.026160,0.012420,0.053564,0.998206
2011-09-26T13:15:56.198430,190,-0.060905,0.016341,-0.029290,0.012791,0.053726,0.997995
2011-09-26T13:15:56.208430,200,-0.065437,0.021735,-0.032421,0.013161,0.053887,0.997785
2011-09-26T13:15:56.218430,210,-0.069969,0.027130,-0.035551,0.013531,0.054048,0.997574
2011-09-26T13:15:56.228430,220,-0.069594,0.017787,-0.042704,0.014546,0.053643,0.997788
2011-09-26T13:15:56.238430,230,-0.069146,0.008225,-0.049917,0.015570,0.053229,0.998008
2011-09-26T13:15:56.248430,240,-0.068698,-0.001338,-0.057131,0.016594,0.052815,0.998228
2011-09-26T13:15:56.258430,250,-0.068251,-0.010901,-0.064344,0.017618,0.052401,0.998448
2011-09-26T13:15:56.268430,260,-0.067803,-0.020463,-0.071557,0.018642,0.051987,0.998668
2011-09-26T13:15:56.278430,270,-0.067355,-0.030026,-0.078770,0.019666,0.051573,0.998888
2011-09-26T13:15:56.288430,280,-0.066907,-0.039588,-0.085983,0.020690,0.051158,0.999108
2011-09-26T13:15:56.298430,290,-0.066459,-0.049151,-0.093196,0.021715,0.050744,0.999328
2011-09-26T13:15:56.308430,300,-0.066011,-0.058713,-0.100409,0.022739,0.050330,0.999548
2011-09-26T13:15:56.318430,310,-0.065563,-0.068276,-0.107623,0.023763,0.049916,0.999768
2011-09-26T13:15:56.328430,320,-0.061974,-0.068543,-0.103039,0.024152,0.050031,0.999954
2011-09-26T13:15:56.338430,330,-0.058382,-0.068802,-0.098445,0.024540,0.050145,1.000141
2011-09-26T13:15:56.348430,340,-0.054790,-0.069060,-0.093850,0.024928,0.050260,1.000327
2011-09-26T13:15:56.358430,350,-0.051198,-0.069319,-0.089256,0.025317,0.050375,1.000513
2011-09-26T13:15:56.368430,360,-0.047606,-0.069578,-0.084661,0.025705,0.050490,1.000700
2011-09-26T13:15:56.378430,370,-0.044014,-0.069836,-0.080067,0.026093,0.050605,1.000886
2011-09-26T13:15:56.388430,380,-0.040422,-0.070095,-0.075473,0.026482,0.050720,1.001072
2011-09-26T13:15:56.398430,390,-0.036830,-0.070354,-0.070878,0.026870,0.050834,1.001259
2011-09-26T13:15:56.408430,400,-0.033238,-0.070612,-0.066284,0.027258,0.050949,1.001445
2011-09-26T13:15:56.418430,410,-0.029646,-0.070871,-0.061690,0.027647,0.051064,1.001632
2011-09-26T13:15:56.428430,420,-0.032445,-0.058381,-0.064301,0.027427,0.051027,1.001633
2011-09-26T13:15:56.438430,430,-0.035269,-0.045839,-0.066941,0.027206,0.050990,1.001633
2011-09-26T13:15:56.448430,440,-0.038093,-0.033298,-0.069582,0.026984,0.050953,1.001634
2011-09-26T13:15:56.458430,450,-0.040917,-0.020757,-0.072222,0.026762,0.050915,1.001634
2011-09-26T13:15:56.468430,460,-0.043742,-0.008216,-0.074862,0.026540,0.050878,1.001635
2011-09-26T13:15:56.478430,470,-0.046566,0.004326,-0.077503,0.026318,0.050841,1.001635
2011-09-26T13:15:56.488430,480,-0.049390,0.016867,-0.080143,0.026097,0.050803,1.001636
2011-09-26T13:15:56.498430,490,-0.052214,0.029408,-0.082783,0.025875,0.050766,1.001636
2011-09-26T13:15:56.508430,500,-0.055038,0.041949,-0.085424,0.025653,0.050729,1.001637
2011-09-26T13:15:56.518430,510,-0.057863,0.054491,-0.088064,0.025431,0.050691,1.001637
2011-09-26T13:15:56.528430,520,-0.060687,0.067032,-0.090705,0.025210,0.050654,1.001638
2011-09-26T13:15:56.538430,530,-0.054883,0.071460,-0.086312,0.025061,0.050813,1.001414
2011-09-26T13:15:56.548430,540,-0.049027,0.075839,-0.081877,0.024914,0.050974,1.001188
2011-09-26T13:15:56.558430,550,-0.043171,0.080219,-0.077442,0.024766,0.051135,1.000963
2011-09-26T13:15:56.568430,560,-0.037315,0.084598,-0.073006,0.024619,0.051296,1.000737
2011-09-26T13:15:56.578430,570,-0.031459,0.088977,-0.068571,0.024471,0.051456,1.000512
2011-09-26T13:15:56.588430,580,-0.025603,0.093356,-0.064136,0.024323,0.051617,1.000286
2011-09-26T13:15:56.598430,590,-0.019747,0.097735,-0.059701,0.024176,0.051778,1.000061
2011-09-26T13:15:56.608430,600,-0.013891,0.102115,-0.055266,0.024028,0.051938,0.999835
2011-09-26T13:15:56.618430,610,-0.008035,0.106494,-0.050831,0.023881,0.052099,0.999610
2011-09-26T13:15:56.628430,620,-0.002179,0.110873,-0.046396,0.023733,0.052260,0.999384
2011-09-26T13:15:56.638430,630,-0.002321,0.109293,-0.053900,0.023523,0.052132,0.999383
2011-09-26T13:15:56.648430,640,-0.002477,0.107698,-0.061433,0.023313,0.052004,0.999382
2011-09-26T13:15:56.658430,650,-0.002634,0.106104,-0.068966,0.023103,0.051876,0.999382
2011-09-26T13:15:56.668430,660,-0.002790,0.104509,-0.076500,0.022893,0.051748,0.999381
2011-09-26T13:15:56.678430,670,-0.002947,0.102915,-0.084033,0.022683,0.051620,0.999380
2011-09-26T13:15:56.688430,680,-0.003103,0.101320,-0.091566,0.022474,0.051491,0.999379
2011-09-26T13:15:56.698430,690,-0.003259,0.099726,-0.099099,0.022264,0.051363,0.999378
2011-09-26T13:15:56.708430,700,-0.003416,0.098131,-0.106633,0.022054,0.051235,0.999378
2011-09-26T13:15:56.718430,710,-0.003572,0.096537,-0.114166,0.021844,0.051107,0.999377
2011-09-26T13:15:56.728430,720,-0.003729,0.094942,-0.121699,0.021634,0.050978,0.999376
2011-09-26T13:15:56.738430,730,-0.002786,0.097859,-0.118238,0.021613,0.051011,0.999314
2011-09-26T13:15:56.748430,740,-0.001819,0.100881,-0.114522,0.021596,0.051046,0.999250
2011-09-26T13:15:56.758430,750,-0.000851,0.103902,-0.110807,0.021580,0.051082,0.999187
2011-09-26T13:15:56.768430,760,0.000117,0.106923,-0.107092,0.021563,0.051118,0.999123
2011-09-26T13:15:56.778430,770,0.001085,0.109945,-0.103376,0.021547,0.051154,0.999060
2011-09-26T13:15:56.788430,780,0.002053,0.112966,-0.099661,0.021531,0.051190,0.998996
2011-09-26T13:15:56.798430,790,0.003020,0.115987,-0.095945,0.021514,0.051226,0.998933
2011-09-26T13:15:56.808430,800,0.003988,0.119009,-0.092230,0.021498,0.051262,0.998869
2011-09-26T13:15:56.818430,810,0.004956,0.122030,-0.088515,0.021481,0.051298,0.998806
2011-09-26T13:15:56.828430,820,0.005924,0.125051,-0.084799,0.021465,0.051333,0.998742
2011-09-26T13:15:56.838430,830,0.006892,0.128073,-0.081084,0.021448,0.051369,0.998679
2011-09-26T13:15:56.848430,840,0.016808,0.128482,-0.073713,0.021635,0.051157,0.998443
2011-09-26T13:15:56.858430,850,0.026779,0.128875,-0.066320,0.021822,0.050943,0.998207
2011-09-26T13:15:56.868430,860,0.036749,0.129268,-0.058927,0.022010,0.050729,0.997971
2011-09-26T13:15:56.878430,870,0.046720,0.129661,-0.051534,0.022198,0.050515,0.997734
2011-09-26T13:15:56.888430,880,0.056690,0.130055,-0.044142,0.022386,0.050301,0.997498
2011-09-26T13:15:56.898430,890,0.066661,0.130448,-0.036749,0.022573,0.050087,0.997262
2011-09-26T13:15:56.908430,900,0.076631,0.130841,-0.029356,0.022761,0.049873,0.997025
2011-09-26T13:15:56.918430,910,0.086602,0.131234,-0.021963,0.022949,0.049659,0.996789
2011-09-26T13:15:56.928430,920,0.096572,0.131628,-0.014570,0.023136,0.049445,0.996553
2011-09-26T13:15:56.938430,930,0.106543,0.132021,-0.007177,0.023324,0.049231,0.996316
2011-09-26T13:15:56.948430,940,0.109501,0.119259,0.004864,0.024085,0.049625,0.996328
2011-09-26T13:15:56.958430,950,0.112378,0.106345,0.016959,0.024852,0.050026,0.996342
2011-09-26T13:15:56.968430,960,0.115254,0.093430,0.029054,0.025619,0.050427,0.996356
2011-09-26T13:15:56.978430,970,0.118131,0.080516,0.041150,0.026386,0.050828,0.996371
2011-09-26T13:15:56.988430,980,0.121008,0.067601,0.053245,0.027154,0.051229,0.996385
2011-09-26T13:15:56.998430,990,0.123884,0.054686,0.065340,0.027921,0.051631,0.996399
2011-09-26T13:15:57.008430,1000,0.126761,0.041772,0.077436,0.028688,0.052032,0.996414
2011-09-26T13:15:57.018430,1010,0.129638,0.028857,0.089531,0.029455,0.052433,0.996428
2011-09-26T13:15:57.028430,1020,0.132514,0.015943,0.101626,0.030222,0.052834,0.996442
2011-09-26T13:15:57.038430,1030,0.135391,0.003028,0.113722,0.030990,0.053235,0.996457
2011-09-26T13:15:57.048430,1040,0.138268,-0.009887,0.125817,0.031757,0.053637,0.996471
2011-09-26T13:15:57.058430,1050,0.131459,-0.033354,0.147976,0.033733,0.053524,0.996095
2011-09-26T13:15:57.068430,1060,0.124605,-0.056871,0.170181,0.035715,0.053410,0.995716
2011-09-26T13:15:57.078430,1070,0.117752,-0.080387,0.192387,0.037697,0.053295,0.995338
2011-09-26T13:15:57.088430,1080,0.110898,-0.103904,0.214592,0.039680,0.053180,0.994959
2011-09-26T13:15:57.098430,1090,0.104044,-0.127421,0.236798,0.041662,0.053066,0.994581
2011-09-26T13:15:57.108430,1100,0.097190,-0.150937,0.259003,0.043644,0.052951,0.994203
2011-09-26T13:15:57.118430,1110,0.090337,-0.174454,0.281209,0.045626,0.052836,0.993824
2011-09-26T13:15:57.128430,1120,0.083483,-0.197970,0.303414,0.047608,0.052722,0.993446
2011-09-26T13:15:57.138430,1130,0.076629,-0.221487,0.325620,0.049590,0.052607,0.993068
2011-09-26T13:15:57.148430,1140,0.069776,-0.245003,0.347825,0.051572,0.052492,0.992689
2011-09-26T13:15:57.158430,1150,0.054759,-0.267999,0.380684,0.053255,0.052398,0.992913
2011-09-26T13:15:57.168430,1160,0.039708,-0.290993,0.413588,0.054936,0.052305,0.993139
2011-09-26T13:15:57.178430,1170,0.024657,-0.313986,0.446492,0.056618,0.052211,0.993365
2011-09-26T13:15:57.188430,1180,0.009606,-0.336980,0.479396,0.058299,0.052117,0.993591
2011-09-26T13:15:57.198430,1190,-0.005446,-0.359974,0.512301,0.059981,0.052023,0.993816
2011-09-26T13:15:57.208430,1200,-0.020497,-0.382967,0.545205,0.061662,0.051929,0.994042
2011-09-26T13:15:57.218430,1210,-0.035548,-0.405961,0.578109,0.063344,0.051836,0.994268
2011-09-26T13:15:57.228430,1220,-0.050599,-0.428954,0.611013,0.065025,0.051742,0.994494
2011-09-26T13:15:57.238430,1230,-0.065650,-0.451948,0.643917,0.066707,0.051648,0.994720
2011-09-26T13:15:57.248430,1240,-0.080701,-0.474942,0.676821,0.068388,0.051554,0.994946
2011-09-26T13:15:57.258430,1250,-0.068576,-0.473145,0.745191,0.069101,0.051513,0.995669
2011-09-26T13:15:57.268430,1260,-0.056109,-0.471037,0.814007,0.069802,0.051472,0.996398
2011-09-26T13:15:57.278430,1270,-0.043642,-0.468930,0.882822,0.070503,0.051431,0.997128
2011-09-26T13:15:57.288430,1280,-0.031176,-0.466822,0.951638,0.071204,0.051390,0.997857
2011-09-26T13:15:57.298430,1290,-0.018709,-0.464714,1.020453,0.071904,0.051350,0.998586
2011-09-26T13:15:57.308430,1300,-0.006242,-0.462606,1.089269,0.072605,0.051309,0.999315
2011-09-26T13:15:57.318430,1310,0.006225,-0.460498,1.158084,0.073306,0.051268,1.000045
2011-09-26T13:15:57.328430,1320,0.018692,-0.458390,1.226899,0.074007,0.051227,1.000774
2011-09-26T13:15:57.338430,1330,0.031159,-0.456283,1.295715,0.074708,0.051187,1.001503
2011-09-26T13:15:57.348430,1340,0.043625,-0.454175,1.364530,0.075408,0.051146,1.002233
2011-09-26T13:15:57.358430,1350,0.056092,-0.452067,1.433346,0.076109,0.051105,1.002962
2011-09-26T13:15:57.368430,1360,0.059055,-0.436081,1.515970,0.076576,0.051368,1.003168
2011-09-26T13:15:57.378430,1370,0.062002,-0.420069,1.598619,0.077041,0.051631,1.003374
2011-09-26T13:15:57.388430,1380,0.064948,-0.404058,1.681267,0.077507,0.051895,1.003579
2011-09-26T13:15:57.398430,1390,0.067894,-0.388046,1.763916,0.077973,0.052158,1.003785
2011-09-26T13:15:57.408430,1400,0.070840,-0.372035,1.846565,0.078439,0.052421,1.003990
2011-09-26T13:15:57.418430,1410,0.073786,-0.356023,1.929214,0.078905,0.052685,1.004196
2011-09-26T13:15:57.428430,1420,0.076732,-0.340012,2.011863,0.079371,0.052948,1.004401
2011-09-26T13:15:57.438430,1430,0.079678,-0.324000,2.094512,0.079837,0.053212,1.004607
2011-09-26T13:15:57.448430,1440,0.082624,-0.307989,2.177160,0.080303,0.053475,1.004812
2011-09-26T13:15:57.458430,1450,0.085571,-0.291977,2.259809,0.080769,0.053738,1.005018
2011-09-26T13:15:57.468430,1460,0.083182,-0.274339,2.363287,0.081401,0.053932,1.005001
2011-09-26T13:15:57.478430,1470,0.080756,-0.256689,2.466909,0.082035,0.054124,1.004982
2011-09-26T13:15:57.488430,1480,0.078330,-0.239039,2.570532,0.082669,0.054317,1.004963
2011-09-26T13:15:57.498430,1490,0.075904,-0.221390,2.674154,0.083303,0.054509,1.004945
2011-09-26T13:15:57.508430,1500,0.073478,-0.203740,2.777777,0.083937,0.054702,1.004926
2011-09-26T13:15:57.518430,1510,0.071052,-0.186090,2.881399,0.084571,0.054895,1.004907
2011-09-26T13:15:57.528430,1520,0.068626,-0.168441,2.985022,0.085205,0.055087,1.004889
2011-09-26T13:15:57.538430,1530,0.066200,-0.150791,3.088644,0.085839,0.055280,1.004870
2011-09-26T13:15:57.548430,1540,0.063774,-0.133141,3.192266,0.086473,0.055472,1.004851
2011-09-26T13:15:57.558430,1550,0.061348,-0.115491,3.295889,0.087107,0.055665,1.004833
2011-09-26T13:15:57.568430,1560,0.067272,-0.103865,3.411417,0.087196,0.055809,1.004938
2011-09-26T13:15:57.578430,1570,0.073276,-0.092296,3.527058,0.087280,0.055952,1.005044
2011-09-26T13:15:57.588430,1580,0.079280,-0.080726,3.642699,0.087364,0.056095,1.005150
2011-09-26T13:15:57.598430,1590,0.085284,-0.069157,3.758340,0.087448,0.056238,1.005256
2011-09-26T13:15:57.608430,1600,0.091288,-0.057588,3.873981,0.087532,0.056381,1.005363
2011-09-26T13:15:57.618430,1610,0.097291,-0.046019,3.989622,0.087616,0.056525,1.005469
2011-09-26T13:15:57.628430,1620,0.103295,-0.034449,4.105263,0.087700,0.056668,1.005575
2011-09-26T13:15:57.638430,1630,0.109299,-0.022880,4.220904,0.087784,0.056811,1.005681
2011-09-26T13:15:57.648430,1640,0.115303,-0.011311,4.336545,0.087868,0.056954,1.005787
2011-09-26T13:15:57.658430,1650,0.121306,0.000258,4.452186,0.087952,0.057097,1.005894
2011-09-26T13:15:57.668430,1660,0.127310,0.011828,4.567827,0.088036,0.057241,1.006000
2011-09-26T13:15:57.678430,1670,0.137968,0.023764,4.712294,0.088033,0.057574,1.005278
2011-09-26T13:15:57.688430,1680,0.148661,0.035703,4.856976,0.088029,0.057908,1.004550
2011-09-26T13:15:57.698430,1690,0.159353,0.047643,5.001658,0.088025,0.058243,1.003822
2011-09-26T13:15:57.708430,1700,0.170046,0.059582,5.146340,0.088021,0.058578,1.003095
2011-09-26T13:15:57.718430,1710,0.180739,0.071521,5.291022,0.088017,0.058912,1.002367
2011-09-26T13:15:57.728430,1720,0.191431,0.083460,5.435704,0.088014,0.059247,1.001639
2011-09-26T13:15:57.738430,1730,0.202124,0.095400,5.580385,0.088010,0.059581,1.000911
2011-09-26T13:15:57.748430,1740,0.212817,0.107339,5.725067,0.088006,0.059916,1.000183
2011-09-26T13:15:57.758430,1750,0.223509,0.119278,5.869749,0.088002,0.060251,0.999455
2011-09-26T13:15:57.768430,1760,0.234202,0.131217,6.014431,0.087998,0.060585,0.998727
2011-09-26T13:15:57.778430,1770,0.239589,0.129265,6.185882,0.088528,0.061371,0.998730
2011-09-26T13:15:57.788430,1780,0.244876,0.127050,6.357838,0.089067,0.062165,0.998746
2011-09-26T13:15:57.798430,1790,0.250163,0.124836,6.529794,0.089607,0.062958,0.998762
2011-09-26T13:15:57.808430,1800,0.255450,0.122621,6.701750,0.090147,0.063752,0.998778
2011-09-26T13:15:57.818430,1810,0.260737,0.120406,6.873706,0.090687,0.064546,0.998795
2011-09-26T13:15:57.828430,1820,0.266024,0.118192,7.045662,0.091226,0.065340,0.998811
2011-09-26T13:15:57.838430,1830,0.271311,0.115977,7.217618,0.091766,0.066134,0.998827
2011-09-26T13:15:57.848430,1840,0.276598,0.113763,7.389574,0.092306,0.066928,0.998843
2011-09-26T13:15:57.858430,1850,0.281885,0.111548,7.561530,0.092845,0.067721,0.998859
2011-09-26T13:15:57.868430,1860,0.287172,0.109333,7.733486,0.093385,0.068515,0.998875
2011-09-26T13:15:57.878430,1870,0.272076,0.120227,7.914444,0.094076,0.069523,0.998773
2011-09-26T13:15:57.888430,1880,0.256848,0.131206,8.095461,0.094768,0.070532,0.998670
2011-09-26T13:15:57.898430,1890,0.241619,0.142186,8.276479,0.095460,0.071541,0.998567
2011-09-26T13:15:57.908430,1900,0.226390,0.153165,8.457496,0.096152,0.072550,0.998465
2011-09-26T13:15:57.918430,1910,0.211161,0.164144,8.638513,0.096844,0.073559,0.998362
2011-09-26T13:15:57.928430,1920,0.195932,0.175124,8.819531,0.097536,0.074568,0.998259
2011-09-26T13:15:57.938430,1930,0.180704,0.186103,9.000548,0.098228,0.075577,0.998156
2011-09-26T13:15:57.948430,1940,0.165475,0.197082,9.181565,0.098920,0.076586,0.998053
2011-09-26T13:15:57.958430,1950,0.150246,0.208061,9.362583,0.099612,0.077594,0.997950
2011-09-26T13:15:57.968430,1960,0.135017,0.219041,9.543600,0.100304,0.078603,0.997847
2011-09-26T13:15:57.978430,1970,0.119788,0.230020,9.724617,0.100996,0.079612,0.997744
2011-09-26T13:15:57.988430,1980,0.097010,0.238498,9.901360,0.100942,0.080156,0.997625
2011-09-26T13:15:57.998430,1990,0.074159,0.246952,10.078061,0.100881,0.080696,0.997506
2011-09-26T13:15:58.008430,2000,0.051308,0.255406,10.254763,0.100820,0.081236,0.997388
2011-09-26T13:15:58.018430,2010,0.028457,0.263861,10.431464,0.100759,0.081775,0.997269
2011-09-26T13:15:58.028430,2020,0.005606,0.272315,10.608166,0.100698,0.082315,0.997150
2011-09-26T13:15:58.038430,2030,-0.017245,0.280769,10.784867,0.100636,0.082854,0.997031
2011-09-26T13:15:58.048430,2040,-0.040096,0.289223,10.961569,0.100575,0.083394,0.996912
2011-09-26T13:15:58.058430,2050,-0.062947,0.297677,11.138270,0.100514,0.083934,0.996793
2011-09-26T13:15:58.068430,2060,-0.085798,0.306131,11.314972,0.100453,0.084473,0.996674
2011-09-26T13:15:58.078430,2070,-0.108649,0.314586,11.491673,0.100392,0.085013,0.996555
2011-09-26T13:15:58.088430,2080,-0.130540,0.306535,11.674788,0.100815,0.085153,0.995798
2011-09-26T13:15:58.098430,2090,-0.152422,0.298340,11.857958,0.101242,0.085289,0.995035
2011-09-26T13:15:58.108430,2100,-0.174305,0.290146,12.041128,0.101670,0.085425,0.994272
2011-09-26T13:15:58.118430,2110,-0.196187,0.281952,12.224299,0.102097,0.085562,0.993509
2011-09-26T13:15:58.128430,2120,-0.218070,0.273757,12.407469,0.102524,0.085698,0.992746
2011-09-26T13:15:58.138430,2130,-0.239952,0.265563,12.590639,0.102951,0.085834,0.991983
2011-09-26T13:15:58.148430,2140,-0.261834,0.257369,12.773809,0.103378,0.085971,0.991220
2011-09-26T13:15:58.158430,2150,-0.283717,0.249174,12.956980,0.103806,0.086107,0.990457
2011-09-26T13:15:58.168430,2160,-0.305599,0.240980,13.140150,0.104233,0.086244,0.989694
2011-09-26T13:15:58.178430,2170,-0.327482,0.232786,13.323320,0.104660,0.086380,0.988931
2011-09-26T13:15:58.188430,2180,-0.298601,0.214691,13.491819,0.105187,0.087066,0.988951
2011-09-26T13:15:58.198430,2190,-0.269079,0.196472,13.660131,0.105715,0.087759,0.988982
2011-09-26T13:15:58.208430,2200,-0.239556,0.178252,13.828444,0.106244,0.088451,0.989013
2011-09-26T13:15:58.218430,2210,-0.210033,0.160033,13.996757,0.106772,0.089144,0.989043
2011-09-26T13:15:58.228430,2220,-0.180510,0.141813,14.165070,0.107300,0.089837,0.989074
2011-09-26T13:15:58.238430,2230,-0.150988,0.123594,14.333382,0.107828,0.090530,0.989104
2011-09-26T13:15:58.248430,2240,-0.121465,0.105374,14.501695,0.108356,0.091223,0.989135
2011-09-26T13:15:58.258430,2250,-0.091942,0.087155,14.670008,0.108885,0.091915,0.989166
2011-09-26T13:15:58.268430,2260,-0.062419,0.068935,14.838321,0.109413,0.092608,0.989196
2011-09-26T13:15:58.278430,2270,-0.032896,0.050716,15.006633,0.109941,0.093301,0.989227
2011-09-26T13:15:58.288430,2280,-0.003374,0.032496,15.174946,0.110469,0.093994,0.989258
2011-09-26T13:15:58.298430,2290,0.012524,0.024801,15.310177,0.110898,0.095323,0.990114
2011-09-26T13:15:58.308430,2300,0.028213,0.017267,15.444901,0.111326,0.096662,0.990983
2011-09-26T13:15:58.318430,2310,0.043901,0.009733,15.579624,0.111753,0.098002,0.991852
2011-09-26T13:15:58.328430,2320,0.059590,0.002199,15.714348,0.112181,0.099341,0.992721
2011-09-26T13:15:58.338430,2330,0.075279,-0.005335,15.849072,0.112608,0.100680,0.993591
2011-09-26T13:15:58.348430,2340,0.090968,-0.012869,15.983796,0.113035,0.102019,0.994460
2011-09-26T13:15:58.358430,2350,0.106656,-0.020403,16.118520,0.113463,0.103358,0.995329
2011-09-26T13:15:58.368430,2360,0.122345,-0.027937,16.253244,0.113890,0.104698,0.996198
2011-09-26T13:15:58.378430,2370,0.138034,-0.035471,16.387968,0.114318,0.106037,0.997067
2011-09-26T13:15:58.388430,2380,0.153723,-0.043005,16.522691,0.114745,0.107376,0.997936
2011-09-26T13:15:58.398430,2390,0.176529,-0.042039,16.664843,0.115048,0.107586,0.998251
2011-09-26T13:15:58.408430,2400,0.199406,-0.040988,16.807069,0.115350,0.107784,0.998560
2011-09-26T13:15:58.418430,2410,0.222283,-0.039937,16.949294,0.115651,0.107982,0.998869
2011-09-26T13:15:58.428430,2420,0.245160,-0.038886,17.091520,0.115953,0.108180,0.999178
2011-09-26T13:15:58.438430,2430,0.268037,-0.037835,17.233745,0.116255,0.108378,0.999487
2011-09-26T13:15:58.448430,2440,0.290914,-0.036785,17.375970,0.116556,0.108576,0.999795
2011-09-26T13:15:58.458430,2450,0.313791,-0.035734,17.518196,0.116858,0.108775,1.000104
2011-09-26T13:15:58.468430,2460,0.336668,-0.034683,17.660421,0.117160,0.108973,1.000413
2011-09-26T13:15:58.478430,2470,0.359545,-0.033632,17.802647,0.117461,0.109171,1.000722
2011-09-26T13:15:58.488430,2480,0.382422,-0.032582,17.944872,0.117763,0.109369,1.001031
2011-09-26T13:15:58.498430,2490,0.363020,-0.024822,18.090279,0.117689,0.111325,1.000969
2011-09-26T13:15:58.508430,2500,0.343079,-0.016976,18.235726,0.117610,0.113302,1.000902
2011-09-26T13:15:58.518430,2510,0.323138,-0.009131,18.381173,0.117531,0.115280,1.000835
2011-09-26T13:15:58.528430,2520,0.303197,-0.001285,18.526620,0.117452,0.117258,1.000769
2011-09-26T13:15:58.538430,2530,0.283256,0.006560,18.672067,0.117373,0.119236,1.000702
2011-09-26T13:15:58.548430,2540,0.263315,0.014406,18.817514,0.117295,0.121214,1.000635
2011-09-26T13:15:58.558430,2550,0.243375,0.022251,18.962961,0.117216,0.123192,1.000568
2011-09-26T13:15:58.568430,2560,0.223434,0.030097,19.108408,0.117137,0.125170,1.000501
2011-09-26T13:15:58.578430,2570,0.203493,0.037943,19.253855,0.117058,0.127148,1.000435
2011-09-26T13:15:58.588430,2580,0.183552,0.045788,19.399302,0.116979,0.129126,1.000368
2011-09-26T13:15:58.598430,2590,0.163611,0.053634,19.544749,0.116900,0.131103,1.000301
2011-09-26T13:15:58.608430,2600,0.146749,0.062926,19.680629,0.116943,0.132607,1.000406
2011-09-26T13:15:58.618430,2610,0.129928,0.072238,19.816383,0.116988,0.134103,1.000514
2011-09-26T13:15:58.628430,2620,0.113107,0.081550,19.952136,0.117033,0.135600,1.000621
2011-09-26T13:15:58.638430,2630,0.096286,0.090861,20.087890,0.117078,0.137097,1.000729
2011-09-26T13:15:58.648430,2640,0.079465,0.100173,20.223643,0.117123,0.138594,1.000836
2011-09-26T13:15:58.658430,2650,0.062644,0.109485,20.359397,0.117167,0.140091,1.000944
2011-09-26T13:15:58.668430,2660,0.045823,0.118796,20.495150,0.117212,0.141588,1.001051
2011-09-26T13:15:58.678430,2670,0.029003,0.128108,20.630904,0.117257,0.143085,1.001159
2011-09-26T13:15:58.688430,2680,0.012182,0.137420,20.766657,0.117302,0.144581,1.001266
2011-09-26T13:15:58.698430,2690,-0.004639,0.146732,20.902411,0.117347,0.146078,1.001374
2011-09-26T13:15:58.708430,2700,-0.085998,0.196795,21.047901,0.117691,0.146917,1.001411
2011-09-26T13:15:58.718430,2710,-0.169149,0.247990,21.193662,0.118044,0.147737,1.001446
2011-09-26T13:15:58.728430,2720,-0.252299,0.299184,21.339423,0.118396,0.148558,1.001482
2011-09-26T13:15:58.738430,2730,-0.335449,0.350379,21.485184,0.118749,0.149378,1.001517
2011-09-26T13:15:58.748430,2740,-0.418599,0.401573,21.630944,0.119101,0.150199,1.001552
2011-09-26T13:15:58.758430,2750,-0.501749,0.452768,21.776705,0.119454,0.151019,1.001588
2011-09-26T13:15:58.768430,2760,-0.584899,0.503962,21.922466,0.119806,0.151840,1.001623
2011-09-26T13:15:58.778430,2770,-0.668049,0.555157,22.068227,0.120159,0.152660,1.001658
2011-09-26T13:15:58.788430,2780,-0.751200,0.606351,22.213987,0.120512,0.153481,1.001694
2011-09-26T13:15:58.798430,2790,-0.834350,0.657546,22.359748,0.120864,0.154301,1.001729
2011-09-26T13:15:58.808430,2800,-0.869315,0.694550,22.479335,0.121843,0.154908,1.001216
2011-09-26T13:15:58.818430,2810,-0.903626,0.731361,22.598566,0.122830,0.155511,1.000696
2011-09-26T13:15:58.828430,2820,-0.937937,0.768172,22.717797,0.123817,0.156115,1.000176
2011-09-26T13:15:58.838430,2830,-0.972248,0.804983,22.837028,0.124805,0.156718,0.999656
2011-09-26T13:15:58.848430,2840,-1.006559,0.841794,22.956259,0.125792,0.157322,0.999136
2011-09-26T13:15:58.858430,2850,-1.040870,0.878605,23.075490,0.126779,0.157925,0.998616
2011-09-26T13:15:58.868430,2860,-1.075181,0.915416,23.194721,0.127767,0.158529,0.998096
2011-09-26T13:15:58.878430,2870,-1.109492,0.952227,23.313953,0.128754,0.159132,0.997576
2011-09-26T13:15:58.888430,2880,-1.143803,0.989038,23.433184,0.129741,0.159736,0.997056
2011-09-26T13:15:58.898430,2890,-1.178114,1.025850,23.552415,0.130729,0.160339,0.996536
2011-09-26T13:15:58.908430,2900,-1.212425,1.062661,23.671646,0.131716,0.160943,0.996016
2011-09-26T13:15:58.918430,2910,-1.218688,1.079973,23.765414,0.131050,0.160833,0.996685
2011-09-26T13:15:58.928430,2920,-1.224573,1.097022,23.858839,0.130362,0.160713,0.997370
2011-09-26T13:15:58.938430,2930,-1.230457,1.114071,23.952264,0.129675,0.160594,0.998055
2011-09-26T13:15:58.948430,2940,-1.236342,1.131120,24.045689,0.128987,0.160474,0.998741
2011-09-26T13:15:58.958430,2950,-1.242227,1.148169,24.139114,0.128299,0.160355,0.999426
2011-09-26T13:15:58.968430,2960,-1.248112,1.165218,24.232539,0.127611,0.160236,1.000111
2011-09-26T13:15:58.978430,2970,-1.253996,1.182267,24.325964,0.126923,0.160116,1.000796
2011-09-26T13:15:58.988430,2980,-1.259881,1.199316,24.419389,0.126235,0.159997,1.001481
2011-09-26T13:15:58.998430,2990,-1.265766,1.216365,24.512814,0.125547,0.159877,1.002166
2011-09-26T13:15:59.008430,3000,-1.271651,1.233414,24.606239,0.124860,0.159758,1.002851
2011-09-26T13:15:59.018430,3010,-1.224392,1.231124,24.728470,0.123858,0.159064,1.002640
2011-09-26T13:15:59.028430,3020,-1.176509,1.228608,24.851040,0.122852,0.158363,1.002418
2011-09-26T13:15:59.038430,3030,-1.128626,1.226091,24.973610,0.121846,0.157662,1.002196
2011-09-26T13:15:59.048430,3040,-1.080742,1.223574,25.096180,0.120841,0.156961,1.001973
2011-09-26T13:15:59.058430,3050,-1.032859,1.221058,25.218750,0.119835,0.156260,1.001751
2011-09-26T13:15:59.068430,3060,-0.984976,1.218541,25.341320,0.118830,0.155559,1.001529
2011-09-26T13:15:59.078430,3070,-0.937092,1.216024,25.463890,0.117824,0.154857,1.001307
2011-09-26T13:15:59.088430,3080,-0.889209,1.213508,25.586460,0.116818,0.154156,1.001085
2011-09-26T13:15:59.098430,3090,-0.841326,1.210991,25.709030,0.115813,0.153455,1.000863
2011-09-26T13:15:59.108430,3100,-0.793442,1.208474,25.831600,0.114807,0.152754,1.000641
2011-09-26T13:15:59.118430,3110,-0.749863,1.198974,25.937272,0.113600,0.154654,1.001655
2011-09-26T13:15:59.128430,3120,-0.706347,1.189370,26.042695,0.112391,0.156592,1.002687
2011-09-26T13:15:59.138430,3130,-0.662831,1.179766,26.148118,0.111181,0.158531,1.003720
2011-09-26T13:15:59.148430,3140,-0.619315,1.170162,26.253541,0.109972,0.160469,1.004752
2011-09-26T13:15:59.158430,3150,-0.575799,1.160559,26.358963,0.108762,0.162407,1.005785
2011-09-26T13:15:59.168430,3160,-0.532283,1.150955,26.464386,0.107553,0.164345,1.006817
2011-09-26T13:15:59.178430,3170,-0.488768,1.141351,26.569809,0.106343,0.166283,1.007850
2011-09-26T13:15:59.188430,3180,-0.445252,1.131747,26.675232,0.105134,0.168222,1.008882
2011-09-26T13:15:59.198430,3190,-0.401736,1.122144,26.780654,0.103924,0.170160,1.009915
2011-09-26T13:15:59.208430,3200,-0.358220,1.112540,26.886077,0.102715,0.172098,1.010947
2011-09-26T13:15:59.218430,3210,-0.314704,1.102936,26.991500,0.101505,0.174036,1.011979
2011-09-26T13:15:59.228430,3220,-0.259855,1.176484,27.048196,0.101845,0.175395,1.010834
2011-09-26T13:15:59.238430,3230,-0.204641,1.252721,27.103316,0.102235,0.176735,1.009618
2011-09-26T13:15:59.248430,3240,-0.149426,1.328958,27.158436,0.102625,0.178075,1.008402
2011-09-26T13:15:59.258430,3250,-0.094211,1.405195,27.213556,0.103015,0.179415,1.007187
2011-09-26T13:15:59.268430,3260,-0.038996,1.481432,27.268676,0.103405,0.180755,1.005971
2011-09-26T13:15:59.278430,3270,0.016219,1.557669,27.323796,0.103795,0.182095,1.004755
2011-09-26T13:15:59.288430,3280,0.071434,1.633906,27.378916,0.104185,0.183435,1.003539
2011-09-26T13:15:59.298430,3290,0.126649,1.710143,27.434036,0.104574,0.184775,1.002323
2011-09-26T13:15:59.308430,3300,0.181864,1.786380,27.489156,0.104964,0.186115,1.001107
2011-09-26T13:15:59.318430,3310,0.237079,1.862617,27.544276,0.105354,0.187455,0.999892
2011-09-26T13:15:59.328430,3320,0.234408,1.979337,27.589418,0.103686,0.189131,0.996838
2011-09-26T13:15:59.338430,3330,0.230699,2.096782,27.634381,0.101981,0.190812,0.993751
2011-09-26T13:15:59.348430,3340,0.226991,2.214227,27.679344,0.100277,0.192493,0.990664
2011-09-26T13:15:59.358430,3350,0.223283,2.331672,27.724307,0.098572,0.194174,0.987577
2011-09-26T13:15:59.368430,3360,0.219574,2.449117,27.769270,0.096867,0.195856,0.984490
2011-09-26T13:15:59.378430,3370,0.215866,2.566562,27.814233,0.095162,0.197537,0.981402
2011-09-26T13:15:59.388430,3380,0.212158,2.684006,27.859196,0.093457,0.199218,0.978315
2011-09-26T13:15:59.398430,3390,0.208449,2.801451,27.904159,0.091752,0.200899,0.975228
2011-09-26T13:15:59.408430,3400,0.204741,2.918896,27.949122,0.090047,0.202581,0.972141
2011-09-26T13:15:59.418430,3410,0.201033,3.036341,27.994085,0.088342,0.204262,0.969054
2011-09-26T13:15:59.428430,3420,0.047714,2.981043,28.061159,0.086633,0.205712,0.970751
2011-09-26T13:15:59.438430,3430,-0.108025,2.922951,28.128590,0.084924,0.207158,0.972524
2011-09-26T13:15:59.448430,3440,-0.263764,2.864859,28.196021,0.083214,0.208605,0.974297
2011-09-26T13:15:59.458430,3450,-0.419503,2.806766,28.263452,0.081505,0.210051,0.976071
2011-09-26T13:15:59.468430,3460,-0.575242,2.748674,28.330884,0.079795,0.211498,0.977844
2011-09-26T13:15:59.478430,3470,-0.730981,2.690582,28.398315,0.078086,0.212944,0.979618
2011-09-26T13:15:59.488430,3480,-0.886720,2.632489,28.465746,0.076376,0.214391,0.981391
2011-09-26T13:15:59.498430,3490,-1.042458,2.574397,28.533177,0.074667,0.215837,0.983165
2011-09-26T13:15:59.508430,3500,-1.198197,2.516305,28.600609,0.072958,0.217283,0.984938
2011-09-26T13:15:59.518430,3510,-1.353936,2.458213,28.668040,0.071248,0.218730,0.986712
2011-09-26T13:15:59.528430,3520,-1.509675,2.400120,28.735471,0.069539,0.220176,0.988485
2011-09-26T13:15:59.538430,3530,-1.563772,2.392488,28.794668,0.071622,0.220152,0.989126
2011-09-26T13:15:59.548430,3540,-1.616468,2.385552,28.853752,0.073758,0.220106,0.989750
2011-09-26T13:15:59.558430,3550,-1.669163,2.378616,28.912835,0.075894,0.220061,0.990375
2011-09-26T13:15:59.568430,3560,-1.721859,2.371679,28.971919,0.078030,0.220016,0.991000
2011-09-26T13:15:59.578430,3570,-1.774555,2.364743,29.031002,0.080166,0.219971,0.991625
2011-09-26T13:15:59.588430,3580,-1.827251,2.357807,29.090085,0.082301,0.219926,0.992250
2011-09-26T13:15:59.598430,3590,-1.879946,2.350870,29.149169,0.084437,0.219881,0.992875
2011-09-26T13:15:59.608430,3600,-1.932642,2.343934,29.208252,0.086573,0.219836,0.993500
2011-09-26T13:15:59.618430,3610,-1.985338,2.336998,29.267336,0.088709,0.219791,0.994125
2011-09-26T13:15:59.628430,3620,-2.038034,2.330061,29.326419,0.090845,0.219746,0.994749
2011-09-26T13:15:59.638430,3630,-2.064516,2.363841,29.346968,0.091399,0.218313,0.994563
2011-09-26T13:15:59.648430,3640,-2.090589,2.398257,29.366914,0.091930,0.216858,0.994365
2011-09-26T13:15:59.658430,3650,-2.116661,2.432674,29.386861,0.092460,0.215404,0.994166
2011-09-26T13:15:59.668430,3660,-2.142734,2.467091,29.406807,0.092990,0.213949,0.993968
2011-09-26T13:15:59.678430,3670,-2.168806,2.501507,29.426753,0.093520,0.212494,0.993769
2011-09-26T13:15:59.688430,3680,-2.194879,2.535924,29.446699,0.094050,0.211039,0.993570
2011-09-26T13:15:59.698430,3690,-2.220951,2.570340,29.466646,0.094580,0.209585,0.993372
2011-09-26T13:15:59.708430,3700,-2.247024,2.604757,29.486592,0.095110,0.208130,0.993173
2011-09-26T13:15:59.718430,3710,-2.273096,2.639173,29.506538,0.095640,0.206675,0.992974
2011-09-26T13:15:59.728430,3720,-2.299169,2.673590,29.526484,0.096170,0.205221,0.992776
2011-09-26T13:15:59.738430,3730,-2.325242,2.708007,29.546430,0.096700,0.203766,0.992577
2011-09-26T13:15:59.748430,3740,-2.185171,2.708011,29.592406,0.096301,0.202080,0.994028
2011-09-26T13:15:59.758430,3750,-2.041010,2.707168,29.639022,0.095879,0.200388,0.995518
2011-09-26T13:15:59.768430,3760,-1.896850,2.706325,29.685638,0.095458,0.198696,0.997009
2011-09-26T13:15:59.778430,3770,-1.752690,2.705482,29.732254,0.095036,0.197004,0.998500
2011-09-26T13:15:59.788430,3780,-1.608529,2.704639,29.778870,0.094614,0.195312,0.999991
2011-09-26T13:15:59.798430,3790,-1.464369,2.703796,29.825486,0.094192,0.193621,1.001482
2011-09-26T13:15:59.808430,3800,-1.320209,2.702953,29.872101,0.093771,0.191929,1.002973
2011-09-26T13:15:59.818430,3810,-1.176048,2.702110,29.918717,0.093349,0.190237,1.004464
2011-09-26T13:15:59.828430,3820,-1.031888,2.701267,29.965333,0.092927,0.188545,1.005955
2011-09-26T13:15:59.838430,3830,-0.887728,2.700424,30.011949,0.092505,0.186853,1.007446
2011-09-26T13:15:59.848430,3840,-0.823913,2.716315,30.065031,0.093176,0.188915,1.005455
2011-09-26T13:15:59.858430,3850,-0.761661,2.732532,30.118238,0.093868,0.191051,1.003396
2011-09-26T13:15:59.868430,3860,-0.699410,2.748749,30.171445,0.094560,0.193186,1.001337
2011-09-26T13:15:59.878430,3870,-0.637159,2.764965,30.224652,0.095252,0.195321,0.999278
2011-09-26T13:15:59.888430,3880,-0.574907,2.781182,30.277859,0.095944,0.197456,0.997219
2011-09-26T13:15:59.898430,3890,-0.512656,2.797398,30.331066,0.096636,0.199591,0.995159
2011-09-26T13:15:59.908430,3900,-0.450405,2.813615,30.384273,0.097327,0.201727,0.993100
2011-09-26T13:15:59.918430,3910,-0.388153,2.829832,30.437480,0.098019,0.203862,0.991041
2011-09-26T13:15:59.928430,3920,-0.325902,2.846048,30.490687,0.098711,0.205997,0.988982
2011-09-26T13:15:59.938430,3930,-0.263650,2.862265,30.543894,0.099403,0.208132,0.986923
2011-09-26T13:15:59.948430,3940,-0.273119,2.782933,30.603797,0.099152,0.210824,0.985147
2011-09-26T13:15:59.958430,3950,-0.284247,2.701392,30.663854,0.098880,0.213529,0.983377
2011-09-26T13:15:59.968430,3960,-0.295375,2.619850,30.723912,0.098607,0.216234,0.981608
2011-09-26T13:15:59.978430,3970,-0.306503,2.538309,30.783969,0.098334,0.218939,0.979838
2011-09-26T13:15:59.988430,3980,-0.317631,2.456767,30.844026,0.098061,0.221644,0.978069
2011-09-26T13:15:59.998430,3990,-0.328759,2.375226,30.904084,0.097789,0.224349,0.976299
2011-09-26T13:16:00.008430,4000,-0.339887,2.293684,30.964141,0.097516,0.227054,0.974529
2011-09-26T13:16:00.018430,4010,-0.351015,2.212143,31.024199,0.097243,0.229759,0.972760
2011-09-26T13:16:00.028430,4020,-0.362143,2.130601,31.084256,0.096971,0.232464,0.970990
2011-09-26T13:16:00.038430,4030,-0.373271,2.049060,31.144313,0.096698,0.235169,0.969220
2011-09-26T13:16:00.048430,4040,-0.384398,1.967518,31.204371,0.096425,0.237874,0.967451
2011-09-26T13:16:00.058430,4050,-0.344653,1.895969,31.227006,0.097404,0.238680,0.967136
2011-09-26T13:16:00.068430,4060,-0.303905,1.824617,31.248905,0.098408,0.239448,0.966850
2011-09-26T13:16:00.078430,4070,-0.263158,1.753266,31.270804,0.099412,0.240217,0.966564
2011-09-26T13:16:00.088430,4080,-0.222411,1.681914,31.292703,0.100415,0.240985,0.966278
2011-09-26T13:16:00.098430,4090,-0.181663,1.610562,31.314602,0.101419,0.241753,0.965992
2011-09-26T13:16:00.108430,4100,-0.140916,1.539210,31.336501,0.102423,0.242522,0.965706
2011-09-26T13:16:00.118430,4110,-0.100169,1.467858,31.358400,0.103426,0.243290,0.965420
2011-09-26T13:16:00.128430,4120,-0.059421,1.396506,31.380298,0.104430,0.244058,0.965134
2011-09-26T13:16:00.138430,4130,-0.018674,1.325154,31.402197,0.105434,0.244826,0.964848
2011-09-26T13:16:00.148430,4140,0.022074,1.253802,31.424096,0.106437,0.245595,0.964562
2011-09-26T13:16:00.158430,4150,-0.029569,1.175572,31.410114,0.107168,0.246041,0.965419
2011-09-26T13:16:00.168430,4160,-0.082877,1.097217,31.395485,0.107893,0.246482,0.966296
2011-09-26T13:16:00.178430,4170,-0.136185,1.018863,31.380856,0.108619,0.246923,0.967173
2011-09-26T13:16:00.188430,4180,-0.189493,0.940509,31.366226,0.109344,0.247364,0.968050
2011-09-26T13:16:00.198430,4190,-0.242801,0.862155,31.351597,0.110069,0.247804,0.968927
2011-09-26T13:16:00.208430,4200,-0.296109,0.783801,31.336968,0.110795,0.248245,0.969804
2011-09-26T13:16:00.218430,4210,-0.349417,0.705446,31.322339,0.111520,0.248686,0.970680
2011-09-26T13:16:00.228430,4220,-0.402725,0.627092,31.307710,0.112246,0.249127,0.971557
2011-09-26T13:16:00.238430,4230,-0.456033,0.548738,31.293081,0.112971,0.249568,0.972434
2011-09-26T13:16:00.248430,4240,-0.509341,0.470384,31.278452,0.113696,0.250008,0.973311
2011-09-26T13:16:00.258430,4250,-0.564921,0.416866,31.204995,0.113691,0.250909,0.974574
2011-09-26T13:16:00.268430,4260,-0.620586,0.364264,31.129367,0.113658,0.251827,0.975852
2011-09-26T13:16:00.278430,4270,-0.676251,0.311662,31.053738,0.113625,0.252744,0.977129
2011-09-26T13:16:00.288430,4280,-0.731916,0.259061,30.978110,0.113593,0.253662,0.978406
2011-09-26T13:16:00.298430,4290,-0.787580,0.206459,30.902481,0.113560,0.254580,0.979683
2011-09-26T13:16:00.308430,4300,-0.843245,0.153857,30.826853,0.113528,0.255497,0.980961
2011-09-26T13:16:00.318430,4310,-0.898910,0.101256,30.751224,0.113495,0.256415,0.982238
2011-09-26T13:16:00.328430,4320,-0.954575,0.048654,30.675596,0.113462,0.257333,0.983515
2011-09-26T13:16:00.338430,4330,-1.010239,-0.003947,30.599967,0.113430,0.258250,0.984793
2011-09-26T13:16:00.348430,4340,-1.065904,-0.056549,30.524339,0.113397,0.259168,0.986070
2011-09-26T13:16:00.358430,4350,-1.121569,-0.109151,30.448711,0.113364,0.260086,0.987347
2011-09-26T13:16:00.368430,4360,-1.131212,-0.107157,30.356988,0.113935,0.258551,0.986845
2011-09-26T13:16:00.378430,4370,-1.140041,-0.104196,30.264980,0.114517,0.256973,0.986311
2011-09-26T13:16:00.388430,4380,-1.148869,-0.101235,30.172973,0.115098,0.255396,0.985777
2011-09-26T13:16:00.398430,4390,-1.157697,-0.098274,30.080965,0.115680,0.253818,0.985242
2011-09-26T13:16:00.408430,4400,-1.166526,-0.095313,29.988958,0.116262,0.252240,0.984708
2011-09-26T13:16:00.418430,4410,-1.175354,-0.092352,29.896950,0.116843,0.250662,0.984174
2011-09-26T13:16:00.428430,4420,-1.184182,-0.089390,29.804942,0.117425,0.249084,0.983640
2011-09-26T13:16:00.438430,4430,-1.193010,-0.086429,29.712935,0.118006,0.247506,0.983106
2011-09-26T13:16:00.448430,4440,-1.201839,-0.083468,29.620927,0.118588,0.245928,0.982572
2011-09-26T13:16:00.458430,4450,-1.210667,-0.080507,29.528920,0.119170,0.244350,0.982038
2011-09-26T13:16:00.468430,4460,-1.146676,-0.088780,29.440894,0.119729,0.243902,0.983752
2011-09-26T13:16:00.478430,4470,-1.081007,-0.097311,29.352961,0.120288,0.243480,0.985517
2011-09-26T13:16:00.488430,4480,-1.015339,-0.105842,29.265027,0.120846,0.243058,0.987282
2011-09-26T13:16:00.498430,4490,-0.949670,-0.114373,29.177094,0.121405,0.242636,0.989048
2011-09-26T13:16:00.508430,4500,-0.884002,-0.122904,29.089160,0.121964,0.242213,0.990813
2011-09-26T13:16:00.518430,4510,-0.818333,-0.131436,29.001227,0.122522,0.241791,0.992578
2011-09-26T13:16:00.528430,4520,-0.752665,-0.139967,28.913293,0.123081,0.241369,0.994344
2011-09-26T13:16:00.538430,4530,-0.686996,-0.148498,28.825360,0.123640,0.240947,0.996109
2011-09-26T13:16:00.548430,4540,-0.621328,-0.157029,28.737426,0.124199,0.240525,0.997875
2011-09-26T13:16:00.558430,4550,-0.555659,-0.165560,28.649493,0.124757,0.240102,0.999640
2011-09-26T13:16:00.568430,4560,-0.489991,-0.174091,28.561559,0.125316,0.239680,1.001405
2011-09-26T13:16:00.578430,4570,-0.403453,-0.124026,28.466812,0.124645,0.237604,0.999247
2011-09-26T13:16:00.588430,4580,-0.316506,-0.072813,28.371932,0.123950,0.235495,0.997012
2011-09-26T13:16:00.598430,4590,-0.229560,-0.021599,28.277052,0.123255,0.233386,0.994776
2011-09-26T13:16:00.608430,4600,-0.142613,0.029614,28.182171,0.122560,0.231277,0.992541
2011-09-26T13:16:00.618430,4610,-0.055666,0.080827,28.087291,0.121865,0.229168,0.990306
2011-09-26T13:16:00.628430,4620,0.031281,0.132040,27.992410,0.121170,0.227059,0.988070
2011-09-26T13:16:00.638430,4630,0.118227,0.183254,27.897530,0.120475,0.224950,0.985835
2011-09-26T13:16:00.648430,4640,0.205174,0.234467,27.802649,0.119780,0.222841,0.983600
2011-09-26T13:16:00.658430,4650,0.292121,0.285680,27.707769,0.119085,0.220732,0.981365
2011-09-26T13:16:00.668430,4660,0.379067,0.336893,27.612888,0.118389,0.218623,0.979129
2011-09-26T13:16:00.678430,4670,0.403065,0.348817,27.568587,0.118019,0.219670,0.984967
2011-09-26T13:16:00.688430,4680,0.425389,0.359696,27.525630,0.117658,0.220802,0.991019
2011-09-26T13:16:00.698430,4690,0.447713,0.370575,27.482674,0.117296,0.221934,0.997072
2011-09-26T13:16:00.708430,4700,0.470037,0.381454,27.439717,0.116934,0.223066,1.003124
2011-09-26T13:16:00.718430,4710,0.492361,0.392333,27.396761,0.116573,0.224198,1.009176
2011-09-26T13:16:00.728430,4720,0.514685,0.403212,27.353804,0.116211,0.225329,1.015229
2011-09-26T13:16:00.738430,4730,0.537009,0.414091,27.310848,0.115849,0.226461,1.021281
2011-09-26T13:16:00.748430,4740,0.559333,0.424970,27.267891,0.115488,0.227593,1.027333
2011-09-26T13:16:00.758430,4750,0.581657,0.435849,27.224935,0.115126,0.228725,1.033386
2011-09-26T13:16:00.768430,4760,0.603981,0.446728,27.181979,0.114764,0.229857,1.039438
2011-09-26T13:16:00.778430,4770,0.632643,0.543468,27.093816,0.115425,0.233929,1.038409
2011-09-26T13:16:00.788430,4780,0.661459,0.642302,27.004550,0.116111,0.238073,1.037207
2011-09-26T13:16:00.798430,4790,0.690275,0.741135,26.915285,0.116796,0.242217,1.036005
2011-09-26T13:16:00.808430,4800,0.719092,0.839969,26.826020,0.117482,0.246361,1.034804
2011-09-26T13:16:00.818430,4810,0.747908,0.938803,26.736755,0.118168,0.250505,1.033602
2011-09-26T13:16:00.828430,4820,0.776724,1.037637,26.647490,0.118854,0.254649,1.032400
2011-09-26T13:16:00.838430,4830,0.805540,1.136471,26.558225,0.119539,0.258793,1.031198
2011-09-26T13:16:00.848430,4840,0.834357,1.235304,26.468959,0.120225,0.262937,1.029997
2011-09-26T13:16:00.858430,4850,0.863173,1.334138,26.379694,0.120911,0.267081,1.028795
2011-09-26T13:16:00.868430,4860,0.891989,1.432972,26.290429,0.121597,0.271225,1.027593
2011-09-26T13:16:00.878430,4870,0.754665,1.531860,26.146388,0.120746,0.270562,1.024192
2011-09-26T13:16:00.888430,4880,0.613824,1.630750,26.001187,0.119863,0.269798,1.020744
2011-09-26T13:16:00.898430,4890,0.472982,1.729639,25.855987,0.118980,0.269034,1.017296
2011-09-26T13:16:00.908430,4900,0.332141,1.828529,25.710786,0.118097,0.268270,1.013848
2011-09-26T13:16:00.918430,4910,0.191300,1.927418,25.565585,0.117214,0.267505,1.010401
2011-09-26T13:16:00.928430,4920,0.050459,2.026308,25.420385,0.116331,0.266741,1.006953
2011-09-26T13:16:00.938430,4930,-0.090382,2.125197,25.275184,0.115448,0.265977,1.003505
2011-09-26T13:16:00.948430,4940,-0.231223,2.224086,25.129983,0.114565,0.265213,1.000057
2011-09-26T13:16:00.958430,4950,-0.372064,2.322976,24.984783,0.113681,0.264449,0.996609
2011-09-26T13:16:00.968430,4960,-0.512906,2.421865,24.839582,0.112798,0.263684,0.993161
2011-09-26T13:16:00.978430,4970,-0.653747,2.520755,24.694381,0.111915,0.262920,0.989714
2011-09-26T13:16:00.988430,4980,-0.722926,2.451181,24.508432,0.111506,0.260562,0.986304
2011-09-26T13:16:00.998430,4990,-0.790648,2.378183,24.321653,0.111106,0.258171,0.982895
2011-09-26T13:16:01.008430,5000,-0.858370,2.305185,24.134875,0.110706,0.255780,0.979485
2011-09-26T13:16:01.018430,5010,-0.926093,2.232187,23.948097,0.110306,0.253389,0.976076
2011-09-26T13:16:01.028430,5020,-0.993815,2.159189,23.761319,0.109906,0.250998,0.972667
2011-09-26T13:16:01.038430,5030,-1.061537,2.086191,23.574540,0.109506,0.248607,0.969258
2011-09-26T13:16:01.048430,5040,-1.129259,2.013192,23.387762,0.109106,0.246216,0.965849
2011-09-26T13:16:01.058430,5050,-1.196982,1.940194,23.200984,0.108706,0.243825,0.962440
2011-09-26T13:16:01.068430,5060,-1.264704,1.867196,23.014206,0.108306,0.241434,0.959031
2011-09-26T13:16:01.078430,5070,-1.332426,1.794198,22.827427,0.107906,0.239044,0.955621
2011-09-26T13:16:01.088430,5080,-1.318016,1.671125,22.585237,0.107913,0.236915,0.956055
2011-09-26T13:16:01.098430,5090,-1.301910,1.547019,22.341903,0.107929,0.234791,0.956568
2011-09-26T13:16:01.108430,5100,-1.285805,1.422913,22.098569,0.107945,0.232667,0.957081
2011-09-26T13:16:01.118430,5110,-1.269700,1.298806,21.855235,0.107961,0.230544,0.957594
2011-09-26T13:16:01.128430,5120,-1.253594,1.174700,21.611901,0.107977,0.228420,0.958107
2011-09-26T13:16:01.138430,5130,-1.237489,1.050594,21.368566,0.107993,0.226296,0.958620
2011-09-26T13:16:01.148430,5140,-1.221384,0.926488,21.125232,0.108009,0.224173,0.959134
2011-09-26T13:16:01.158430,5150,-1.205279,0.802382,20.881898,0.108024,0.222049,0.959647
2011-09-26T13:16:01.168430,5160,-1.189173,0.678275,20.638564,0.108040,0.219925,0.960160
2011-09-26T13:16:01.178430,5170,-1.173068,0.554169,20.395230,0.108056,0.217802,0.960673
2011-09-26T13:16:01.188430,5180,-1.182329,0.500900,20.151200,0.108107,0.216263,0.963556
2011-09-26T13:16:01.198430,5190,-1.192216,0.449381,19.907153,0.108159,0.214738,0.966498
2011-09-26T13:16:01.208430,5200,-1.202103,0.397861,19.663106,0.108211,0.213214,0.969440
2011-09-26T13:16:01.218430,5210,-1.211991,0.346341,19.419059,0.108262,0.211690,0.972382
2011-09-26T13:16:01.228430,5220,-1.221878,0.294822,19.175012,0.108314,0.210165,0.975324
2011-09-26T13:16:01.238430,5230,-1.231765,0.243302,18.930964,0.108366,0.208641,0.978265
2011-09-26T13:16:01.248430,5240,-1.241653,0.191782,18.686917,0.108417,0.207116,0.981207
2011-09-26T13:16:01.258430,5250,-1.251540,0.140262,18.442870,0.108469,0.205592,0.984149
2011-09-26T13:16:01.268430,5260,-1.261427,0.088743,18.198823,0.108521,0.204067,0.987091
2011-09-26T13:16:01.278430,5270,-1.271314,0.037223,17.954776,0.108572,0.202543,0.990033
2011-09-26T13:16:01.288430,5280,-1.281202,-0.014297,17.710728,0.108624,0.201018,0.992975
2011-09-26T13:16:01.298430,5290,-1.236746,-0.032494,17.500078,0.108224,0.196705,0.993709
2011-09-26T13:16:01.308430,5300,-1.191142,-0.049987,17.290133,0.107814,0.192333,0.994396
2011-09-26T13:16:01.318430,5310,-1.145539,-0.067481,17.080189,0.107404,0.187961,0.995083
2011-09-26T13:16:01.328430,5320,-1.099935,-0.084974,16.870244,0.106993,0.183589,0.995771
2011-09-26T13:16:01.338430,5330,-1.054331,-0.102467,16.660299,0.106583,0.179217,0.996458
2011-09-26T13:16:01.348430,5340,-1.008727,-0.119960,16.450355,0.106173,0.174845,0.997145
2011-09-26T13:16:01.358430,5350,-0.963123,-0.137453,16.240410,0.105763,0.170473,0.997833
2011-09-26T13:16:01.368430,5360,-0.917519,-0.154947,16.030465,0.105353,0.166101,0.998520
2011-09-26T13:16:01.378430,5370,-0.871915,-0.172440,15.820521,0.104943,0.161729,0.999207
2011-09-26T13:16:01.388430,5380,-0.826311,-0.189933,15.610576,0.104533,0.157357,0.999895
2011-09-26T13:16:01.398430,5390,-0.694988,-0.201252,15.433513,0.104850,0.156186,1.001149
2011-09-26T13:16:01.408430,5400,-0.561799,-0.212437,15.257167,0.105183,0.155086,1.002416
2011-09-26T13:16:01.418430,5410,-0.428611,-0.223622,15.080820,0.105516,0.153985,1.003683
2011-09-26T13:16:01.428430,5420,-0.295422,-0.234807,14.904473,0.105849,0.152884,1.004950
2011-09-26T13:16:01.438430,5430,-0.162233,-0.245992,14.728127,0.106181,0.151784,1.006217
2011-09-26T13:16:01.448430,5440,-0.029044,-0.257177,14.551780,0.106514,0.150683,1.007484
2011-09-26T13:16:01.458430,5450,0.104145,-0.268362,14.375433,0.106847,0.149582,1.008751
2011-09-26T13:16:01.468430,5460,0.237334,-0.279547,14.199086,0.107180,0.148482,1.010018
2011-09-26T13:16:01.478430,5470,0.370523,-0.290732,14.022740,0.107513,0.147381,1.011285
2011-09-26T13:16:01.488430,5480,0.503712,-0.301917,13.846393,0.107846,0.146280,1.012552
2011-09-26T13:16:01.498430,5490,0.636901,-0.313102,13.670046,0.108179,0.145180,1.013819
2011-09-26T13:16:01.508430,5500,0.700845,-0.258069,13.511841,0.107754,0.144777,1.012956
2011-09-26T13:16:01.518430,5510,0.763107,-0.201427,13.354077,0.107310,0.144391,1.012042
2011-09-26T13:16:01.528430,5520,0.825370,-0.144786,13.196312,0.106867,0.144005,1.011127
2011-09-26T13:16:01.538430,5530,0.887632,-0.088144,13.038547,0.106423,0.143619,1.010212
2011-09-26T13:16:01.548430,5540,0.949895,-0.031503,12.880783,0.105980,0.143233,1.009298
2011-09-26T13:16:01.558430,5550,1.012157,0.025139,12.723018,0.105536,0.142847,1.008383
2011-09-26T13:16:01.568430,5560,1.074419,0.081781,12.565254,0.105093,0.142461,1.007469
2011-09-26T13:16:01.578430,5570,1.136682,0.138422,12.407489,0.104650,0.142075,1.006554
2011-09-26T13:16:01.588430,5580,1.198944,0.195064,12.249724,0.104206,0.141689,1.005639
2011-09-26T13:16:01.598430,5590,1.261207,0.251705,12.091960,0.103763,0.141303,1.004725
2011-09-26T13:16:01.608430,5600,1.169891,0.246218,11.955518,0.102967,0.143373,1.003659
2011-09-26T13:16:01.618430,5610,1.075090,0.239322,11.819561,0.102164,0.145499,1.002589
2011-09-26T13:16:01.628430,5620,0.980288,0.232425,11.683603,0.101360,0.147625,1.001520
2011-09-26T13:16:01.638430,5630,0.885487,0.225528,11.547645,0.100557,0.149751,1.000450
2011-09-26T13:16:01.648430,5640,0.790686,0.218631,11.411688,0.099753,0.151877,0.999381
2011-09-26T13:16:01.658430,5650,0.695885,0.211734,11.275730,0.098950,0.154003,0.998312
2011-09-26T13:16:01.668430,5660,0.601083,0.204838,11.139773,0.098146,0.156129,0.997242
2011-09-26T13:16:01.678430,5670,0.506282,0.197941,11.003815,0.097343,0.158255,0.996173
2011-09-26T13:16:01.688430,5680,0.411481,0.191044,10.867857,0.096539,0.160381,0.995103
2011-09-26T13:16:01.698430,5690,0.316680,0.184147,10.731900,0.095736,0.162507,0.994034
2011-09-26T13:16:01.708430,5700,0.205126,0.140412,10.577790,0.095698,0.161473,0.993931
2011-09-26T13:16:01.718430,5710,0.092848,0.095086,10.422896,0.095693,0.160303,0.993870
2011-09-26T13:16:01.728430,5720,-0.019430,0.049760,10.268002,0.095688,0.159133,0.993809
2011-09-26T13:16:01.738430,5730,-0.131708,0.004434,10.113109,0.095683,0.157963,0.993747
2011-09-26T13:16:01.748430,5740,-0.243985,-0.040892,9.958215,0.095679,0.156793,0.993686
2011-09-26T13:16:01.758430,5750,-0.356263,-0.086218,9.803321,0.095674,0.155623,0.993625
2011-09-26T13:16:01.768430,5760,-0.468541,-0.131544,9.648427,0.095669,0.154453,0.993564
2011-09-26T13:16:01.778430,5770,-0.580818,-0.176870,9.493533,0.095664,0.153283,0.993503
2011-09-26T13:16:01.788430,5780,-0.693096,-0.222196,9.338639,0.095659,0.152113,0.993442
2011-09-26T13:16:01.798430,5790,-0.805374,-0.267522,9.183745,0.095654,0.150943,0.993381
2011-09-26T13:16:01.808430,5800,-0.917652,-0.312848,9.028852,0.095650,0.149772,0.993319
2011-09-26T13:16:01.818430,5810,-0.969053,-0.287679,8.875860,0.095890,0.145816,0.994425
2011-09-26T13:16:01.828430,5820,-1.018804,-0.260598,8.722920,0.096136,0.141783,0.995562
2011-09-26T13:16:01.838430,5830,-1.068555,-0.233517,8.569981,0.096383,0.137751,0.996700
2011-09-26T13:16:01.848430,5840,-1.118306,-0.206436,8.417041,0.096630,0.133719,0.997837
2011-09-26T13:16:01.858430,5850,-1.168057,-0.179355,8.264101,0.096877,0.129687,0.998974
2011-09-26T13:16:01.868430,5860,-1.217808,-0.152275,8.111161,0.097123,0.125654,1.000111
2011-09-26T13:16:01.878430,5870,-1.267559,-0.125194,7.958221,0.097370,0.121622,1.001249
2011-09-26T13:16:01.888430,5880,-1.317310,-0.098113,7.805281,0.097617,0.117590,1.002386
2011-09-26T13:16:01.898430,5890,-1.367061,-0.071032,7.652341,0.097863,0.113558,1.003523
2011-09-26T13:16:01.908430,5900,-1.416812,-0.043951,7.499402,0.098110,0.109525,1.004660
2011-09-26T13:16:01.918430,5910,-1.356300,-0.021324,7.357546,0.098631,0.106346,1.003019
2011-09-26T13:16:01.928430,5920,-1.293028,0.001192,7.215967,0.099160,0.103189,1.001307
2011-09-26T13:16:01.938430,5930,-1.229756,0.023708,7.074389,0.099688,0.100031,0.999596
2011-09-26T13:16:01.948430,5940,-1.166484,0.046224,6.932810,0.100216,0.096873,0.997885
2011-09-26T13:16:01.958430,5950,-1.103212,0.068740,6.791231,0.100744,0.093715,0.996174
2011-09-26T13:16:01.968430,5960,-1.039940,0.091257,6.649653,0.101273,0.090558,0.994462
2011-09-26T13:16:01.978430,5970,-0.976668,0.113773,6.508074,0.101801,0.087400,0.992751
2011-09-26T13:16:01.988430,5980,-0.913396,0.136289,6.366496,0.102329,0.084242,0.991040
2011-09-26T13:16:01.998430,5990,-0.850124,0.158805,6.224917,0.102857,0.081084,0.989329
2011-09-26T13:16:02.008430,6000,-0.786852,0.181321,6.083338,0.103386,0.077926,0.987617
2011-09-26T13:16:02.018430,6010,-0.723580,0.203837,5.941760,0.103914,0.074769,0.985906
2011-09-26T13:16:02.028430,6020,-0.691502,0.224519,5.767376,0.103896,0.075467,0.987939
2011-09-26T13:16:02.038430,6030,-0.660290,0.245151,5.592082,0.103862,0.076273,0.990077
2011-09-26T13:16:02.048430,6040,-0.629077,0.265783,5.416789,0.103829,0.077079,0.992214
2011-09-26T13:16:02.058430,6050,-0.597865,0.286414,5.241495,0.103796,0.077885,0.994351
2011-09-26T13:16:02.068430,6060,-0.566652,0.307046,5.066201,0.103762,0.078691,0.996488
2011-09-26T13:16:02.078430,6070,-0.535440,0.327678,4.890907,0.103729,0.079497,0.998625
2011-09-26T13:16:02.088430,6080,-0.504227,0.348309,4.715613,0.103696,0.080302,1.000763
2011-09-26T13:16:02.098430,6090,-0.473015,0.368941,4.540319,0.103662,0.081108,1.002900
2011-09-26T13:16:02.108430,6100,-0.441802,0.389573,4.365025,0.103629,0.081914,1.005037
2011-09-26T13:16:02.118430,6110,-0.410590,0.410205,4.189731,0.103596,0.082720,1.007174
2011-09-26T13:16:02.128430,6120,-0.327799,0.471045,4.031526,0.103402,0.080314,1.008474
2011-09-26T13:16:02.138430,6130,-0.243597,0.532984,3.873787,0.103204,0.077821,1.009751
2011-09-26T13:16:02.148430,6140,-0.159396,0.594924,3.716049,0.103006,0.075327,1.011028
2011-09-26T13:16:02.158430,6150,-0.075195,0.656864,3.558311,0.102808,0.072834,1.012305
2011-09-26T13:16:02.168430,6160,0.009006,0.718803,3.400573,0.102609,0.070340,1.013582
2011-09-26T13:16:02.178430,6170,0.093208,0.780743,3.242835,0.102411,0.067847,1.014859
2011-09-26T13:16:02.188430,6180,0.177409,0.842682,3.085096,0.102213,0.065354,1.016136
2011-09-26T13:16:02.198430,6190,0.261610,0.904622,2.927358,0.102015,0.062860,1.017413
2011-09-26T13:16:02.208430,6200,0.345811,0.966561,2.769620,0.101817,0.060367,1.018690
2011-09-26T13:16:02.218430,6210,0.430012,1.028501,2.611882,0.101619,0.057873,1.019967
2011-09-26T13:16:02.228430,6220,0.433429,1.080376,2.522372,0.099685,0.056584,1.017757
2011-09-26T13:16:02.238430,6230,0.432350,1.131691,2.436658,0.097655,0.055363,1.015352
2011-09-26T13:16:02.248430,6240,0.431271,1.183006,2.350944,0.095625,0.054141,1.012947
2011-09-26T13:16:02.258430,6250,0.430192,1.234321,2.265231,0.093595,0.052919,1.010542
2011-09-26T13:16:02.268430,6260,0.429113,1.285635,2.179517,0.091565,0.051697,1.008137
2011-09-26T13:16:02.278430,6270,0.428034,1.336950,2.093803,0.089535,0.050475,1.005733
2011-09-26T13:16:02.288430,6280,0.426955,1.388265,2.008090,0.087505,0.049253,1.003328
2011-09-26T13:16:02.298430,6290,0.425876,1.439580,1.922376,0.085475,0.048032,1.000923
2011-09-26T13:16:02.308430,6300,0.424797,1.490895,1.836662,0.083445,0.046810,0.998518
2011-09-26T13:16:02.318430,6310,0.423718,1.542210,1.750949,0.081415,0.045588,0.996113
2011-09-26T13:16:02.328430,6320,0.422639,1.593525,1.665235,0.079385,0.044366,0.993708
2011-09-26T13:16:02.338430,6330,0.329202,1.520794,1.625167,0.077589,0.045584,0.991865
2011-09-26T13:16:02.348430,6340,0.233318,1.444777,1.586308,0.075798,0.046867,0.990036
2011-09-26T13:16:02.358430,6350,0.137434,1.368759,1.547449,0.074008,0.048150,0.988208
2011-09-26T13:16:02.368430,6360,0.041550,1.292742,1.508590,0.072217,0.049433,0.986379
2011-09-26T13:16:02.378430,6370,-0.054333,1.216725,1.469731,0.070427,0.050716,0.984550
2011-09-26T13:16:02.388430,6380,-0.150217,1.140708,1.430872,0.068636,0.051999,0.982722
2011-09-26T13:16:02.398430,6390,-0.246101,1.064691,1.392013,0.066846,0.053282,0.980893
2011-09-26T13:16:02.408430,6400,-0.341985,0.988674,1.353154,0.065055,0.054565,0.979065
2011-09-26T13:16:02.418430,6410,-0.437869,0.912657,1.314294,0.063264,0.055847,0.977236
2011-09-26T13:16:02.428430,6420,-0.533752,0.836640,1.275435,0.061474,0.057130,0.975407
2011-09-26T13:16:02.438430,6430,-0.527252,0.730567,1.250395,0.061229,0.054906,0.975674
2011-09-26T13:16:02.448430,6440,-0.517466,0.623531,1.225798,0.061033,0.052570,0.976008
2011-09-26T13:16:02.458430,6450,-0.507679,0.516494,1.201201,0.060838,0.050234,0.976341
2011-09-26T13:16:02.468430,6460,-0.497893,0.409457,1.176604,0.060642,0.047897,0.976675
2011-09-26T13:16:02.478430,6470,-0.488106,0.302420,1.152008,0.060447,0.045561,0.977009
2011-09-26T13:16:02.488430,6480,-0.478319,0.195383,1.127411,0.060251,0.043225,0.977343
2011-09-26T13:16:02.498430,6490,-0.468533,0.088346,1.102814,0.060056,0.040888,0.977676
2011-09-26T13:16:02.508430,6500,-0.458746,-0.018691,1.078217,0.059860,0.038552,0.978010
2011-09-26T13:16:02.518430,6510,-0.448960,-0.125728,1.053620,0.059664,0.036215,0.978344
2011-09-26T13:16:02.528430,6520,-0.439173,-0.232765,1.029023,0.059469,0.033879,0.978678
2011-09-26T13:16:02.538430,6530,-0.389795,-0.257552,1.052710,0.060430,0.032622,0.978834
2011-09-26T13:16:02.548430,6540,-0.339299,-0.280014,1.077762,0.061424,0.031396,0.978984
2011-09-26T13:16:02.558430,6550,-0.288802,-0.302476,1.102813,0.062418,0.030170,0.979135
2011-09-26T13:16:02.568430,6560,-0.238305,-0.324938,1.127865,0.063412,0.028943,0.979286
2011-09-26T13:16:02.578430,6570,-0.187808,-0.347400,1.152916,0.064406,0.027717,0.979437
2011-09-26T13:16:02.588430,6580,-0.137312,-0.369862,1.177968,0.065400,0.026491,0.979587
2011-09-26T13:16:02.598430,6590,-0.086815,-0.392325,1.203019,0.066394,0.025265,0.979738
2011-09-26T13:16:02.608430,6600,-0.036318,-0.414787,1.228071,0.067388,0.024038,0.979889
2011-09-26T13:16:02.618430,6610,0.014179,-0.437249,1.253122,0.068382,0.022812,0.980040
2011-09-26T13:16:02.628430,6620,0.064675,-0.459711,1.278174,0.069376,0.021586,0.980191
2011-09-26T13:16:02.638430,6630,0.115172,-0.482173,1.303225,0.070370,0.020360,0.980341
2011-09-26T13:16:02.648430,6640,0.110121,-0.535992,1.299641,0.071170,0.022247,0.981457
2011-09-26T13:16:02.658430,6650,0.103569,-0.590659,1.295282,0.071963,0.024219,0.982600
2011-09-26T13:16:02.668430,6660,0.097017,-0.645326,1.290923,0.072757,0.026191,0.983742
2011-09-26T13:16:02.678430,6670,0.090464,-0.699993,1.286564,0.073551,0.028163,0.984884
2011-09-26T13:16:02.688430,6680,0.083912,-0.754660,1.282205,0.074345,0.030135,0.986026
2011-09-26T13:16:02.698430,6690,0.077360,-0.809327,1.277846,0.075139,0.032107,0.987168
2011-09-26T13:16:02.708430,6700,0.070808,-0.863993,1.273487,0.075933,0.034079,0.988311
2011-09-26T13:16:02.718430,6710,0.064256,-0.918660,1.269129,0.076727,0.036051,0.989453
2011-09-26T13:16:02.728430,6720,0.057703,-0.973327,1.264770,0.077521,0.038023,0.990595
2011-09-26T13:16:02.738430,6730,0.051151,-1.027994,1.260411,0.078315,0.039995,0.991737
2011-09-26T13:16:02.748430,6740,-0.001076,-0.962127,1.189935,0.079656,0.041655,0.996212
2011-09-26T13:16:02.758430,6750,-0.054834,-0.892221,1.117244,0.081016,0.043305,1.000799
2011-09-26T13:16:02.768430,6760,-0.108592,-0.822315,1.044553,0.082376,0.044955,1.005385
2011-09-26T13:16:02.778430,6770,-0.162350,-0.752408,0.971861,0.083737,0.046605,1.009972
2011-09-26T13:16:02.788430,6780,-0.216108,-0.682502,0.899170,0.085097,0.048256,1.014559
2011-09-26T13:16:02.798430,6790,-0.269866,-0.612596,0.826479,0.086457,0.049906,1.019145
2011-09-26T13:16:02.808430,6800,-0.323623,-0.542690,0.753788,0.087817,0.051556,1.023732
2011-09-26T13:16:02.818430,6810,-0.377381,-0.472784,0.681096,0.089177,0.053206,1.028319
2011-09-26T13:16:02.828430,6820,-0.431139,-0.402878,0.608405,0.090537,0.054856,1.032905
2011-09-26T13:16:02.838430,6830,-0.484897,-0.332972,0.535714,0.091897,0.056506,1.037492
2011-09-26T13:16:02.848430,6840,-0.518007,-0.224571,0.489942,0.092703,0.053250,1.035650
2011-09-26T13:16:02.858430,6850,-0.550513,-0.115045,0.444956,0.093493,0.049851,1.033620
2011-09-26T13:16:02.868430,6860,-0.583019,-0.005520,0.399971,0.094283,0.046452,1.031590
2011-09-26T13:16:02.878430,6870,-0.615526,0.104006,0.354986,0.095073,0.043053,1.029561
2011-09-26T13:16:02.888430,6880,-0.648032,0.213532,0.310000,0.095862,0.039654,1.027531
2011-09-26T13:16:02.898430,6890,-0.680538,0.323057,0.265015,0.096652,0.036255,1.025501
2011-09-26T13:16:02.908430,6900,-0.713045,0.432583,0.220029,0.097442,0.032856,1.023471
2011-09-26T13:16:02.918430,6910,-0.745551,0.542108,0.175044,0.098232,0.029457,1.021441
2011-09-26T13:16:02.928430,6920,-0.778058,0.651634,0.130059,0.099021,0.026057,1.019411
2011-09-26T13:16:02.938430,6930,-0.810564,0.761160,0.085073,0.099811,0.022658,1.017381
2011-09-26T13:16:02.948430,6940,-0.843070,0.870685,0.040088,0.100601,0.019259,1.015352
2011-09-26T13:16:02.958430,6950,-0.802469,0.908771,0.028439,0.099996,0.018490,1.012982
2011-09-26T13:16:02.968430,6960,-0.759598,0.944640,0.017826,0.099348,0.017801,1.010601
2011-09-26T13:16:02.978430,6970,-0.716728,0.980509,0.007212,0.098700,0.017113,1.008220
2011-09-26T13:16:02.988430,6980,-0.673858,1.016378,-0.003401,0.098053,0.016425,1.005839
2011-09-26T13:16:02.998430,6990,-0.630987,1.052247,-0.014015,0.097405,0.015737,1.003459
2011-09-26T13:16:03.008430,7000,-0.588117,1.088116,-0.024628,0.096757,0.015049,1.001078
2011-09-26T13:16:03.018430,7010,-0.545246,1.123985,-0.035242,0.096109,0.014361,0.998697
2011-09-26T13:16:03.028430,7020,-0.502376,1.159853,-0.045856,0.095461,0.013672,0.996317
2011-09-26T13:16:03.038430,7030,-0.459506,1.195722,-0.056469,0.094813,0.012984,0.993936
2011-09-26T13:16:03.048430,7040,-0.416635,1.231591,-0.067083,0.094165,0.012296,0.991555
2011-09-26T13:16:03.058430,7050,-0.446720,1.170647,-0.073038,0.092869,0.014061,0.990977
2011-09-26T13:16:03.068430,7060,-0.478998,1.106792,-0.078853,0.091553,0.015900,0.990454
2011-09-26T13:16:03.078430,7070,-0.511277,1.042937,-0.084668,0.090237,0.017739,0.989931
2011-09-26T13:16:03.088430,7080,-0.543556,0.979081,-0.090483,0.088922,0.019578,0.989407
2011-09-26T13:16:03.098430,7090,-0.575835,0.915226,-0.096298,0.087606,0.021418,0.988884
2011-09-26T13:16:03.108430,7100,-0.608114,0.851370,-0.102112,0.086290,0.023257,0.988361
2011-09-26T13:16:03.118430,7110,-0.640393,0.787515,-0.107927,0.084974,0.025096,0.987837
2011-09-26T13:16:03.128430,7120,-0.672671,0.723659,-0.113742,0.083659,0.026935,0.987314
2011-09-26T13:16:03.138430,7130,-0.704950,0.659804,-0.119557,0.082343,0.028774,0.986790
2011-09-26T13:16:03.148430,7140,-0.737229,0.595948,-0.125372,0.081027,0.030613,0.986267
2011-09-26T13:16:03.158430,7150,-0.769508,0.532093,-0.131187,0.079711,0.032452,0.985744
2011-09-26T13:16:03.168430,7160,-0.728715,0.360880,-0.129839,0.079935,0.029798,0.985099
2011-09-26T13:16:03.178430,7170,-0.685263,0.185760,-0.128230,0.080216,0.026981,0.984450
2011-09-26T13:16:03.188430,7180,-0.641811,0.010641,-0.126621,0.080496,0.024164,0.983802
2011-09-26T13:16:03.198430,7190,-0.598359,-0.164478,-0.125013,0.080776,0.021347,0.983153
2011-09-26T13:16:03.208430,7200,-0.554907,-0.339597,-0.123404,0.081056,0.018529,0.982504
2011-09-26T13:16:03.218430,7210,-0.511455,-0.514717,-0.121795,0.081336,0.015712,0.981855
2011-09-26T13:16:03.228430,7220,-0.468003,-0.689836,-0.120186,0.081617,0.012895,0.981206
2011-09-26T13:16:03.238430,7230,-0.424551,-0.864955,-0.118577,0.081897,0.010078,0.980557
2011-09-26T13:16:03.248430,7240,-0.381099,-1.040074,-0.116968,0.082177,0.007261,0.979909
2011-09-26T13:16:03.258430,7250,-0.337648,-1.215194,-0.115360,0.082457,0.004444,0.979260
2011-09-26T13:16:03.268430,7260,-0.282922,-1.296163,-0.103876,0.083376,0.004016,0.978337
2011-09-26T13:16:03.278430,7270,-0.227695,-1.372950,-0.091954,0.084322,0.003694,0.977403
2011-09-26T13:16:03.288430,7280,-0.172468,-1.449737,-0.080032,0.085269,0.003372,0.976468
2011-09-26T13:16:03.298430,7290,-0.117242,-1.526524,-0.068110,0.086215,0.003050,0.975533
2011-09-26T13:16:03.308430,7300,-0.062015,-1.603311,-0.056188,0.087162,0.002728,0.974598
2011-09-26T13:16:03.318430,7310,-0.006789,-1.680099,-0.044266,0.088109,0.002406,0.973664
2011-09-26T13:16:03.328430,7320,0.048438,-1.756886,-0.032344,0.089055,0.002084,0.972729
2011-09-26T13:16:03.338430,7330,0.103664,-1.833673,-0.020421,0.090002,0.001762,0.971794
2011-09-26T13:16:03.348430,7340,0.158891,-1.910460,-0.008499,0.090949,0.001440,0.970860
2011-09-26T13:16:03.358430,7350,0.214118,-1.987247,0.003423,0.091895,0.001118,0.969925
2011-09-26T13:16:03.368430,7360,0.278099,-1.992414,-0.004835,0.092493,0.004009,0.973960
2011-09-26T13:16:03.378430,7370,0.342365,-1.995250,-0.013749,0.093080,0.007006,0.978157
2011-09-26T13:16:03.388430,7380,0.406631,-1.998085,-0.022663,0.093666,0.010002,0.982355
2011-09-26T13:16:03.398430,7390,0.470897,-2.000921,-0.031577,0.094253,0.012999,0.986552
2011-09-26T13:16:03.408430,7400,0.535163,-2.003757,-0.040491,0.094840,0.015995,0.990749
2011-09-26T13:16:03.418430,7410,0.599429,-2.006593,-0.049405,0.095426,0.018991,0.994946
2011-09-26T13:16:03.428430,7420,0.663695,-2.009429,-0.058320,0.096013,0.021988,0.999143
2011-09-26T13:16:03.438430,7430,0.727961,-2.012265,-0.067234,0.096599,0.024984,1.003341
2011-09-26T13:16:03.448430,7440,0.792227,-2.015100,-0.076148,0.097186,0.027981,1.007538
2011-09-26T13:16:03.458430,7450,0.856493,-2.017936,-0.085062,0.097773,0.030977,1.011735
2011-09-26T13:16:03.468430,7460,0.920760,-2.020772,-0.093976,0.098359,0.033973,1.015932
2011-09-26T13:16:03.478430,7470,0.847454,-1.828558,-0.106156,0.098347,0.033739,1.022617
2011-09-26T13:16:03.488430,7480,0.769230,-1.629370,-0.118452,0.098313,0.033389,1.029391
2011-09-26T13:16:03.498430,7490,0.691006,-1.430182,-0.130748,0.098279,0.033038,1.036164
2011-09-26T13:16:03.508430,7500,0.612782,-1.230994,-0.143044,0.098246,0.032688,1.042938
2011-09-26T13:16:03.518430,7510,0.534558,-1.031805,-0.155341,0.098212,0.032338,1.049712
2011-09-26T13:16:03.528430,7520,0.456334,-0.832617,-0.167637,0.098178,0.031988,1.056485
2011-09-26T13:16:03.538430,7530,0.378110,-0.633429,-0.179933,0.098145,0.031638,1.063259
2011-09-26T13:16:03.548430,7540,0.299886,-0.434241,-0.192230,0.098111,0.031288,1.070033
2011-09-26T13:16:03.558430,7550,0.221662,-0.235053,-0.204526,0.098077,0.030938,1.076806
2011-09-26T13:16:03.568430,7560,0.143438,-0.035865,-0.216822,0.098044,0.030587,1.083580
2011-09-26T13:16:03.578430,7570,0.147811,0.160241,-0.210018,0.096646,0.029092,1.080211
2011-09-26T13:16:03.588430,7580,0.154479,0.356262,-0.202682,0.095211,0.027565,1.076560
2011-09-26T13:16:03.598430,7590,0.161146,0.552283,-0.195347,0.093775,0.026038,1.072909
2011-09-26T13:16:03.608430,7600,0.167813,0.748303,-0.188012,0.092340,0.024511,1.069258
2011-09-26T13:16:03.618430,7610,0.174480,0.944324,-0.180677,0.090905,0.022983,1.065607
2011-09-26T13:16:03.628430,7620,0.181148,1.140344,-0.173342,0.089469,0.021456,1.061957
2011-09-26T13:16:03.638430,7630,0.187815,1.336365,-0.166006,0.088034,0.019929,1.058306
2011-09-26T13:16:03.648430,7640,0.194482,1.532386,-0.158671,0.086599,0.018402,1.054655
2011-09-26T13:16:03.658430,7650,0.201150,1.728406,-0.151336,0.085163,0.016875,1.051004
2011-09-26T13:16:03.668430,7660,0.207817,1.924427,-0.144001,0.083728,0.015348,1.047353
2011-09-26T13:16:03.678430,7670,0.249290,1.934414,-0.113526,0.081957,0.014840,1.040838
2011-09-26T13:16:03.688430,7680,0.291975,1.937929,-0.082247,0.080173,0.014368,1.034223
2011-09-26T13:16:03.698430,7690,0.334659,1.941445,-0.050967,0.078390,0.013895,1.027608
2011-09-26T13:16:03.708430,7700,0.377343,1.944960,-0.019687,0.076607,0.013423,1.020992
2011-09-26T13:16:03.718430,7710,0.420028,1.948476,0.011592,0.074824,0.012950,1.014377
2011-09-26T13:16:03.728430,7720,0.462712,1.951991,0.042872,0.073041,0.012478,1.007762
2011-09-26T13:16:03.738430,7730,0.505396,1.955507,0.074151,0.071257,0.012006,1.001147
2011-09-26T13:16:03.748430,7740,0.548080,1.959022,0.105431,0.069474,0.011533,0.994532
2011-09-26T13:16:03.758430,7750,0.590765,1.962538,0.136710,0.067691,0.011061,0.987917
2011-09-26T13:16:03.768430,7760,0.633449,1.966053,0.167990,0.065908,0.010589,0.981302
2011-09-26T13:16:03.778430,7770,0.676133,1.969569,0.199269,0.064125,0.010116,0.974687
2011-09-26T13:16:03.788430,7780,0.733272,1.875650,0.219331,0.063382,0.011324,0.971455
2011-09-26T13:16:03.798430,7790,0.791034,1.777532,0.238910,0.062685,0.012604,0.968368
2011-09-26T13:16:03.808430,7800,0.848795,1.679415,0.258488,0.061987,0.013884,0.965281
2011-09-26T13:16:03.818430,7810,0.906557,1.581297,0.278067,0.061290,0.015164,0.962195
2011-09-26T13:16:03.828430,7820,0.964318,1.483180,0.297646,0.060592,0.016444,0.959108
2011-09-26T13:16:03.838430,7830,1.022080,1.385062,0.317224,0.059895,0.017723,0.956021
2011-09-26T13:16:03.848430,7840,1.079842,1.286945,0.336803,0.059197,0.019003,0.952935
2011-09-26T13:16:03.858430,7850,1.137603,1.188828,0.356381,0.058499,0.020283,0.949848
2011-09-26T13:16:03.868430,7860,1.195365,1.090710,0.375960,0.057802,0.021563,0.946761
2011-09-26T13:16:03.878430,7870,1.253126,0.992593,0.395539,0.057104,0.022843,0.943675
2011-09-26T13:16:03.888430,7880,1.364374,0.882524,0.393589,0.056666,0.023259,0.946849
2011-09-26T13:16:03.898430,7890,1.477533,0.772028,0.390871,0.056236,0.023644,0.950248
2011-09-26T13:16:03.908430,7900,1.590692,0.661532,0.388152,0.055807,0.024030,0.953646
2011-09-26T13:16:03.918430,7910,1.703851,0.551036,0.385433,0.055377,0.024415,0.957044
2011-09-26T13:16:03.928430,7920,1.817010,0.440540,0.382714,0.054948,0.024800,0.960443
2011-09-26T13:16:03.938430,7930,1.930169,0.330044,0.379996,0.054518,0.025185,0.963841
2011-09-26T13:16:03.948430,7940,2.043328,0.219548,0.377277,0.054089,0.025570,0.967239
2011-09-26T13:16:03.958430,7950,2.156487,0.109052,0.374558,0.053659,0.025955,0.970638
2011-09-26T13:16:03.968430,7960,2.269647,-0.001444,0.371840,0.053230,0.026341,0.974036
2011-09-26T13:16:03.978430,7970,2.382806,-0.111940,0.369121,0.052800,0.026726,0.977434
2011-09-26T13:16:03.988430,7980,2.319713,-0.205165,0.381022,0.052750,0.028476,0.979923
2011-09-26T13:16:03.998430,7990,2.250377,-0.297778,0.393440,0.052713,0.030276,0.982379
2011-09-26T13:16:04.008430,8000,2.181042,-0.390391,0.405859,0.052676,0.032075,0.984836
2011-09-26T13:16:04.018430,8010,2.111707,-0.483004,0.418278,0.052639,0.033874,0.987293
2011-09-26T13:16:04.028430,8020,2.042372,-0.575617,0.430696,0.052601,0.035673,0.989749
2011-09-26T13:16:04.038430,8030,1.973037,-0.668230,0.443115,0.052564,0.037472,0.992206
2011-09-26T13:16:04.048430,8040,1.903702,-0.760843,0.455533,0.052527,0.039271,0.994662
2011-09-26T13:16:04.058430,8050,1.834367,-0.853456,0.467952,0.052490,0.041070,0.997119
2011-09-26T13:16:04.068430,8060,1.765032,-0.946069,0.480370,0.052453,0.042870,0.999575
2011-09-26T13:16:04.078430,8070,1.695697,-1.038682,0.492789,0.052416,0.044669,1.002032
2011-09-26T13:16:04.088430,8080,1.626362,-1.131295,0.505208,0.052379,0.046468,1.004488
2011-09-26T13:16:04.098430,8090,1.530154,-1.204282,0.505875,0.051790,0.048125,1.004366
2011-09-26T13:16:04.108430,8100,1.432930,-1.276528,0.506098,0.051181,0.049776,1.004146
2011-09-26T13:16:04.118430,8110,1.335707,-1.348773,0.506322,0.050572,0.051427,1.003926
2011-09-26T13:16:04.128430,8120,1.238484,-1.421019,0.506545,0.049963,0.053079,1.003707
2011-09-26T13:16:04.138430,8130,1.141260,-1.493264,0.506768,0.049354,0.054730,1.003487
2011-09-26T13:16:04.148430,8140,1.044037,-1.565510,0.506992,0.048744,0.056381,1.003267
2011-09-26T13:16:04.158430,8150,0.946814,-1.637755,0.507215,0.048135,0.058033,1.003047
2011-09-26T13:16:04.168430,8160,0.849590,-1.710001,0.507439,0.047526,0.059684,1.002828
2011-09-26T13:16:04.178430,8170,0.752367,-1.782246,0.507662,0.046917,0.061335,1.002608
2011-09-26T13:16:04.188430,8180,0.655144,-1.854492,0.507885,0.046308,0.062987,1.002388
2011-09-26T13:16:04.198430,8190,0.622516,-1.887271,0.511158,0.046874,0.060261,1.003726
2011-09-26T13:16:04.208430,8200,0.593339,-1.917942,0.514594,0.047503,0.057301,1.005146
2011-09-26T13:16:04.218430,8210,0.564161,-1.948613,0.518029,0.048131,0.054341,1.006567
2011-09-26T13:16:04.228430,8220,0.534984,-1.979285,0.521465,0.048760,0.051381,1.007988
2011-09-26T13:16:04.238430,8230,0.505807,-2.009956,0.524900,0.049389,0.048421,1.009408
2011-09-26T13:16:04.248430,8240,0.476630,-2.040627,0.528336,0.050018,0.045461,1.010829
2011-09-26T13:16:04.258430,8250,0.447452,-2.071298,0.531771,0.050647,0.042501,1.012250
2011-09-26T13:16:04.268430,8260,0.418275,-2.101969,0.535207,0.051275,0.039541,1.013670
2011-09-26T13:16:04.278430,8270,0.389098,-2.132641,0.538642,0.051904,0.036581,1.015091
2011-09-26T13:16:04.288430,8280,0.359920,-2.163312,0.542078,0.052533,0.033622,1.016512
2011-09-26T13:16:04.298430,8290,0.330743,-2.193983,0.545514,0.053162,0.030662,1.017932
2011-09-26T13:16:04.308430,8300,0.425898,-2.155674,0.545311,0.053487,0.030297,1.020186
2011-09-26T13:16:04.318430,8310,0.526397,-2.114400,0.544952,0.053799,0.030043,1.022475
2011-09-26T13:16:04.328430,8320,0.626896,-2.073126,0.544593,0.054112,0.029790,1.024764
2011-09-26T13:16:04.338430,8330,0.727395,-2.031852,0.544235,0.054424,0.029537,1.027053
2011-09-26T13:16:04.348430,8340,0.827894,-1.990578,0.543876,0.054736,0.029283,1.029342
2011-09-26T13:16:04.358430,8350,0.928393,-1.949304,0.543517,0.055048,0.029030,1.031631
2011-09-26T13:16:04.368430,8360,1.028892,-1.908029,0.543158,0.055360,0.028776,1.033920
2011-09-26T13:16:04.378430,8370,1.129391,-1.866755,0.542799,0.055673,0.028523,1.036209
2011-09-26T13:16:04.388430,8380,1.229890,-1.825481,0.542440,0.055985,0.028270,1.038498
2011-09-26T13:16:04.398430,8390,1.330389,-1.784207,0.542082,0.056297,0.028016,1.040787
2011-09-26T13:16:04.408430,8400,1.325293,-1.670100,0.530121,0.056397,0.031432,1.041268
2011-09-26T13:16:04.418430,8410,1.316409,-1.553380,0.517745,0.056490,0.034979,1.041684
2011-09-26T13:16:04.428430,8420,1.307526,-1.436661,0.505369,0.056582,0.038526,1.042099
2011-09-26T13:16:04.438430,8430,1.298643,-1.319942,0.492993,0.056675,0.042073,1.042515
2011-09-26T13:16:04.448430,8440,1.289760,-1.203222,0.480617,0.056767,0.045621,1.042931
2011-09-26T13:16:04.458430,8450,1.280877,-1.086503,0.468241,0.056860,0.049168,1.043347
2011-09-26T13:16:04.468430,8460,1.271994,-0.969783,0.455864,0.056952,0.052715,1.043763
2011-09-26T13:16:04.478430,8470,1.263111,-0.853064,0.443488,0.057044,0.056262,1.044179
2011-09-26T13:16:04.488430,8480,1.254228,-0.736345,0.431112,0.057137,0.059809,1.044594
2011-09-26T13:16:04.498430,8490,1.245344,-0.619625,0.418736,0.057229,0.063357,1.045010
2011-09-26T13:16:04.508430,8500,1.129252,-0.515693,0.407197,0.056860,0.063005,1.042441
2011-09-26T13:16:04.518430,8510,1.008657,-0.412297,0.395692,0.056470,0.062490,1.039746
2011-09-26T13:16:04.528430,8520,0.888062,-0.308901,0.384188,0.056081,0.061975,1.037051
2011-09-26T13:16:04.538430,8530,0.767467,-0.205506,0.372684,0.055692,0.061460,1.034356
2011-09-26T13:16:04.548430,8540,0.646872,-0.102110,0.361180,0.055303,0.060945,1.031661
2011-09-26T13:16:04.558430,8550,0.526277,0.001286,0.349676,0.054914,0.060430,1.028967
2011-09-26T13:16:04.568430,8560,0.405682,0.104681,0.338171,0.054525,0.059915,1.026272
2011-09-26T13:16:04.578430,8570,0.285087,0.208077,0.326667,0.054135,0.059400,1.023577
2011-09-26T13:16:04.588430,8580,0.164492,0.311473,0.315163,0.053746,0.058885,1.020882
2011-09-26T13:16:04.598430,8590,0.043897,0.414868,0.303659,0.053357,0.058370,1.018187
2011-09-26T13:16:04.608430,8600,-0.076698,0.518264,0.292154,0.052968,0.057855,1.015493
2011-09-26T13:16:04.618430,8610,-0.066460,0.574075,0.290733,0.052574,0.056350,1.014328
2011-09-26T13:16:04.628430,8620,-0.051406,0.628135,0.289682,0.052179,0.054808,1.013220
2011-09-26T13:16:04.638430,8630,-0.036353,0.682194,0.288631,0.051785,0.053266,1.012112
2011-09-26T13:16:04.648430,8640,-0.021300,0.736254,0.287581,0.051390,0.051724,1.011003
2011-09-26T13:16:04.658430,8650,-0.006246,0.790314,0.286530,0.050996,0.050183,1.009895
2011-09-26T13:16:04.668430,8660,0.008807,0.844373,0.285479,0.050601,0.048641,1.008787
2011-09-26T13:16:04.678430,8670,0.023861,0.898433,0.284428,0.050207,0.047099,1.007679
2011-09-26T13:16:04.688430,8680,0.038914,0.952493,0.283378,0.049813,0.045558,1.006571
2011-09-26T13:16:04.698430,8690,0.053968,1.006552,0.282327,0.049418,0.044016,1.005462
2011-09-26T13:16:04.708430,8700,0.069021,1.060612,0.281276,0.049024,0.042474,1.004354
2011-09-26T13:16:04.718430,8710,0.140130,1.033845,0.286333,0.048270,0.040882,1.002557
2011-09-26T13:16:04.728430,8720,0.214502,1.002373,0.291746,0.047495,0.039287,1.000721
2011-09-26T13:16:04.738430,8730,0.288874,0.970902,0.297158,0.046720,0.037692,0.998884
2011-09-26T13:16:04.748430,8740,0.363246,0.939430,0.302571,0.045945,0.036097,0.997047
2011-09-26T13:16:04.758430,8750,0.437618,0.907958,0.307983,0.045170,0.034501,0.995210
2011-09-26T13:16:04.768430,8760,0.511990,0.876487,0.313396,0.044395,0.032906,0.993374
2011-09-26T13:16:04.778430,8770,0.586362,0.845015,0.318809,0.043620,0.031311,0.991537
2011-09-26T13:16:04.788430,8780,0.660734,0.813543,0.324221,0.042845,0.029716,0.989700
2011-09-26T13:16:04.798430,8790,0.735106,0.782072,0.329634,0.042070,0.028121,0.987863
2011-09-26T13:16:04.808430,8800,0.809478,0.750600,0.335046,0.041295,0.026526,0.986027
2011-09-26T13:16:04.818430,8810,0.738552,0.758812,0.312808,0.040811,0.029307,0.985180
2011-09-26T13:16:04.828430,8820,0.661288,0.768755,0.289364,0.040339,0.032280,0.984376
2011-09-26T13:16:04.838430,8830,0.584023,0.778699,0.265919,0.039868,0.035252,0.983572
2011-09-26T13:16:04.848430,8840,0.506759,0.788642,0.242475,0.039396,0.038225,0.982768
2011-09-26T13:16:04.858430,8850,0.429495,0.798585,0.219030,0.038925,0.041198,0.981964
2011-09-26T13:16:04.868430,8860,0.352231,0.808528,0.195586,0.038453,0.044170,0.981160
2011-09-26T13:16:04.878430,8870,0.274967,0.818472,0.172142,0.037982,0.047143,0.980356
2011-09-26T13:16:04.888430,8880,0.197703,0.828415,0.148697,0.037511,0.050115,0.979552
2011-09-26T13:16:04.898430,8890,0.120439,0.838358,0.125253,0.037039,0.053088,0.978748
2011-09-26T13:16:04.908430,8900,0.043175,0.848301,0.101809,0.036568,0.056060,0.977944
2011-09-26T13:16:04.918430,8910,-0.034089,0.858244,0.078364,0.036096,0.059033,0.977140
2011-09-26T13:16:04.928430,8920,0.030640,0.802397,0.066905,0.035735,0.057454,0.975895
2011-09-26T13:16:04.938430,8930,0.100476,0.744183,0.055877,0.035378,0.055712,0.974634
2011-09-26T13:16:04.948430,8940,0.170312,0.685970,0.044850,0.035021,0.053970,0.973373
2011-09-26T13:16:04.958430,8950,0.240148,0.627756,0.033822,0.034664,0.052227,0.972112
2011-09-26T13:16:04.968430,8960,0.309985,0.569543,0.022794,0.034307,0.050485,0.970851
2011-09-26T13:16:04.978430,8970,0.379821,0.511329,0.011766,0.033950,0.048743,0.969590
2011-09-26T13:16:04.988430,8980,0.449657,0.453116,0.000738,0.033592,0.047000,0.968329
2011-09-26T13:16:04.998430,8990,0.519493,0.394902,-0.010290,0.033235,0.045258,0.967068
2011-09-26T13:16:05.008430,9000,0.589329,0.336688,-0.021318,0.032878,0.043516,0.965807
2011-09-26T13:16:05.018430,9010,0.659165,0.278475,-0.032346,0.032521,0.041773,0.964546
2011-09-26T13:16:05.028430,9020,0.605769,0.226032,-0.002577,0.033220,0.042924,0.969444
2011-09-26T13:16:05.038430,9030,0.547992,0.173794,0.028642,0.033956,0.044178,0.974560
2011-09-26T13:16:05.048430,9040,0.490215,0.121556,0.059862,0.034692,0.045431,0.979677
2011-09-26T13:16:05.058430,9050,0.432438,0.069318,0.091081,0.035428,0.046685,0.984793
2011-09-26T13:16:05.068430,9060,0.374661,0.017080,0.122300,0.036164,0.047939,0.989910
2011-09-26T13:16:05.078430,9070,0.316884,-0.035157,0.153520,0.036901,0.049192,0.995026
2011-09-26T13:16:05.088430,9080,0.259107,-0.087395,0.184739,0.037637,0.050446,1.000143
2011-09-26T13:16:05.098430,9090,0.201330,-0.139633,0.215958,0.038373,0.051700,1.005259
2011-09-26T13:16:05.108430,9100,0.143553,-0.191871,0.247178,0.039109,0.052953,1.010376
2011-09-26T13:16:05.118430,9110,0.085777,-0.244109,0.278397,0.039845,0.054207,1.015492
2011-09-26T13:16:05.128430,9120,0.028801,-0.288156,0.277925,0.039246,0.054057,1.007906
2011-09-26T13:16:05.138430,9130,-0.028141,-0.331863,0.276132,0.038592,0.053848,0.999791
2011-09-26T13:16:05.148430,9140,-0.085083,-0.375569,0.274339,0.037937,0.053639,0.991676
2011-09-26T13:16:05.158430,9150,-0.142025,-0.419275,0.272545,0.037282,0.053431,0.983560
2011-09-26T13:16:05.168430,9160,-0.198967,-0.462982,0.270752,0.036628,0.053222,0.975445
2011-09-26T13:16:05.178430,9170,-0.255909,-0.506688,0.268959,0.035973,0.053013,0.967329
2011-09-26T13:16:05.188430,9180,-0.312851,-0.550394,0.267166,0.035319,0.052804,0.959214
2011-09-26T13:16:05.198430,9190,-0.369793,-0.594101,0.265373,0.034664,0.052596,0.951099
2011-09-26T13:16:05.208430,9200,-0.426736,-0.637807,0.263580,0.034009,0.052387,0.942983
2011-09-26T13:16:05.218430,9210,-0.483678,-0.681513,0.261787,0.033355,0.052178,0.934868
2011-09-26T13:16:05.228430,9220,-0.540620,-0.725220,0.259994,0.032700,0.051970,0.926752
2011-09-26T13:16:05.238430,9230,-0.432375,-0.686106,0.247239,0.034036,0.053104,0.935938
2011-09-26T13:16:05.248430,9240,-0.313903,-0.641866,0.233805,0.035495,0.054322,0.946196
2011-09-26T13:16:05.258430,9250,-0.195431,-0.597625,0.220371,0.036954,0.055539,0.956453
2011-09-26T13:16:05.268430,9260,-0.076959,-0.553384,0.206937,0.038413,0.056757,0.966710
2011-09-26T13:16:05.278430,9270,0.041513,-0.509144,0.193503,0.039872,0.057975,0.976967
2011-09-26T13:16:05.288430,9280,0.159985,-0.464903,0.180069,0.041331,0.059192,0.987224
2011-09-26T13:16:05.298430,9290,0.278457,-0.420662,0.166636,0.042790,0.060410,0.997481
2011-09-26T13:16:05.308430,9300,0.396929,-0.376422,0.153202,0.044249,0.061628,1.007739
2011-09-26T13:16:05.318430,9310,0.515401,-0.332181,0.139768,0.045708,0.062845,1.017996
2011-09-26T13:16:05.328430,9320,0.633873,-0.287940,0.126334,0.047167,0.064063,1.028253
2011-09-26T13:16:05.338430,9330,0.617694,-0.250303,0.138776,0.046068,0.063253,1.027746
2011-09-26T13:16:05.348430,9340,0.596094,-0.212932,0.152259,0.044865,0.062360,1.026806
2011-09-26T13:16:05.358430,9350,0.574494,-0.175561,0.165742,0.043663,0.061468,1.025866
2011-09-26T13:16:05.368430,9360,0.552894,-0.138190,0.179225,0.042460,0.060576,1.024926
2011-09-26T13:16:05.378430,9370,0.531295,-0.100819,0.192709,0.041258,0.059684,1.023986
2011-09-26T13:16:05.388430,9380,0.509695,-0.063448,0.206192,0.040055,0.058792,1.023046
2011-09-26T13:16:05.398430,9390,0.488095,-0.026077,0.219675,0.038853,0.057900,1.022106
2011-09-26T13:16:05.408430,9400,0.466496,0.011294,0.233158,0.037650,0.057008,1.021166
2011-09-26T13:16:05.418430,9410,0.444896,0.048665,0.246641,0.036448,0.056116,1.020225
2011-09-26T13:16:05.428430,9420,0.423296,0.086036,0.260125,0.035246,0.055224,1.019285
2011-09-26T13:16:05.438430,9430,0.401696,0.123407,0.273608,0.034043,0.054332,1.018345
2011-09-26T13:16:05.448430,9440,0.486273,0.079349,0.285788,0.033137,0.051922,1.014814
2011-09-26T13:16:05.458430,9450,0.575504,0.031722,0.297910,0.032244,0.049445,1.011169
2011-09-26T13:16:05.468430,9460,0.664734,-0.015906,0.310033,0.031351,0.046969,1.007524
2011-09-26T13:16:05.478430,9470,0.753965,-0.063533,0.322156,0.030458,0.044493,1.003879
2011-09-26T13:16:05.488430,9480,0.843196,-0.111160,0.334278,0.029565,0.042016,1.000234
2011-09-26T13:16:05.498430,9490,0.932426,-0.158787,0.346401,0.028672,0.039540,0.996588
2011-09-26T13:16:05.508430,9500,1.021657,-0.206415,0.358524,0.027779,0.037064,0.992943
2011-09-26T13:16:05.518430,9510,1.110887,-0.254042,0.370646,0.026886,0.034588,0.989298
2011-09-26T13:16:05.528430,9520,1.200118,-0.301669,0.382769,0.025993,0.032111,0.985653
2011-09-26T13:16:05.538430,9530,1.289349,-0.349296,0.394892,0.025100,0.029635,0.982008
2011-09-26T13:16:05.548430,9540,1.339821,-0.502846,0.411792,0.025449,0.031179,0.981481
2011-09-26T13:16:05.558430,9550,1.388649,-0.660890,0.428894,0.025851,0.032894,0.981087
2011-09-26T13:16:05.568430,9560,1.437476,-0.818934,0.445997,0.026253,0.034609,0.980693
2011-09-26T13:16:05.578430,9570,1.486304,-0.976977,0.463100,0.026655,0.036323,0.980298
2011-09-26T13:16:05.588430,9580,1.535132,-1.135021,0.480202,0.027057,0.038038,0.979904
2011-09-26T13:16:05.598430,9590,1.583960,-1.293065,0.497305,0.027459,0.039753,0.979509
2011-09-26T13:16:05.608430,9600,1.632788,-1.451109,0.514408,0.027861,0.041468,0.979115
2011-09-26T13:16:05.618430,9610,1.681616,-1.609152,0.531511,0.028263,0.043183,0.978720
2011-09-26T13:16:05.628430,9620,1.657848,-1.548405,0.534178,0.029904,0.046109,0.980497
2011-09-26T13:16:05.638430,9630,1.631417,-1.479627,0.536315,0.031590,0.049079,0.982353
2011-09-26T13:16:05.648430,9640,1.604985,-1.410850,0.538453,0.033276,0.052049,0.984209
2011-09-26T13:16:05.658430,9650,1.578554,-1.342072,0.540590,0.034962,0.055020,0.986065
2011-09-26T13:16:05.668430,9660,1.552122,-1.273295,0.542727,0.036648,0.057990,0.987921
2011-09-26T13:16:05.678430,9670,1.525691,-1.204518,0.544865,0.038334,0.060961,0.989778
2011-09-26T13:16:05.688430,9680,1.499259,-1.135740,0.547002,0.040020,0.063931,0.991634
2011-09-26T13:16:05.698430,9690,1.472828,-1.066963,0.549139,0.041706,0.066901,0.993490
2011-09-26T13:16:05.708430,9700,1.446396,-0.998186,0.551277,0.043392,0.069872,0.995346
2011-09-26T13:16:05.718430,9710,1.419965,-0.929408,0.553414,0.045078,0.072842,0.997202
2011-09-26T13:16:05.728430,9720,1.393533,-0.860631,0.555552,0.046764,0.075813,0.999058
2011-09-26T13:16:05.738430,9730,1.367102,-0.791854,0.557689,0.048450,0.078783,1.000914
2011-09-26T13:16:05.748430,9740,1.340671,-0.723076,0.559826,0.050136,0.081753,1.002770
2011-09-26T13:16:05.758430,9750,1.294737,-0.575274,0.567066,0.050033,0.079938,1.006270
2011-09-26T13:16:05.768430,9760,1.247915,-0.423869,0.574538,0.049848,0.077905,1.009844
2011-09-26T13:16:05.778430,9770,1.201093,-0.272464,0.582010,0.049663,0.075872,1.013418
2011-09-26T13:16:05.788430,9780,1.154271,-0.121059,0.589482,0.049478,0.073839,1.016992
2011-09-26T13:16:05.798430,9790,1.107449,0.030346,0.596954,0.049293,0.071806,1.020567
2011-09-26T13:16:05.808430,9800,1.060626,0.181751,0.604426,0.049108,0.069773,1.024141
2011-09-26T13:16:05.818430,9810,1.013804,0.333156,0.611898,0.048923,0.067740,1.027715
2011-09-26T13:16:05.828430,9820,0.966982,0.484561,0.619369,0.048738,0.065707,1.031289
2011-09-26T13:16:05.838430,9830,0.920160,0.635966,0.626841,0.048553,0.063674,1.034864
2011-09-26T13:16:05.848430,9840,0.873337,0.787371,0.634313,0.048368,0.061641,1.038438
2011-09-26T13:16:05.858430,9850,0.814577,0.968534,0.651764,0.047680,0.062628,1.036491
2011-09-26T13:16:05.868430,9860,0.755268,1.151063,0.669673,0.046970,0.063753,1.034291
2011-09-26T13:16:05.878430,9870,0.695959,1.333592,0.687582,0.046260,0.064879,1.032091
2011-09-26T13:16:05.888430,9880,0.636650,1.516122,0.705491,0.045549,0.066004,1.029891
2011-09-26T13:16:05.898430,9890,0.577341,1.698651,0.723400,0.044839,0.067129,1.027691
2011-09-26T13:16:05.908430,9900,0.518033,1.881181,0.741309,0.044128,0.068255,1.025491
2011-09-26T13:16:05.918430,9910,0.458724,2.063710,0.759219,0.043418,0.069380,1.023291
2011-09-26T13:16:05.928430,9920,0.399415,2.246240,0.777128,0.042708,0.070506,1.021090
2011-09-26T13:16:05.938430,9930,0.340106,2.428769,0.795037,0.041997,0.071631,1.018890
2011-09-26T13:16:05.948430,9940,0.280797,2.611298,0.812946,0.041287,0.072757,1.016690
2011-09-26T13:16:05.958430,9950,0.293693,2.519689,0.790467,0.039166,0.074267,1.008682
2011-09-26T13:16:05.968430,9960,0.309659,2.416421,0.766271,0.036985,0.075793,1.000426
2011-09-26T13:16:05.978430,9970,0.325626,2.313152,0.742075,0.034804,0.077320,0.992171
2011-09-26T13:16:05.988430,9980,0.341593,2.209884,0.717878,0.032623,0.078846,0.983916
2011-09-26T13:16:05.998430,9990,0.357559,2.106616,0.693682,0.030442,0.080373,0.975660
2011-09-26T13:16:06.008430,10000,0.373526,2.003347,0.669486,0.028260,0.081899,0.967405
2011-09-26T13:16:06.018430,10010,0.389492,1.900079,0.645290,0.026079,0.083426,0.959149
2011-09-26T13:16:06.028430,10020,0.405459,1.796810,0.621093,0.023898,0.084952,0.950894
2011-09-26T13:16:06.038430,10030,0.421426,1.693542,0.596897,0.021717,0.086478,0.942639
2011-09-26T13:16:06.048430,10040,0.437392,1.590273,0.572701,0.019536,0.088005,0.934383
2011-09-26T13:16:06.058430,10050,0.453359,1.487005,0.548505,0.017355,0.089531,0.926128
2011-09-26T13:16:06.068430,10060,0.348017,1.372493,0.553891,0.018130,0.086984,0.928927
2011-09-26T13:16:06.078430,10070,0.236759,1.257432,0.560721,0.019049,0.084238,0.932266
2011-09-26T13:16:06.088430,10080,0.125501,1.142372,0.567550,0.019968,0.081492,0.935605
2011-09-26T13:16:06.098430,10090,0.014242,1.027311,0.574379,0.020887,0.078746,0.938944
2011-09-26T13:16:06.108430,10100,-0.097016,0.912251,0.581209,0.021806,0.076000,0.942283
2011-09-26T13:16:06.118430,10110,-0.208274,0.797190,0.588038,0.022724,0.073254,0.945621
2011-09-26T13:16:06.128430,10120,-0.319533,0.682130,0.594868,0.023643,0.070508,0.948960
2011-09-26T13:16:06.138430,10130,-0.430791,0.567069,0.601697,0.024562,0.067762,0.952299
2011-09-26T13:16:06.148430,10140,-0.542050,0.452009,0.608527,0.025481,0.065016,0.955638
2011-09-26T13:16:06.158430,10150,-0.653308,0.336948,0.615356,0.026400,0.062270,0.958977
2011-09-26T13:16:06.168430,10160,-0.666971,0.242872,0.620512,0.026578,0.063131,0.962569
2011-09-26T13:16:06.178430,10170,-0.676162,0.149758,0.625590,0.026723,0.064157,0.966174
2011-09-26T13:16:06.188430,10180,-0.685352,0.056644,0.630669,0.026867,0.065184,0.969778
2011-09-26T13:16:06.198430,10190,-0.694543,-0.036470,0.635748,0.027011,0.066210,0.973382
2011-09-26T13:16:06.208430,10200,-0.703734,-0.129585,0.640827,0.027156,0.067236,0.976986
2011-09-26T13:16:06.218430,10210,-0.712924,-0.222699,0.645905,0.027300,0.068263,0.980590
2011-09-26T13:16:06.228430,10220,-0.722115,-0.315813,0.650984,0.027444,0.069289,0.984195
2011-09-26T13:16:06.238430,10230,-0.731305,-0.408928,0.656063,0.027589,0.070316,0.987799
2011-09-26T13:16:06.248430,10240,-0.740496,-0.502042,0.661141,0.027733,0.071342,0.991403
2011-09-26T13:16:06.258430,10250,-0.749686,-0.595156,0.666220,0.027877,0.072368,0.995007
2011-09-26T13:16:06.268430,10260,-0.788149,-0.589542,0.674640,0.028105,0.072319,0.997412
2011-09-26T13:16:06.278430,10270,-0.828454,-0.577715,0.683270,0.028339,0.072202,0.999742
2011-09-26T13:16:06.288430,10280,-0.868759,-0.565889,0.691900,0.028572,0.072085,1.002071
2011-09-26T13:16:06.298430,10290,-0.909064,-0.554062,0.700530,0.028805,0.071968,1.004401
2011-09-26T13:16:06.308430,10300,-0.949369,-0.542235,0.709160,0.029038,0.071851,1.006730
2011-09-26T13:16:06.318430,10310,-0.989674,-0.530408,0.717790,0.029272,0.071734,1.009060
2011-09-26T13:16:06.328430,10320,-1.029979,-0.518581,0.726420,0.029505,0.071616,1.011390
2011-09-26T13:16:06.338430,10330,-1.070284,-0.506755,0.735051,0.029738,0.071499,1.013719
2011-09-26T13:16:06.348430,10340,-1.110588,-0.494928,0.743681,0.029972,0.071382,1.016049
2011-09-26T13:16:06.358430,10350,-1.150893,-0.483101,0.752311,0.030205,0.071265,1.018378
2011-09-26T13:16:06.368430,10360,-1.191198,-0.471274,0.760941,0.030438,0.071148,1.020708
2011-09-26T13:16:06.378430,10370,-1.143610,-0.394166,0.756513,0.030286,0.070007,1.019336
2011-09-26T13:16:06.388430,10380,-1.091803,-0.313925,0.751458,0.030115,0.068817,1.017786
2011-09-26T13:16:06.398430,10390,-1.039996,-0.233683,0.746404,0.029945,0.067627,1.016236
2011-09-26T13:16:06.408430,10400,-0.988189,-0.153442,0.741349,0.029774,0.066437,1.014686
2011-09-26T13:16:06.418430,10410,-0.936382,-0.073200,0.736294,0.029604,0.065247,1.013136
2011-09-26T13:16:06.428430,10420,-0.884575,0.007041,0.731239,0.029433,0.064057,1.011586
2011-09-26T13:16:06.438430,10430,-0.832767,0.087283,0.726185,0.029263,0.062867,1.010036
2011-09-26T13:16:06.448430,10440,-0.780960,0.167524,0.721130,0.029092,0.061677,1.008486
2011-09-26T13:16:06.458430,10450,-0.729153,0.247766,0.716075,0.028921,0.060487,1.006936
2011-09-26T13:16:06.468430,10460,-0.677346,0.328007,0.711021,0.028751,0.059296,1.005386
2011-09-26T13:16:06.478430,10470,-0.638121,0.360592,0.710677,0.027501,0.060613,1.006222
2011-09-26T13:16:06.488430,10480,-0.599488,0.390936,0.710556,0.026200,0.062047,1.007171
2011-09-26T13:16:06.498430,10490,-0.560855,0.421280,0.710434,0.024899,0.063481,1.008119
2011-09-26T13:16:06.508430,10500,-0.522222,0.451625,0.710312,0.023598,0.064915,1.009067
2011-09-26T13:16:06.518430,10510,-0.483589,0.481969,0.710190,0.022297,0.066349,1.010016
2011-09-26T13:16:06.528430,10520,-0.444955,0.512313,0.710069,0.020996,0.067783,1.010964
2011-09-26T13:16:06.538430,10530,-0.406322,0.542658,0.709947,0.019695,0.069218,1.011912
2011-09-26T13:16:06.548430,10540,-0.367689,0.573002,0.709825,0.018394,0.070652,1.012861
2011-09-26T13:16:06.558430,10550,-0.329056,0.603346,0.709703,0.017093,0.072086,1.013809
2011-09-26T13:16:06.568430,10560,-0.290423,0.633690,0.709582,0.015793,0.073520,1.014758
2011-09-26T13:16:06.578430,10570,-0.251789,0.664035,0.709460,0.014492,0.074954,1.015706
2011-09-26T13:16:06.588430,10580,-0.378969,0.685060,0.707335,0.013611,0.075947,1.012689
2011-09-26T13:16:06.598430,10590,-0.514072,0.705640,0.705114,0.012750,0.076919,1.009482
2011-09-26T13:16:06.608430,10600,-0.649175,0.726220,0.702894,0.011890,0.077890,1.006275
2011-09-26T13:16:06.618430,10610,-0.784277,0.746800,0.700673,0.011029,0.078862,1.003068
2011-09-26T13:16:06.628430,10620,-0.919380,0.767379,0.698453,0.010168,0.079834,0.999861
2011-09-26T13:16:06.638430,10630,-1.054483,0.787959,0.696232,0.009307,0.080806,0.996654
2011-09-26T13:16:06.648430,10640,-1.189586,0.808539,0.694012,0.008447,0.081777,0.993447
2011-09-26T13:16:06.658430,10650,-1.324689,0.829119,0.691791,0.007586,0.082749,0.990240
2011-09-26T13:16:06.668430,10660,-1.459792,0.849699,0.689570,0.006725,0.083721,0.987034
2011-09-26T13:16:06.678430,10670,-1.594895,0.870279,0.687350,0.005865,0.084693,0.983827
2011-09-26T13:16:06.688430,10680,-1.527352,0.791279,0.693731,0.005078,0.080225,0.983169
2011-09-26T13:16:06.698430,10690,-1.450371,0.707640,0.700514,0.004295,0.075503,0.982630
2011-09-26T13:16:06.708430,10700,-1.373390,0.624001,0.707296,0.003512,0.070782,0.982091
2011-09-26T13:16:06.718430,10710,-1.296408,0.540362,0.714078,0.002729,0.066060,0.981552
2011-09-26T13:16:06.728430,10720,-1.219427,0.456724,0.720861,0.001945,0.061339,0.981013
2011-09-26T13:16:06.738430,10730,-1.142445,0.373085,0.727643,0.001162,0.056617,0.980474
2011-09-26T13:16:06.748430,10740,-1.065464,0.289446,0.734425,0.000379,0.051896,0.979935
2011-09-26T13:16:06.758430,10750,-0.988483,0.205808,0.741208,-0.000404,0.047174,0.979396
2011-09-26T13:16:06.768430,10760,-0.911501,0.122169,0.747990,-0.001187,0.042453,0.978856
2011-09-26T13:16:06.778430,10770,-0.834520,0.038530,0.754772,-0.001970,0.037731,0.978317
2011-09-26T13:16:06.788430,10780,-0.780436,-0.001138,0.767337,-0.001620,0.039173,0.981377
2011-09-26T13:16:06.798430,10790,-0.727590,-0.038427,0.780216,-0.001208,0.040948,0.984632
2011-09-26T13:16:06.808430,10800,-0.674744,-0.075716,0.793094,-0.000796,0.042723,0.987886
2011-09-26T13:16:06.818430,10810,-0.621898,-0.113006,0.805972,-0.000384,0.044497,0.991141
2011-09-26T13:16:06.828430,10820,-0.569053,-0.150295,0.818850,0.000028,0.046272,0.994396
2011-09-26T13:16:06.838430,10830,-0.516207,-0.187584,0.831728,0.000440,0.048047,0.997650
2011-09-26T13:16:06.848430,10840,-0.463361,-0.224873,0.844606,0.000852,0.049822,1.000905
2011-09-26T13:16:06.858430,10850,-0.410516,-0.262163,0.857484,0.001264,0.051597,1.004159
2011-09-26T13:16:06.868430,10860,-0.357670,-0.299452,0.870362,0.001676,0.053372,1.007414
2011-09-26T13:16:06.878430,10870,-0.304824,-0.336741,0.883240,0.002088,0.055147,1.010668
2011-09-26T13:16:06.888430,10880,-0.251979,-0.374031,0.896118,0.002500,0.056921,1.013923
2011-09-26T13:16:06.898430,10890,-0.197508,-0.384044,0.878068,0.002782,0.056401,1.013008
2011-09-26T13:16:06.908430,10900,-0.142960,-0.392755,0.858540,0.003057,0.055771,1.011894
2011-09-26T13:16:06.918430,10910,-0.088411,-0.401466,0.839013,0.003333,0.055141,1.010779
2011-09-26T13:16:06.928430,10920,-0.033863,-0.410176,0.819485,0.003609,0.054510,1.009665
2011-09-26T13:16:06.938430,10930,0.020685,-0.418887,0.799957,0.003884,0.053880,1.008551
2011-09-26T13:16:06.948430,10940,0.075234,-0.427597,0.780429,0.004160,0.053250,1.007437
2011-09-26T13:16:06.958430,10950,0.129782,-0.436308,0.760902,0.004436,0.052620,1.006322
2011-09-26T13:16:06.968430,10960,0.184330,-0.445018,0.741374,0.004711,0.051990,1.005208
2011-09-26T13:16:06.978430,10970,0.238878,-0.453729,0.721846,0.004987,0.051360,1.004094
2011-09-26T13:16:06.988430,10980,0.293427,-0.462439,0.702318,0.005263,0.050730,1.002979
2011-09-26T13:16:06.998430,10990,0.302902,-0.416881,0.700331,0.004860,0.051969,1.002877
2011-09-26T13:16:07.008430,11000,0.310352,-0.368885,0.699132,0.004426,0.053292,1.002820
2011-09-26T13:16:07.018430,11010,0.317803,-0.320889,0.697933,0.003992,0.054615,1.002762
2011-09-26T13:16:07.028430,11020,0.325253,-0.272892,0.696734,0.003559,0.055938,1.002705
2011-09-26T13:16:07.038430,11030,0.332703,-0.224896,0.695536,0.003125,0.057261,1.002648
2011-09-26T13:16:07.048430,11040,0.340154,-0.176900,0.694337,0.002692,0.058584,1.002591
2011-09-26T13:16:07.058430,11050,0.347604,-0.128903,0.693138,0.002258,0.059907,1.002534
2011-09-26T13:16:07.068430,11060,0.355054,-0.080907,0.691939,0.001825,0.061231,1.002476
2011-09-26T13:16:07.078430,11070,0.362505,-0.032911,0.690740,0.001391,0.062554,1.002419
2011-09-26T13:16:07.088430,11080,0.369955,0.015085,0.689541,0.000958,0.063877,1.002362
2011-09-26T13:16:07.098430,11090,0.338463,0.049283,0.690478,0.000324,0.064328,1.001556
2011-09-26T13:16:07.108430,11100,0.304878,0.082738,0.691530,-0.000320,0.064732,1.000710
2011-09-26T13:16:07.118430,11110,0.271294,0.116194,0.692581,-0.000964,0.065135,0.999864
2011-09-26T13:16:07.128430,11120,0.237709,0.149650,0.693633,-0.001608,0.065539,0.999018
2011-09-26T13:16:07.138430,11130,0.204125,0.183105,0.694685,-0.002252,0.065943,0.998172
2011-09-26T13:16:07.148430,11140,0.170540,0.216561,0.695737,-0.002896,0.066347,0.997326
2011-09-26T13:16:07.158430,11150,0.136955,0.250017,0.696788,-0.003541,0.066751,0.996480
2011-09-26T13:16:07.168430,11160,0.103371,0.283472,0.697840,-0.004185,0.067155,0.995634
2011-09-26T13:16:07.178430,11170,0.069786,0.316928,0.698892,-0.004829,0.067559,0.994788
2011-09-26T13:16:07.188430,11180,0.036202,0.350384,0.699943,-0.005473,0.067963,0.993942
2011-09-26T13:16:07.198430,11190,0.002617,0.383839,0.700995,-0.006117,0.068367,0.993096
2011-09-26T13:16:07.208430,11200,-0.019654,0.372253,0.687383,-0.007147,0.067413,0.993451
2011-09-26T13:16:07.218430,11210,-0.041180,0.357699,0.672804,-0.008203,0.066371,0.993885
2011-09-26T13:16:07.228430,11220,-0.062706,0.343145,0.658225,-0.009258,0.065328,0.994319
2011-09-26T13:16:07.238430,11230,-0.084232,0.328591,0.643647,-0.010314,0.064285,0.994753
2011-09-26T13:16:07.248430,11240,-0.105758,0.314037,0.629068,-0.011369,0.063242,0.995187
2011-09-26T13:16:07.258430,11250,-0.127284,0.299483,0.614489,-0.012425,0.062199,0.995621
2011-09-26T13:16:07.268430,11260,-0.148810,0.284928,0.599911,-0.013480,0.061157,0.996055
2011-09-26T13:16:07.278430,11270,-0.170336,0.270374,0.585332,-0.014536,0.060114,0.996489
2011-09-26T13:16:07.288430,11280,-0.191861,0.255820,0.570753,-0.015592,0.059071,0.996923
2011-09-26T13:16:07.298430,11290,-0.213387,0.241266,0.556175,-0.016647,0.058028,0.997357
2011-09-26T13:16:07.308430,11300,-0.248727,0.230341,0.548054,-0.016732,0.057729,0.996669
2011-09-26T13:16:07.318430,11310,-0.284816,0.219613,0.540284,-0.016763,0.057470,0.995921
2011-09-26T13:16:07.328430,11320,-0.320906,0.208885,0.532515,-0.016795,0.057211,0.995172
2011-09-26T13:16:07.338430,11330,-0.356995,0.198157,0.524745,-0.016827,0.056952,0.994424
2011-09-26T13:16:07.348430,11340,-0.393085,0.187429,0.516975,-0.016859,0.056693,0.993676
2011-09-26T13:16:07.358430,11350,-0.429174,0.176701,0.509205,-0.016890,0.056433,0.992927
2011-09-26T13:16:07.368430,11360,-0.465264,0.165973,0.501435,-0.016922,0.056174,0.992179
2011-09-26T13:16:07.378430,11370,-0.501354,0.155245,0.493666,-0.016954,0.055915,0.991431
2011-09-26T13:16:07.388430,11380,-0.537443,0.144517,0.485896,-0.016985,0.055656,0.990682
2011-09-26T13:16:07.398430,11390,-0.573533,0.133789,0.478126,-0.017017,0.055397,0.989934
2011-09-26T13:16:07.408430,11400,-0.609622,0.123061,0.470356,-0.017049,0.055138,0.989186
2011-09-26T13:16:07.418430,11410,-0.693459,0.127172,0.452955,-0.016697,0.056519,0.989979
2011-09-26T13:16:07.428430,11420,-0.779815,0.132066,0.435047,-0.016325,0.057986,0.990855
2011-09-26T13:16:07.438430,11430,-0.866170,0.136960,0.417138,-0.015953,0.059454,0.991730
2011-09-26T13:16:07.448430,11440,-0.952525,0.141853,0.399230,-0.015581,0.060921,0.992605
2011-09-26T13:16:07.458430,11450,-1.038881,0.146747,0.381321,-0.015209,0.062388,0.993480
2011-09-26T13:16:07.468430,11460,-1.125236,0.151641,0.363412,-0.014837,0.063856,0.994355
2011-09-26T13:16:07.478430,11470,-1.211591,0.156534,0.345504,-0.014465,0.065323,0.995230
2011-09-26T13:16:07.488430,11480,-1.297946,0.161428,0.327595,-0.014093,0.066790,0.996105
2011-09-26T13:16:07.498430,11490,-1.384302,0.166322,0.309687,-0.013721,0.068258,0.996981
2011-09-26T13:16:07.508430,11500,-1.470657,0.171216,0.291778,-0.013349,0.069725,0.997856
2011-09-26T13:16:07.518430,11510,-1.535965,0.247183,0.267944,-0.013288,0.069249,0.998574
2011-09-26T13:16:07.528430,11520,-1.600228,0.326680,0.243817,-0.013243,0.068677,0.999285
2011-09-26T13:16:07.538430,11530,-1.664491,0.406177,0.219689,-0.013198,0.068105,0.999996
2011-09-26T13:16:07.548430,11540,-1.728754,0.485674,0.195561,-0.013153,0.067533,1.000707
2011-09-26T13:16:07.558430,11550,-1.793017,0.565172,0.171433,-0.013107,0.066960,1.001418
2011-09-26T13:16:07.568430,11560,-1.857280,0.644669,0.147306,-0.013062,0.066388,1.002129
2011-09-26T13:16:07.578430,11570,-1.921543,0.724166,0.123178,-0.013017,0.065816,1.002840
2011-09-26T13:16:07.588430,11580,-1.985805,0.803663,0.099050,-0.012971,0.065244,1.003551
2011-09-26T13:16:07.598430,11590,-2.050068,0.883160,0.074922,-0.012926,0.064671,1.004262
2011-09-26T13:16:07.608430,11600,-2.114331,0.962657,0.050795,-0.012881,0.064099,1.004973
2011-09-26T13:16:07.618430,11610,-2.138191,0.994592,0.007305,-0.012697,0.060932,1.003753
2011-09-26T13:16:07.628430,11620,-2.159783,1.023858,-0.037270,-0.012505,0.057618,1.002424
2011-09-26T13:16:07.638430,11630,-2.181376,1.053124,-0.081846,-0.012313,0.054305,1.001096
2011-09-26T13:16:07.648430,11640,-2.202969,1.082391,-0.126421,-0.012121,0.050992,0.999767
2011-09-26T13:16:07.658430,11650,-2.224562,1.111657,-0.170997,-0.011929,0.047678,0.998438
2011-09-26T13:16:07.668430,11660,-2.246154,1.140923,-0.215572,-0.011737,0.044365,0.997110
2011-09-26T13:16:07.678430,11670,-2.267747,1.170189,-0.260148,-0.011545,0.041052,0.995781
2011-09-26T13:16:07.688430,11680,-2.289340,1.199455,-0.304723,-0.011353,0.037738,0.994452
2011-09-26T13:16:07.698430,11690,-2.310932,1.228722,-0.349299,-0.011161,0.034425,0.993124
2011-09-26T13:16:07.708430,11700,-2.332525,1.257988,-0.393874,-0.010969,0.031112,0.991795
2011-09-26T13:16:07.718430,11710,-2.266784,1.248488,-0.431819,-0.011125,0.029335,0.990944
2011-09-26T13:16:07.728430,11720,-2.194961,1.236289,-0.469303,-0.011304,0.027665,0.990127
2011-09-26T13:16:07.738430,11730,-2.123137,1.224089,-0.506786,-0.011484,0.025995,0.989310
2011-09-26T13:16:07.748430,11740,-2.051314,1.211890,-0.544270,-0.011663,0.024325,0.988492
2011-09-26T13:16:07.758430,11750,-1.979491,1.199690,-0.581754,-0.011843,0.022655,0.987675
2011-09-26T13:16:07.768430,11760,-1.907667,1.187491,-0.619237,-0.012022,0.020985,0.986858
2011-09-26T13:16:07.778430,11770,-1.835844,1.175291,-0.656721,-0.012202,0.019316,0.986040
2011-09-26T13:16:07.788430,11780,-1.764020,1.163092,-0.694204,-0.012382,0.017646,0.985223
2011-09-26T13:16:07.798430,11790,-1.692197,1.150892,-0.731688,-0.012561,0.015976,0.984406
2011-09-26T13:16:07.808430,11800,-1.620374,1.138693,-0.769171,-0.012741,0.014306,0.983589
2011-09-26T13:16:07.818430,11810,-1.548550,1.126493,-0.806655,-0.012920,0.012636,0.982771
2011-09-26T13:16:07.828430,11820,-1.411354,1.088770,-0.832932,-0.012960,0.010846,0.982293
2011-09-26T13:16:07.838430,11830,-1.270998,1.049812,-0.858667,-0.012992,0.009049,0.981832
2011-09-26T13:16:07.848430,11840,-1.130642,1.010854,-0.884402,-0.013025,0.007253,0.981371
2011-09-26T13:16:07.858430,11850,-0.990285,0.971897,-0.910137,-0.013057,0.005456,0.980909
2011-09-26T13:16:07.868430,11860,-0.849929,0.932939,-0.935872,-0.013090,0.003660,0.980448
2011-09-26T13:16:07.878430,11870,-0.709572,0.893982,-0.961607,-0.013122,0.001863,0.979986
2011-09-26T13:16:07.888430,11880,-0.569216,0.855024,-0.987342,-0.013155,0.000067,0.979525
2011-09-26T13:16:07.898430,11890,-0.428859,0.816066,-1.013077,-0.013187,-0.001730,0.979063
2011-09-26T13:16:07.908430,11900,-0.288503,0.777109,-1.038812,-0.013220,-0.003526,0.978602
2011-09-26T13:16:07.918430,11910,-0.148146,0.738151,-1.064547,-0.013252,-0.005323,0.978141
2011-09-26T13:16:07.928430,11920,-0.107916,0.701330,-1.059244,-0.013777,-0.003924,0.978511
2011-09-26T13:16:07.938430,11930,-0.072958,0.664621,-1.052306,-0.014327,-0.002356,0.978925
2011-09-26T13:16:07.948430,11940,-0.038001,0.627912,-1.045369,-0.014878,-0.000789,0.979338
2011-09-26T13:16:07.958430,11950,-0.003043,0.591204,-1.038432,-0.015428,0.000779,0.979752
2011-09-26T13:16:07.968430,11960,0.031915,0.554495,-1.031494,-0.015978,0.002346,0.980166
2011-09-26T13:16:07.978430,11970,0.066873,0.517787,-1.024557,-0.016529,0.003914,0.980580
2011-09-26T13:16:07.988430,11980,0.101831,0.481078,-1.017620,-0.017079,0.005481,0.980994
2011-09-26T13:16:07.998430,11990,0.136788,0.444369,-1.010682,-0.017630,0.007048,0.981408
2011-09-26T13:16:08.008430,12000,0.171746,0.407661,-1.003745,-0.018180,0.008616,0.981822
2011-09-26T13:16:08.018430,12010,0.206704,0.370952,-0.996808,-0.018731,0.010183,0.982236
2011-09-26T13:16:08.028430,12020,0.241662,0.334243,-0.989870,-0.019281,0.011751,0.982649
2011-09-26T13:16:08.038430,12030,0.290932,0.229664,-0.982701,-0.019414,0.011563,0.983480
2011-09-26T13:16:08.048430,12040,0.340897,0.121789,-0.975521,-0.019527,0.011289,0.984332
2011-09-26T13:16:08.058430,12050,0.390862,0.013915,-0.968341,-0.019640,0.011015,0.985183
2011-09-26T13:16:08.068430,12060,0.440828,-0.093960,-0.961161,-0.019753,0.010742,0.986034
2011-09-26T13:16:08.078430,12070,0.490793,-0.201835,-0.953981,-0.019866,0.010468,0.986885
2011-09-26T13:16:08.088430,12080,0.540758,-0.309710,-0.946801,-0.019979,0.010195,0.987736
2011-09-26T13:16:08.098430,12090,0.590723,-0.417585,-0.939621,-0.020092,0.009921,0.988588
2011-09-26T13:16:08.108430,12100,0.640689,-0.525460,-0.932441,-0.020205,0.009647,0.989439
2011-09-26T13:16:08.118430,12110,0.690654,-0.633335,-0.925261,-0.020318,0.009374,0.990290
2011-09-26T13:16:08.128430,12120,0.740619,-0.741210,-0.918081,-0.020431,0.009100,0.991141
2011-09-26T13:16:08.138430,12130,0.690940,-0.805812,-0.882276,-0.019824,0.010405,0.991547
2011-09-26T13:16:08.148430,12140,0.636478,-0.868338,-0.845098,-0.019182,0.011785,0.991931
2011-09-26T13:16:08.158430,12150,0.582016,-0.930863,-0.807920,-0.018539,0.013165,0.992315
2011-09-26T13:16:08.168430,12160,0.527554,-0.993388,-0.770742,-0.017897,0.014545,0.992700
2011-09-26T13:16:08.178430,12170,0.473093,-1.055914,-0.733564,-0.017255,0.015925,0.993084
2011-09-26T13:16:08.188430,12180,0.418631,-1.118439,-0.696386,-0.016613,0.017305,0.993468
2011-09-26T13:16:08.198430,12190,0.364169,-1.180965,-0.659208,-0.015970,0.018685,0.993852
2011-09-26T13:16:08.208430,12200,0.309707,-1.243490,-0.622030,-0.015328,0.020065,0.994237
2011-09-26T13:16:08.218430,12210,0.255245,-1.306016,-0.584852,-0.014686,0.021445,0.994621
2011-09-26T13:16:08.228430,12220,0.200783,-1.368541,-0.547674,-0.014044,0.022825,0.995005
2011-09-26T13:16:08.238430,12230,0.211470,-1.376611,-0.546215,-0.012510,0.024219,0.997679
2011-09-26T13:16:08.248430,12240,0.226330,-1.381193,-0.547045,-0.010920,0.025614,1.000499
2011-09-26T13:16:08.258430,12250,0.241190,-1.385775,-0.547874,-0.009329,0.027009,1.003319
2011-09-26T13:16:08.268430,12260,0.256050,-1.390356,-0.548703,-0.007739,0.028404,1.006139
2011-09-26T13:16:08.278430,12270,0.270910,-1.394938,-0.549533,-0.006148,0.029798,1.008959
2011-09-26T13:16:08.288430,12280,0.285770,-1.399520,-0.550362,-0.004558,0.031193,1.011779
2011-09-26T13:16:08.298430,12290,0.300630,-1.404102,-0.551191,-0.002967,0.032588,1.014599
2011-09-26T13:16:08.308430,12300,0.315489,-1.408683,-0.552021,-0.001377,0.033983,1.017419
2011-09-26T13:16:08.318430,12310,0.330349,-1.413265,-0.552850,0.000214,0.035378,1.020239
2011-09-26T13:16:08.328430,12320,0.345209,-1.417847,-0.553679,0.001804,0.036773,1.023059
2011-09-26T13:16:08.338430,12330,0.360069,-1.422429,-0.554509,0.003395,0.038167,1.025879
2011-09-26T13:16:08.348430,12340,0.315088,-1.352383,-0.543539,0.004014,0.038144,1.025369
2011-09-26T13:16:08.358430,12350,0.266529,-1.277876,-0.531864,0.004575,0.038035,1.024661
2011-09-26T13:16:08.368430,12360,0.217970,-1.203368,-0.520189,0.005135,0.037927,1.023952
2011-09-26T13:16:08.378430,12370,0.169411,-1.128861,-0.508513,0.005696,0.037818,1.023243
2011-09-26T13:16:08.388430,12380,0.120851,-1.054354,-0.496838,0.006257,0.037710,1.022534
2011-09-26T13:16:08.398430,12390,0.072292,-0.979846,-0.485163,0.006818,0.037602,1.021825
2011-09-26T13:16:08.408430,12400,0.023733,-0.905339,-0.473488,0.007379,0.037493,1.021116
2011-09-26T13:16:08.418430,12410,-0.024826,-0.830831,-0.461813,0.007940,0.037385,1.020407
2011-09-26T13:16:08.428430,12420,-0.073385,-0.756324,-0.450137,0.008501,0.037276,1.019698
2011-09-26T13:16:08.438430,12430,-0.121945,-0.681816,-0.438462,0.009062,0.037168,1.018990
2011-09-26T13:16:08.448430,12440,-0.234912,-0.640833,-0.439510,0.009971,0.037498,1.018693
2011-09-26T13:16:08.458430,12450,-0.351622,-0.601797,-0.441298,0.010901,0.037853,1.018420
2011-09-26T13:16:08.468430,12460,-0.468331,-0.562762,-0.443085,0.011830,0.038208,1.018147
2011-09-26T13:16:08.478430,12470,-0.585040,-0.523726,-0.444872,0.012760,0.038563,1.017874
2011-09-26T13:16:08.488430,12480,-0.701750,-0.484690,-0.446659,0.013689,0.038918,1.017601
2011-09-26T13:16:08.498430,12490,-0.818459,-0.445655,-0.448447,0.014619,0.039273,1.017328
2011-09-26T13:16:08.508430,12500,-0.935169,-0.406619,-0.450234,0.015548,0.039628,1.017055
2011-09-26T13:16:08.518430,12510,-1.051878,-0.367583,-0.452021,0.016478,0.039983,1.016782
2011-09-26T13:16:08.528430,12520,-1.168588,-0.328548,-0.453809,0.017407,0.040338,1.016509
2011-09-26T13:16:08.538430,12530,-1.285297,-0.289512,-0.455596,0.018337,0.040693,1.016236
2011-09-26T13:16:08.548430,12540,-1.283268,-0.271563,-0.453527,0.018389,0.038165,1.014728
2011-09-26T13:16:08.558430,12550,-1.274103,-0.254881,-0.451227,0.018389,0.035463,1.013146
2011-09-26T13:16:08.568430,12560,-1.264937,-0.238199,-0.448927,0.018389,0.032761,1.011564
2011-09-26T13:16:08.578430,12570,-1.255772,-0.221518,-0.446626,0.018388,0.030060,1.009982
2011-09-26T13:16:08.588430,12580,-1.246607,-0.204836,-0.444326,0.018388,0.027358,1.008400
2011-09-26T13:16:08.598430,12590,-1.237442,-0.188154,-0.442025,0.018388,0.024656,1.006818
2011-09-26T13:16:08.608430,12600,-1.228277,-0.171472,-0.439725,0.018387,0.021954,1.005236
2011-09-26T13:16:08.618430,12610,-1.219111,-0.154790,-0.437425,0.018387,0.019252,1.003653
2011-09-26T13:16:08.628430,12620,-1.209946,-0.138109,-0.435124,0.018387,0.016551,1.002071
2011-09-26T13:16:08.638430,12630,-1.200781,-0.121427,-0.432824,0.018387,0.013849,1.000489
2011-09-26T13:16:08.648430,12640,-1.191616,-0.104745,-0.430523,0.018386,0.011147,0.998907
2011-09-26T13:16:08.658430,12650,-1.115808,-0.137243,-0.423160,0.018606,0.012332,0.997845
2011-09-26T13:16:08.668430,12660,-1.035851,-0.172801,-0.415481,0.018840,0.013758,0.996815
2011-09-26T13:16:08.678430,12670,-0.955895,-0.208360,-0.407802,0.019074,0.015185,0.995785
2011-09-26T13:16:08.688430,12680,-0.875939,-0.243919,-0.400123,0.019308,0.016611,0.994756
2011-09-26T13:16:08.698430,12690,-0.795983,-0.279477,-0.392444,0.019542,0.018038,0.993726
2011-09-26T13:16:08.708430,12700,-0.716027,-0.315036,-0.384765,0.019776,0.019465,0.992696
2011-09-26T13:16:08.718430,12710,-0.636071,-0.350594,-0.377086,0.020010,0.020891,0.991666
2011-09-26T13:16:08.728430,12720,-0.556115,-0.386153,-0.369407,0.020244,0.022318,0.990636
2011-09-26T13:16:08.738430,12730,-0.476158,-0.421712,-0.361728,0.020478,0.023744,0.989606
2011-09-26T13:16:08.748430,12740,-0.396202,-0.457270,-0.354049,0.020712,0.025171,0.988576
2011-09-26T13:16:08.758430,12750,-0.400142,-0.455458,-0.345073,0.021680,0.024654,0.990048
2011-09-26T13:16:08.768430,12760,-0.409286,-0.451329,-0.336017,0.022693,0.024017,0.991674
2011-09-26T13:16:08.778430,12770,-0.418429,-0.447199,-0.326961,0.023707,0.023380,0.993301
2011-09-26T13:16:08.788430,12780,-0.427572,-0.443069,-0.317904,0.024721,0.022743,0.994927
2011-09-26T13:16:08.798430,12790,-0.436716,-0.438939,-0.308848,0.025734,0.022106,0.996554
2011-09-26T13:16:08.808430,12800,-0.445859,-0.434810,-0.299792,0.026748,0.021468,0.998181
2011-09-26T13:16:08.818430,12810,-0.455002,-0.430680,-0.290736,0.027762,0.020831,0.999807
2011-09-26T13:16:08.828430,12820,-0.464146,-0.426550,-0.281680,0.028775,0.020194,1.001434
2011-09-26T13:16:08.838430,12830,-0.473289,-0.422420,-0.272623,0.029789,0.019557,1.003060
2011-09-26T13:16:08.848430,12840,-0.482432,-0.418291,-0.263567,0.030803,0.018920,1.004687
2011-09-26T13:16:08.858430,12850,-0.491576,-0.414161,-0.254511,0.031816,0.018283,1.006313
2011-09-26T13:16:08.868430,12860,-0.385933,-0.398009,-0.256874,0.031303,0.018210,1.006351
2011-09-26T13:16:08.878430,12870,-0.273416,-0.381137,-0.259920,0.030697,0.018172,1.006293
2011-09-26T13:16:08.888430,12880,-0.160900,-0.364265,-0.262967,0.030092,0.018134,1.006236
2011-09-26T13:16:08.898430,12890,-0.048384,-0.347393,-0.266014,0.029487,0.018095,1.006179
2011-09-26T13:16:08.908430,12900,0.064133,-0.330522,-0.269060,0.028881,0.018057,1.006121
2011-09-26T13:16:08.918430,12910,0.176649,-0.313650,-0.272107,0.028276,0.018018,1.006064
2011-09-26T13:16:08.928430,12920,0.289165,-0.296778,-0.275154,0.027670,0.017980,1.006006
2011-09-26T13:16:08.938430,12930,0.401681,-0.279906,-0.278200,0.027065,0.017941,1.005949
2011-09-26T13:16:08.948430,12940,0.514198,-0.263034,-0.281247,0.026460,0.017903,1.005891
2011-09-26T13:16:08.958430,12950,0.626714,-0.246163,-0.284294,0.025854,0.017865,1.005834
2011-09-26T13:16:08.968430,12960,0.633136,-0.253623,-0.287759,0.026501,0.018152,1.006502
2011-09-26T13:16:08.978430,12970,0.633428,-0.262489,-0.291249,0.027219,0.018458,1.007212
2011-09-26T13:16:08.988430,12980,0.633721,-0.271355,-0.294739,0.027938,0.018764,1.007922
2011-09-26T13:16:08.998430,12990,0.634013,-0.280222,-0.298228,0.028656,0.019071,1.008632
2011-09-26T13:16:09.008430,13000,0.634306,-0.289088,-0.301718,0.029375,0.019377,1.009342
2011-09-26T13:16:09.018430,13010,0.634598,-0.297954,-0.305208,0.030093,0.019683,1.010052
2011-09-26T13:16:09.028430,13020,0.634890,-0.306820,-0.308697,0.030812,0.019989,1.010762
2011-09-26T13:16:09.038430,13030,0.635183,-0.315686,-0.312187,0.031530,0.020296,1.011472
2011-09-26T13:16:09.048430,13040,0.635475,-0.324552,-0.315677,0.032249,0.020602,1.012182
2011-09-26T13:16:09.058430,13050,0.635768,-0.333418,-0.319167,0.032967,0.020908,1.012891
2011-09-26T13:16:09.068430,13060,0.671985,-0.362939,-0.317123,0.033035,0.020786,1.011117
2011-09-26T13:16:09.078430,13070,0.710406,-0.393726,-0.314740,0.033063,0.020637,1.009190
2011-09-26T13:16:09.088430,13080,0.748826,-0.424513,-0.312356,0.033091,0.020489,1.007263
2011-09-26T13:16:09.098430,13090,0.787247,-0.455300,-0.309973,0.033119,0.020340,1.005336
2011-09-26T13:16:09.108430,13100,0.825667,-0.486087,-0.307590,0.033147,0.020192,1.003409
2011-09-26T13:16:09.118430,13110,0.864088,-0.516875,-0.305207,0.033175,0.020043,1.001482
2011-09-26T13:16:09.128430,13120,0.902508,-0.547662,-0.302824,0.033202,0.019895,0.999555
2011-09-26T13:16:09.138430,13130,0.940929,-0.578449,-0.300441,0.033230,0.019746,0.997628
2011-09-26T13:16:09.148430,13140,0.979349,-0.609236,-0.298057,0.033258,0.019598,0.995700
2011-09-26T13:16:09.158430,13150,1.017770,-0.640023,-0.295674,0.033286,0.019449,0.993773
2011-09-26T13:16:09.168430,13160,1.056191,-0.670810,-0.293291,0.033314,0.019301,0.991846
2011-09-26T13:16:09.178430,13170,1.056369,-0.681014,-0.276989,0.033529,0.019200,0.994779
2011-09-26T13:16:09.188430,13180,1.054471,-0.690099,-0.259930,0.033754,0.019101,0.997976
2011-09-26T13:16:09.198430,13190,1.052572,-0.699185,-0.242872,0.033979,0.019003,1.001173
2011-09-26T13:16:09.208430,13200,1.050674,-0.708271,-0.225814,0.034204,0.018904,1.004370
2011-09-26T13:16:09.218430,13210,1.048776,-0.717356,-0.208755,0.034429,0.018806,1.007567
2011-09-26T13:16:09.228430,13220,1.046877,-0.726442,-0.191697,0.034654,0.018707,1.010763
2011-09-26T13:16:09.238430,13230,1.044979,-0.735527,-0.174639,0.034879,0.018609,1.013960
2011-09-26T13:16:09.248430,13240,1.043081,-0.744613,-0.157580,0.035104,0.018510,1.017157
2011-09-26T13:16:09.258430,13250,1.041182,-0.753698,-0.140522,0.035329,0.018412,1.020354
2011-09-26T13:16:09.268430,13260,1.039284,-0.762784,-0.123463,0.035554,0.018313,1.023551
2011-09-26T13:16:09.278430,13270,1.040507,-0.727127,-0.117675,0.035563,0.019395,1.022577
2011-09-26T13:16:09.288430,13280,1.041900,-0.689031,-0.112500,0.035561,0.020541,1.021376
2011-09-26T13:16:09.298430,13290,1.043293,-0.650935,-0.107326,0.035558,0.021687,1.020174
2011-09-26T13:16:09.308430,13300,1.044686,-0.612839,-0.102152,0.035556,0.022833,1.018973
2011-09-26T13:16:09.318430,13310,1.046079,-0.574744,-0.096977,0.035553,0.023979,1.017772
2011-09-26T13:16:09.328430,13320,1.047473,-0.536648,-0.091803,0.035551,0.025125,1.016571
2011-09-26T13:16:09.338430,13330,1.048866,-0.498552,-0.086628,0.035549,0.026271,1.015370
2011-09-26T13:16:09.348430,13340,1.050259,-0.460456,-0.081454,0.035546,0.027417,1.014168
2011-09-26T13:16:09.358430,13350,1.051652,-0.422360,-0.076280,0.035544,0.028563,1.012967
2011-09-26T13:16:09.368430,13360,1.053045,-0.384265,-0.071105,0.035541,0.029709,1.011766
2011-09-26T13:16:09.378430,13370,1.064792,-0.381558,-0.096575,0.035780,0.031006,1.010415
2011-09-26T13:16:09.388430,13380,1.077144,-0.380924,-0.123839,0.036034,0.032312,1.009055
2011-09-26T13:16:09.398430,13390,1.089496,-0.380289,-0.151102,0.036287,0.033618,1.007695
2011-09-26T13:16:09.408430,13400,1.101849,-0.379654,-0.178366,0.036540,0.034924,1.006335
2011-09-26T13:16:09.418430,13410,1.114201,-0.379020,-0.205630,0.036793,0.036230,1.004975
2011-09-26T13:16:09.428430,13420,1.126553,-0.378385,-0.232894,0.037047,0.037536,1.003615
2011-09-26T13:16:09.438430,13430,1.138906,-0.377750,-0.260157,0.037300,0.038842,1.002255
2011-09-26T13:16:09.448430,13440,1.151258,-0.377116,-0.287421,0.037553,0.040148,1.000895
2011-09-26T13:16:09.458430,13450,1.163611,-0.376481,-0.314685,0.037806,0.041454,0.999535
2011-09-26T13:16:09.468430,13460,1.175963,-0.375846,-0.341948,0.038060,0.042759,0.998175
2011-09-26T13:16:09.478430,13470,1.188315,-0.375212,-0.369212,0.038313,0.044065,0.996815
2011-09-26T13:16:09.488430,13480,1.097178,-0.291564,-0.402866,0.038477,0.044878,0.999135
2011-09-26T13:16:09.498430,13490,1.000155,-0.203196,-0.436883,0.038637,0.045663,1.001665
2011-09-26T13:16:09.508430,13500,0.903132,-0.114828,-0.470901,0.038796,0.046448,1.004195
2011-09-26T13:16:09.518430,13510,0.806109,-0.026460,-0.504918,0.038956,0.047233,1.006725
2011-09-26T13:16:09.528430,13520,0.709086,0.061908,-0.538935,0.039115,0.048017,1.009255
2011-09-26T13:16:09.538430,13530,0.612063,0.150276,-0.572952,0.039274,0.048802,1.011785
2011-09-26T13:16:09.548430,13540,0.515039,0.238644,-0.606970,0.039434,0.049587,1.014315
2011-09-26T13:16:09.558430,13550,0.418016,0.327012,-0.640987,0.039593,0.050372,1.016845
2011-09-26T13:16:09.568430,13560,0.320993,0.415380,-0.675004,0.039753,0.051157,1.019375
2011-09-26T13:16:09.578430,13570,0.223970,0.503748,-0.709021,0.039912,0.051941,1.021905
2011-09-26T13:16:09.588430,13580,0.151074,0.568985,-0.733396,0.039523,0.050178,1.021048
2011-09-26T13:16:09.598430,13590,0.079650,0.632810,-0.757182,0.039101,0.048260,1.019984
2011-09-26T13:16:09.608430,13600,0.008226,0.696635,-0.780968,0.038679,0.046342,1.018920
2011-09-26T13:16:09.618430,13610,-0.063198,0.760461,-0.804754,0.038257,0.044423,1.017856
2011-09-26T13:16:09.628430,13620,-0.134622,0.824286,-0.828540,0.037835,0.042505,1.016792
2011-09-26T13:16:09.638430,13630,-0.206046,0.888111,-0.852326,0.037413,0.040586,1.015728
2011-09-26T13:16:09.648430,13640,-0.277470,0.951937,-0.876112,0.036991,0.038668,1.014664
2011-09-26T13:16:09.658430,13650,-0.348894,1.015762,-0.899898,0.036569,0.036749,1.013600
