pc_time,ts_ms,gyroX,gyroY,gyroZ,accelX,accelY,accelZ
2011-10-03T12:55:34.997992,0,10.098868,11.004544,1.328386,0.121229,0.076511,1.327642
2011-10-03T12:55:35.007992,10,10.029256,10.929006,1.326666,0.120971,0.076464,1.325514
2011-10-03T12:55:35.017992,20,9.959645,10.853467,1.324947,0.120713,0.076416,1.323386
2011-10-03T12:55:35.027992,30,9.890034,10.777929,1.323227,0.120454,0.076369,1.321259
2011-10-03T12:55:35.037992,40,9.820423,10.702391,1.321507,0.120196,0.076321,1.319131
2011-10-03T12:55:35.047992,50,9.750812,10.626852,1.319787,0.119938,0.076274,1.317003
2011-10-03T12:55:35.057992,60,9.681201,10.551314,1.318067,0.119679,0.076226,1.314875
2011-10-03T12:55:35.067992,70,9.611590,10.475775,1.316347,0.119421,0.076179,1.312747
2011-10-03T12:55:35.077992,80,9.541979,10.400237,1.314627,0.119163,0.076132,1.310619
2011-10-03T12:55:35.087992,90,9.472368,10.324698,1.312907,0.118904,0.076084,1.308491
2011-10-03T12:55:35.097992,100,9.402757,10.249160,1.311187,0.118646,0.076037,1.306364
2011-10-03T12:55:35.107992,110,9.333145,10.173621,1.309467,0.118388,0.075989,1.304236
2011-10-03T12:55:35.117992,120,9.263534,10.098082,1.307747,0.118130,0.075942,1.302108
2011-10-03T12:55:35.127992,130,9.193922,10.022543,1.306027,0.117871,0.075894,1.299980
2011-10-03T12:55:35.137992,140,9.124310,9.947003,1.304307,0.117613,0.075847,1.297852
2011-10-03T12:55:35.147992,150,9.054698,9.871464,1.302587,0.117355,0.075799,1.295724
2011-10-03T12:55:35.157992,160,8.985087,9.795925,1.300867,0.117096,0.075752,1.293596
2011-10-03T12:55:35.167992,170,8.915475,9.720386,1.299147,0.116838,0.075705,1.291469
2011-10-03T12:55:35.177992,180,8.845863,9.644847,1.297427,0.116580,0.075657,1.289341
2011-10-03T12:55:35.187992,190,8.776252,9.569308,1.295707,0.116322,0.075610,1.287213
2011-10-03T12:55:35.197992,200,8.706640,9.493768,1.293987,0.116063,0.075562,1.285085
2011-10-03T12:55:35.207992,210,8.637029,9.418230,1.292267,0.115805,0.075515,1.282957
2011-10-03T12:55:35.217992,220,8.567418,9.342692,1.290547,0.115547,0.075467,1.280829
2011-10-03T12:55:35.227992,230,8.497807,9.267153,1.288827,0.115288,0.075420,1.278701
2011-10-03T12:55:35.237992,240,8.428196,9.191615,1.287107,0.115030,0.075373,1.276574
2011-10-03T12:55:35.247992,250,8.358585,9.116076,1.285387,0.114772,0.075325,1.274446
2011-10-03T12:55:35.257992,260,8.288974,9.040538,1.283667,0.114513,0.075278,1.272318
2011-10-03T12:55:35.267992,270,8.219363,8.965000,1.281947,0.114255,0.075230,1.270190
2011-10-03T12:55:35.277992,280,8.149752,8.889461,1.280227,0.113997,0.075183,1.268062
2011-10-03T12:55:35.287992,290,8.080141,8.813923,1.278507,0.113739,0.075135,1.265934
2011-10-03T12:55:35.297992,300,8.010529,8.738384,1.276787,0.113480,0.075088,1.263806
2011-10-03T12:55:35.307992,310,7.940918,8.662845,1.275067,0.113222,0.075041,1.261679
2011-10-03T12:55:35.317992,320,7.871306,8.587306,1.273347,0.112964,0.074993,1.259551
2011-10-03T12:55:35.327992,330,7.801694,8.511766,1.271627,0.112705,0.074946,1.257423
2011-10-03T12:55:35.337992,340,7.732082,8.436227,1.269907,0.112447,0.074898,1.255295
2011-10-03T12:55:35.347992,350,7.662470,8.360688,1.268187,0.112189,0.074851,1.253167
2011-10-03T12:55:35.357992,360,7.592858,8.285148,1.266467,0.111931,0.074803,1.251039
2011-10-03T12:55:35.367992,370,7.523246,8.209609,1.264747,0.111672,0.074756,1.248911
2011-10-03T12:55:35.377992,380,7.453634,8.134070,1.263027,0.111414,0.074708,1.246783
2011-10-03T12:55:35.387992,390,7.384022,8.058530,1.261307,0.111156,0.074661,1.244656
2011-10-03T12:55:35.397992,400,7.314411,7.982991,1.259587,0.110897,0.074614,1.242528
2011-10-03T12:55:35.407992,410,7.244799,7.907452,1.257867,0.110639,0.074566,1.240400
2011-10-03T12:55:35.417992,420,7.175188,7.831914,1.256147,0.110381,0.074519,1.238272
2011-10-03T12:55:35.427992,430,7.105577,7.756376,1.254427,0.110122,0.074471,1.236144
2011-10-03T12:55:35.437992,440,7.035966,7.680837,1.252707,0.109864,0.074424,1.234016
2011-10-03T12:55:35.447992,450,6.966355,7.605299,1.250987,0.109606,0.074376,1.231888
2011-10-03T12:55:35.457992,460,6.896744,7.529760,1.249267,0.109348,0.074329,1.229761
2011-10-03T12:55:35.467992,470,6.827133,7.454222,1.247547,0.109089,0.074282,1.227633
2011-10-03T12:55:35.477992,480,6.757522,7.378684,1.245827,0.108831,0.074234,1.225505
2011-10-03T12:55:35.487992,490,6.687911,7.303145,1.244107,0.108573,0.074187,1.223377
2011-10-03T12:55:35.497992,500,6.618300,7.227607,1.242387,0.108314,0.074139,1.221249
2011-10-03T12:55:35.507992,510,6.548688,7.152068,1.240668,0.108056,0.074092,1.219121
2011-10-03T12:55:35.517992,520,6.479077,7.076528,1.238948,0.107798,0.074044,1.216993
2011-10-03T12:55:35.527992,530,6.409465,7.000989,1.237228,0.107540,0.073997,1.214866
2011-10-03T12:55:35.537992,540,6.339853,6.925450,1.235508,0.107281,0.073950,1.212738
2011-10-03T12:55:35.547992,550,6.270242,6.849911,1.233788,0.107023,0.073902,1.210610
2011-10-03T12:55:35.557992,560,6.200630,6.774372,1.232068,0.106765,0.073855,1.208482
2011-10-03T12:55:35.567992,570,6.131018,6.698833,1.230348,0.106506,0.073807,1.206354
2011-10-03T12:55:35.577992,580,6.061406,6.623293,1.228628,0.106248,0.073760,1.204226
2011-10-03T12:55:35.587992,590,5.991795,6.547754,1.226908,0.105990,0.073712,1.202098
2011-10-03T12:55:35.597992,600,5.922183,6.472215,1.225188,0.105731,0.073665,1.199971
2011-10-03T12:55:35.607992,610,5.852571,6.396676,1.223468,0.105473,0.073617,1.197843
2011-10-03T12:55:35.617992,620,5.782960,6.321137,1.221748,0.105215,0.073570,1.195715
2011-10-03T12:55:35.627992,630,5.713348,6.245598,1.220028,0.104957,0.073523,1.193587
2011-10-03T12:55:35.637992,640,5.643737,6.170059,1.218308,0.104698,0.073475,1.191459
2011-10-03T12:55:35.647992,650,5.574125,6.094520,1.216588,0.104440,0.073428,1.189331
2011-10-03T12:55:35.657992,660,5.504514,6.018981,1.214868,0.104182,0.073380,1.187203
2011-10-03T12:55:35.667992,670,5.434902,5.943442,1.213148,0.103923,0.073333,1.185075
2011-10-03T12:55:35.677992,680,5.365290,5.867903,1.211428,0.103665,0.073285,1.182948
2011-10-03T12:55:35.687992,690,5.295679,5.792364,1.209708,0.103407,0.073238,1.180820
2011-10-03T12:55:35.697992,700,5.226067,5.716825,1.207988,0.103149,0.073191,1.178692
2011-10-03T12:55:35.707992,710,5.156456,5.641287,1.206268,0.102890,0.073143,1.176564
2011-10-03T12:55:35.717992,720,5.086845,5.565748,1.204548,0.102632,0.073096,1.174436
2011-10-03T12:55:35.727992,730,5.017234,5.490210,1.202828,0.102374,0.073048,1.172308
2011-10-03T12:55:35.737992,740,4.947623,5.414671,1.201108,0.102115,0.073001,1.170180
2011-10-03T12:55:35.747992,750,4.878011,5.339132,1.199388,0.101857,0.072953,1.168053
2011-10-03T12:55:35.757992,760,4.808400,5.263594,1.197668,0.101599,0.072906,1.165925
2011-10-03T12:55:35.767992,770,4.738789,5.188055,1.195948,0.101341,0.072859,1.163797
2011-10-03T12:55:35.777992,780,4.669178,5.112517,1.194228,0.101082,0.072811,1.161669
2011-10-03T12:55:35.787992,790,4.599566,5.036978,1.192508,0.100824,0.072764,1.159541
2011-10-03T12:55:35.797992,800,4.529955,4.961439,1.190788,0.100566,0.072716,1.157413
2011-10-03T12:55:35.807992,810,4.460344,4.885900,1.189068,0.100307,0.072669,1.155285
2011-10-03T12:55:35.817992,820,4.390732,4.810361,1.187348,0.100049,0.072621,1.153158
2011-10-03T12:55:35.827992,830,4.321120,4.734822,1.185628,0.099791,0.072574,1.151030
2011-10-03T12:55:35.837992,840,4.251508,4.659283,1.183908,0.099532,0.072526,1.148902
2011-10-03T12:55:35.847992,850,4.181897,4.583744,1.182188,0.099274,0.072479,1.146774
2011-10-03T12:55:35.857992,860,4.112285,4.508204,1.180468,0.099016,0.072432,1.144646
2011-10-03T12:55:35.867992,870,4.042673,4.432665,1.178748,0.098758,0.072384,1.142518
2011-10-03T12:55:35.877992,880,3.973061,4.357126,1.177028,0.098499,0.072337,1.140390
2011-10-03T12:55:35.887992,890,3.903450,4.281587,1.175308,0.098241,0.072289,1.138263
2011-10-03T12:55:35.897992,900,3.833838,4.206048,1.173588,0.097983,0.072242,1.136135
2011-10-03T12:55:35.907992,910,3.764227,4.130509,1.171868,0.097724,0.072194,1.134007
2011-10-03T12:55:35.917992,920,3.694616,4.054971,1.170148,0.097466,0.072147,1.131879
2011-10-03T12:55:35.927992,930,3.625005,3.979433,1.168428,0.097208,0.072100,1.129751
2011-10-03T12:55:35.937992,940,3.555394,3.903894,1.166708,0.096950,0.072052,1.127623
2011-10-03T12:55:35.947992,950,3.485783,3.828356,1.164988,0.096691,0.072005,1.125495
2011-10-03T12:55:35.957992,960,3.416172,3.752817,1.163268,0.096433,0.071957,1.123368
2011-10-03T12:55:35.967992,970,3.346561,3.677279,1.161548,0.096175,0.071910,1.121240
2011-10-03T12:55:35.977992,980,3.276950,3.601740,1.159828,0.095916,0.071862,1.119112
2011-10-03T12:55:35.987992,990,3.207339,3.526202,1.158108,0.095658,0.071815,1.116984
2011-10-03T12:55:35.997992,1000,3.137728,3.450664,1.156388,0.095400,0.071768,1.114856
2011-10-03T12:55:36.007992,1010,3.068116,3.375124,1.154668,0.095141,0.071720,1.112728
2011-10-03T12:55:36.017992,1020,2.998504,3.299585,1.152948,0.094883,0.071673,1.110600
2011-10-03T12:55:36.027992,1030,2.928892,3.224046,1.151228,0.094625,0.071625,1.108473
2011-10-03T12:55:36.037992,1040,2.859281,3.148507,1.149508,0.094367,0.071578,1.106345
2011-10-03T12:55:36.047992,1050,2.789669,3.072968,1.147788,0.094108,0.071530,1.104217
2011-10-03T12:55:36.057992,1060,2.720057,2.997429,1.146068,0.093850,0.071483,1.102089
2011-10-03T12:55:36.067992,1070,2.650446,2.921890,1.144348,0.093592,0.071436,1.099961
2011-10-03T12:55:36.077992,1080,2.580834,2.846350,1.142628,0.093333,0.071388,1.097833
2011-10-03T12:55:36.087992,1090,2.511222,2.770811,1.140908,0.093075,0.071341,1.095705
2011-10-03T12:55:36.097992,1100,2.441610,2.695272,1.139189,0.092817,0.071293,1.093578
2011-10-03T12:55:36.107992,1110,2.371999,2.619733,1.137469,0.092559,0.071246,1.091450
2011-10-03T12:55:36.117992,1120,2.302388,2.544195,1.135749,0.092300,0.071198,1.089322
2011-10-03T12:55:36.127992,1130,2.232777,2.468656,1.134029,0.092042,0.071151,1.087194
2011-10-03T12:55:36.137992,1140,2.163166,2.393118,1.132309,0.091784,0.071103,1.085066
2011-10-03T12:55:36.147992,1150,2.093554,2.317579,1.130589,0.091525,0.071056,1.082938
2011-10-03T12:55:36.157992,1160,2.023943,2.242040,1.128869,0.091267,0.071009,1.080810
2011-10-03T12:55:36.167992,1170,1.954332,2.166502,1.127149,0.091009,0.070961,1.078683
2011-10-03T12:55:36.177992,1180,1.884721,2.090963,1.125429,0.090750,0.070914,1.076555
2011-10-03T12:55:36.187992,1190,1.815109,2.015425,1.123709,0.090492,0.070866,1.074427
2011-10-03T12:55:36.197992,1200,1.745498,1.939886,1.121989,0.090234,0.070819,1.072299
2011-10-03T12:55:36.207992,1210,1.675887,1.864347,1.120269,0.089976,0.070771,1.070171
2011-10-03T12:55:36.217992,1220,1.606275,1.788808,1.118549,0.089717,0.070724,1.068043
2011-10-03T12:55:36.227992,1230,1.536663,1.713269,1.116829,0.089459,0.070677,1.065915
2011-10-03T12:55:36.237992,1240,1.467051,1.637729,1.115109,0.089201,0.070629,1.063787
2011-10-03T12:55:36.247992,1250,1.397440,1.562190,1.113389,0.088942,0.070582,1.061660
2011-10-03T12:55:36.257992,1260,1.327828,1.486651,1.111669,0.088684,0.070534,1.059532
2011-10-03T12:55:36.267992,1270,1.258216,1.411112,1.109949,0.088426,0.070487,1.057404
2011-10-03T12:55:36.277992,1280,1.188604,1.335573,1.108229,0.088168,0.070439,1.055276
2011-10-03T12:55:36.287992,1290,1.118993,1.260034,1.106509,0.087909,0.070392,1.053148
2011-10-03T12:55:36.297992,1300,1.049381,1.184494,1.104789,0.087651,0.070345,1.051020
2011-10-03T12:55:36.307992,1310,0.979770,1.108956,1.103069,0.087393,0.070297,1.048892
2011-10-03T12:55:36.317992,1320,0.910159,1.033418,1.101349,0.087134,0.070250,1.046765
2011-10-03T12:55:36.327992,1330,0.840548,0.957879,1.099629,0.086876,0.070202,1.044637
2011-10-03T12:55:36.337992,1340,0.770937,0.882341,1.097909,0.086618,0.070155,1.042509
2011-10-03T12:55:36.347992,1350,0.701326,0.806802,1.096189,0.086359,0.070107,1.040381
2011-10-03T12:55:36.357992,1360,0.631715,0.731264,1.094469,0.086101,0.070060,1.038253
2011-10-03T12:55:36.367992,1370,0.562104,0.655726,1.092749,0.085843,0.070012,1.036125
2011-10-03T12:55:36.377992,1380,0.492493,0.580187,1.091029,0.085585,0.069965,1.033998
2011-10-03T12:55:36.387992,1390,0.422882,0.504649,1.089309,0.085326,0.069918,1.031870
2011-10-03T12:55:36.397992,1400,0.353457,0.429183,1.087548,0.085068,0.069871,1.029735
2011-10-03T12:55:36.407992,1410,0.372472,0.388105,1.066066,0.084625,0.070016,1.024383
2011-10-03T12:55:36.417992,1420,0.391488,0.347028,1.044585,0.084182,0.070161,1.019030
2011-10-03T12:55:36.427992,1430,0.410504,0.305951,1.023103,0.083739,0.070305,1.013678
2011-10-03T12:55:36.437992,1440,0.429520,0.264874,1.001622,0.083297,0.070450,1.008325
2011-10-03T12:55:36.447992,1450,0.448535,0.223797,0.980140,0.082854,0.070595,1.002973
2011-10-03T12:55:36.457992,1460,0.467551,0.182719,0.958658,0.082411,0.070740,0.997620
2011-10-03T12:55:36.467992,1470,0.486567,0.141642,0.937177,0.081969,0.070885,0.992268
2011-10-03T12:55:36.477992,1480,0.505583,0.100565,0.915695,0.081526,0.071030,0.986915
2011-10-03T12:55:36.487992,1490,0.524598,0.059488,0.894214,0.081083,0.071175,0.981563
2011-10-03T12:55:36.497992,1500,0.543597,0.018404,0.872736,0.080640,0.071320,0.976211
2011-10-03T12:55:36.507992,1510,0.385320,-0.091611,0.890786,0.080567,0.071080,0.977309
2011-10-03T12:55:36.517992,1520,0.227044,-0.201627,0.908836,0.080493,0.070840,0.978407
2011-10-03T12:55:36.527992,1530,0.068767,-0.311642,0.926886,0.080419,0.070600,0.979505
2011-10-03T12:55:36.537992,1540,-0.089510,-0.421657,0.944936,0.080345,0.070361,0.980603
2011-10-03T12:55:36.547992,1550,-0.247786,-0.531672,0.962987,0.080272,0.070121,0.981702
2011-10-03T12:55:36.557992,1560,-0.406063,-0.641687,0.981037,0.080198,0.069881,0.982800
2011-10-03T12:55:36.567992,1570,-0.564339,-0.751702,0.999087,0.080124,0.069641,0.983898
2011-10-03T12:55:36.577992,1580,-0.722616,-0.861718,1.017137,0.080050,0.069401,0.984996
2011-10-03T12:55:36.587992,1590,-0.880893,-0.971733,1.035187,0.079976,0.069161,0.986094
2011-10-03T12:55:36.597992,1600,-1.038636,-1.081533,1.053123,0.079904,0.068920,0.987195
2011-10-03T12:55:36.607992,1610,-0.974172,-1.101606,1.023740,0.080352,0.068146,0.989457
2011-10-03T12:55:36.617992,1620,-0.909708,-1.121679,0.994357,0.080800,0.067372,0.991718
2011-10-03T12:55:36.627992,1630,-0.845243,-1.141753,0.964974,0.081248,0.066598,0.993979
2011-10-03T12:55:36.637992,1640,-0.780779,-1.161826,0.935591,0.081695,0.065824,0.996241
2011-10-03T12:55:36.647992,1650,-0.716315,-1.181899,0.906207,0.082143,0.065049,0.998502
2011-10-03T12:55:36.657992,1660,-0.651850,-1.201972,0.876824,0.082591,0.064275,1.000764
2011-10-03T12:55:36.667992,1670,-0.587386,-1.222046,0.847441,0.083039,0.063501,1.003025
2011-10-03T12:55:36.677992,1680,-0.522922,-1.242119,0.818058,0.083487,0.062727,1.005287
2011-10-03T12:55:36.687992,1690,-0.458458,-1.262192,0.788675,0.083935,0.061953,1.007548
2011-10-03T12:55:36.697992,1700,-0.394996,-1.282035,0.759535,0.084379,0.061182,1.009807
2011-10-03T12:55:36.707992,1710,-0.534896,-1.255168,0.779826,0.084147,0.061084,1.011588
2011-10-03T12:55:36.717992,1720,-0.674795,-1.228301,0.800117,0.083914,0.060986,1.013369
2011-10-03T12:55:36.727992,1730,-0.814695,-1.201433,0.820409,0.083682,0.060888,1.015151
2011-10-03T12:55:36.737992,1740,-0.954595,-1.174566,0.840700,0.083449,0.060790,1.016932
2011-10-03T12:55:36.747992,1750,-1.094494,-1.147698,0.860991,0.083217,0.060692,1.018713
2011-10-03T12:55:36.757992,1760,-1.234394,-1.120831,0.881282,0.082984,0.060594,1.020494
2011-10-03T12:55:36.767992,1770,-1.374294,-1.093964,0.901573,0.082752,0.060496,1.022275
2011-10-03T12:55:36.777992,1780,-1.514194,-1.067096,0.921864,0.082519,0.060398,1.024056
2011-10-03T12:55:36.787992,1790,-1.654093,-1.040229,0.942155,0.082287,0.060300,1.025837
2011-10-03T12:55:36.797992,1800,-1.793993,-1.013362,0.962446,0.082054,0.060202,1.027618
2011-10-03T12:55:36.807992,1810,-1.932619,-0.986095,0.982484,0.081821,0.060096,1.029400
2011-10-03T12:55:36.817992,1820,-1.806345,-0.875702,0.949823,0.081333,0.058438,1.031305
2011-10-03T12:55:36.827992,1830,-1.680071,-0.765308,0.917161,0.080846,0.056780,1.033209
2011-10-03T12:55:36.837992,1840,-1.553796,-0.654915,0.884500,0.080359,0.055122,1.035114
2011-10-03T12:55:36.847992,1850,-1.427522,-0.544522,0.851839,0.079871,0.053464,1.037018
2011-10-03T12:55:36.857992,1860,-1.301248,-0.434129,0.819177,0.079384,0.051806,1.038923
2011-10-03T12:55:36.867992,1870,-1.174974,-0.323736,0.786516,0.078896,0.050148,1.040827
2011-10-03T12:55:36.877992,1880,-1.048700,-0.213343,0.753855,0.078409,0.048490,1.042732
2011-10-03T12:55:36.887992,1890,-0.922426,-0.102950,0.721193,0.077922,0.046832,1.044636
2011-10-03T12:55:36.897992,1900,-0.796151,0.007443,0.688532,0.077434,0.045174,1.046541
2011-10-03T12:55:36.907992,1910,-0.670067,0.117601,0.656105,0.076946,0.043506,1.048410
2011-10-03T12:55:36.917992,1920,-0.581241,0.181728,0.669657,0.076306,0.039920,1.043274
2011-10-03T12:55:36.927992,1930,-0.492414,0.245854,0.683209,0.075666,0.036334,1.038138
2011-10-03T12:55:36.937992,1940,-0.403588,0.309981,0.696762,0.075025,0.032747,1.033002
2011-10-03T12:55:36.947992,1950,-0.314761,0.374108,0.710314,0.074385,0.029161,1.027866
2011-10-03T12:55:36.957992,1960,-0.225935,0.438234,0.723866,0.073745,0.025575,1.022730
2011-10-03T12:55:36.967992,1970,-0.137108,0.502361,0.737418,0.073105,0.021989,1.017594
2011-10-03T12:55:36.977992,1980,-0.048282,0.566487,0.750970,0.072465,0.018402,1.012458
2011-10-03T12:55:36.987992,1990,0.040545,0.630614,0.764522,0.071824,0.014816,1.007322
2011-10-03T12:55:36.997992,2000,0.129371,0.694740,0.778074,0.071184,0.011230,1.002186
2011-10-03T12:55:37.007992,2010,0.217671,0.758556,0.791557,0.070542,0.007676,0.997069
2011-10-03T12:55:37.017992,2020,0.181123,0.748735,0.788778,0.069413,0.011732,0.996598
2011-10-03T12:55:37.027992,2030,0.144575,0.738915,0.785999,0.068285,0.015788,0.996127
2011-10-03T12:55:37.037992,2040,0.108026,0.729094,0.783219,0.067156,0.019844,0.995657
2011-10-03T12:55:37.047992,2050,0.071478,0.719273,0.780440,0.066027,0.023901,0.995186
2011-10-03T12:55:37.057992,2060,0.034929,0.709452,0.777660,0.064898,0.027957,0.994715
2011-10-03T12:55:37.067992,2070,-0.001619,0.699632,0.774881,0.063770,0.032013,0.994244
2011-10-03T12:55:37.077992,2080,-0.038168,0.689811,0.772101,0.062641,0.036069,0.993773
2011-10-03T12:55:37.087992,2090,-0.074716,0.679990,0.769322,0.061512,0.040125,0.993302
2011-10-03T12:55:37.097992,2100,-0.111265,0.670170,0.766543,0.060383,0.044182,0.992831
2011-10-03T12:55:37.107992,2110,-0.147813,0.660349,0.763763,0.059255,0.048238,0.992360
2011-10-03T12:55:37.117992,2120,-0.183985,0.650245,0.760928,0.058120,0.052253,0.991884
2011-10-03T12:55:37.127992,2130,-0.164259,0.598042,0.749755,0.056156,0.050208,0.990732
2011-10-03T12:55:37.137992,2140,-0.144532,0.545840,0.738581,0.054192,0.048164,0.989579
2011-10-03T12:55:37.147992,2150,-0.124806,0.493637,0.727408,0.052228,0.046119,0.988427
2011-10-03T12:55:37.157992,2160,-0.105080,0.441434,0.716235,0.050263,0.044074,0.987274
2011-10-03T12:55:37.167992,2170,-0.085354,0.389232,0.705062,0.048299,0.042030,0.986122
2011-10-03T12:55:37.177992,2180,-0.065627,0.337029,0.693889,0.046335,0.039985,0.984969
2011-10-03T12:55:37.187992,2190,-0.045901,0.284826,0.682716,0.044370,0.037940,0.983816
2011-10-03T12:55:37.197992,2200,-0.026175,0.232624,0.671543,0.042406,0.035895,0.982664
2011-10-03T12:55:37.207992,2210,-0.006449,0.180421,0.660370,0.040442,0.033851,0.981511
2011-10-03T12:55:37.217992,2220,0.013279,0.128225,0.649212,0.038479,0.031807,0.980359
2011-10-03T12:55:37.227992,2230,0.035875,0.087685,0.663641,0.039167,0.031798,0.980196
2011-10-03T12:55:37.237992,2240,0.058470,0.047144,0.678070,0.039855,0.031789,0.980033
2011-10-03T12:55:37.247992,2250,0.081066,0.006603,0.692499,0.040543,0.031779,0.979870
2011-10-03T12:55:37.257992,2260,0.103661,-0.033938,0.706928,0.041231,0.031770,0.979707
2011-10-03T12:55:37.267992,2270,0.126257,-0.074478,0.721357,0.041919,0.031760,0.979544
2011-10-03T12:55:37.277992,2280,0.148852,-0.115019,0.735786,0.042607,0.031751,0.979381
2011-10-03T12:55:37.287992,2290,0.171448,-0.155560,0.750215,0.043296,0.031742,0.979218
2011-10-03T12:55:37.297992,2300,0.194043,-0.196101,0.764644,0.043984,0.031732,0.979055
2011-10-03T12:55:37.307992,2310,0.216639,-0.236641,0.779073,0.044672,0.031723,0.978892
2011-10-03T12:55:37.317992,2320,0.239234,-0.277182,0.793502,0.045360,0.031714,0.978729
2011-10-03T12:55:37.327992,2330,0.261830,-0.317723,0.807930,0.046048,0.031704,0.978566
2011-10-03T12:55:37.337992,2340,0.299427,-0.339043,0.785094,0.046914,0.032356,0.981950
2011-10-03T12:55:37.347992,2350,0.337126,-0.360234,0.762006,0.047781,0.033012,0.985359
2011-10-03T12:55:37.357992,2360,0.374825,-0.381425,0.738918,0.048649,0.033668,0.988768
2011-10-03T12:55:37.367992,2370,0.412524,-0.402616,0.715831,0.049516,0.034324,0.992176
2011-10-03T12:55:37.377992,2380,0.450223,-0.423807,0.692743,0.050383,0.034980,0.995585
2011-10-03T12:55:37.387992,2390,0.487921,-0.444998,0.669655,0.051251,0.035636,0.998994
2011-10-03T12:55:37.397992,2400,0.525620,-0.466189,0.646568,0.052118,0.036292,1.002402
2011-10-03T12:55:37.407992,2410,0.563319,-0.487380,0.623480,0.052986,0.036948,1.005811
2011-10-03T12:55:37.417992,2420,0.601018,-0.508570,0.600392,0.053853,0.037604,1.009220
2011-10-03T12:55:37.427992,2430,0.638717,-0.529761,0.577305,0.054720,0.038260,1.012628
2011-10-03T12:55:37.437992,2440,0.577223,-0.420701,0.556655,0.054466,0.040726,1.014692
2011-10-03T12:55:37.447992,2450,0.514809,-0.310430,0.536029,0.054201,0.043208,1.016744
2011-10-03T12:55:37.457992,2460,0.452394,-0.200159,0.515402,0.053936,0.045691,1.018795
2011-10-03T12:55:37.467992,2470,0.389979,-0.089888,0.494776,0.053671,0.048173,1.020847
2011-10-03T12:55:37.477992,2480,0.327565,0.020383,0.474149,0.053406,0.050655,1.022899
2011-10-03T12:55:37.487992,2490,0.265150,0.130654,0.453522,0.053142,0.053138,1.024950
2011-10-03T12:55:37.497992,2500,0.202735,0.240925,0.432896,0.052877,0.055620,1.027002
2011-10-03T12:55:37.507992,2510,0.140321,0.351196,0.412269,0.052612,0.058102,1.029053
2011-10-03T12:55:37.517992,2520,0.077906,0.461467,0.391643,0.052347,0.060584,1.031105
2011-10-03T12:55:37.527992,2530,0.015508,0.571889,0.370912,0.052082,0.063023,1.033102
2011-10-03T12:55:37.537992,2540,-0.045093,0.698282,0.339194,0.051756,0.060820,1.029316
2011-10-03T12:55:37.547992,2550,-0.105694,0.824676,0.307477,0.051430,0.058617,1.025530
2011-10-03T12:55:37.557992,2560,-0.166296,0.951070,0.275759,0.051104,0.056414,1.021745
2011-10-03T12:55:37.567992,2570,-0.226897,1.077464,0.244042,0.050778,0.054211,1.017959
2011-10-03T12:55:37.577992,2580,-0.287498,1.203858,0.212324,0.050452,0.052007,1.014174
2011-10-03T12:55:37.587992,2590,-0.348100,1.330252,0.180606,0.050126,0.049804,1.010388
2011-10-03T12:55:37.597992,2600,-0.408701,1.456646,0.148889,0.049800,0.047601,1.006602
2011-10-03T12:55:37.607992,2610,-0.469303,1.583040,0.117171,0.049474,0.045398,1.002817
2011-10-03T12:55:37.617992,2620,-0.529904,1.709433,0.085454,0.049148,0.043195,0.999031
2011-10-03T12:55:37.627992,2630,-0.590505,1.835827,0.053736,0.048823,0.040992,0.995245
2011-10-03T12:55:37.637992,2640,-0.649861,1.960503,0.021855,0.048497,0.038772,0.991494
2011-10-03T12:55:37.647992,2650,-0.632103,1.978787,-0.020158,0.048180,0.035470,0.989849
2011-10-03T12:55:37.657992,2660,-0.614345,1.997070,-0.062171,0.047863,0.032168,0.988204
2011-10-03T12:55:37.667992,2670,-0.596587,2.015354,-0.104184,0.047546,0.028866,0.986559
2011-10-03T12:55:37.677992,2680,-0.578829,2.033638,-0.146197,0.047229,0.025564,0.984914
2011-10-03T12:55:37.687992,2690,-0.561071,2.051922,-0.188210,0.046912,0.022262,0.983270
2011-10-03T12:55:37.697992,2700,-0.543313,2.070205,-0.230223,0.046595,0.018960,0.981625
2011-10-03T12:55:37.707992,2710,-0.525555,2.088489,-0.272236,0.046278,0.015658,0.979980
2011-10-03T12:55:37.717992,2720,-0.507797,2.106773,-0.314249,0.045961,0.012356,0.978335
2011-10-03T12:55:37.727992,2730,-0.490039,2.125057,-0.356262,0.045644,0.009054,0.976691
2011-10-03T12:55:37.737992,2740,-0.471000,2.141997,-0.398267,0.045332,0.005814,0.975065
2011-10-03T12:55:37.747992,2750,-0.374209,2.077385,-0.439764,0.045343,0.006373,0.974635
2011-10-03T12:55:37.757992,2760,-0.277419,2.012773,-0.481261,0.045353,0.006931,0.974205
2011-10-03T12:55:37.767992,2770,-0.180629,1.948161,-0.522758,0.045364,0.007489,0.973775
2011-10-03T12:55:37.777992,2780,-0.083839,1.883549,-0.564254,0.045375,0.008048,0.973345
2011-10-03T12:55:37.787992,2790,0.012951,1.818937,-0.605751,0.045386,0.008606,0.972915
2011-10-03T12:55:37.797992,2800,0.109741,1.754325,-0.647248,0.045397,0.009164,0.972485
2011-10-03T12:55:37.807992,2810,0.206531,1.689713,-0.688745,0.045408,0.009723,0.972055
2011-10-03T12:55:37.817992,2820,0.303321,1.625101,-0.730242,0.045418,0.010281,0.971625
2011-10-03T12:55:37.827992,2830,0.400112,1.560489,-0.771739,0.045429,0.010839,0.971194
2011-10-03T12:55:37.837992,2840,0.494946,1.495447,-0.812643,0.045441,0.011401,0.970762
2011-10-03T12:55:37.847992,2850,0.452882,1.400289,-0.812034,0.045492,0.012171,0.970155
2011-10-03T12:55:37.857992,2860,0.410818,1.305131,-0.811425,0.045543,0.012942,0.969547
2011-10-03T12:55:37.867992,2870,0.368755,1.209973,-0.810816,0.045595,0.013712,0.968940
2011-10-03T12:55:37.877992,2880,0.326691,1.114814,-0.810207,0.045646,0.014483,0.968333
2011-10-03T12:55:37.887992,2890,0.284627,1.019656,-0.809598,0.045697,0.015253,0.967726
2011-10-03T12:55:37.897992,2900,0.242564,0.924498,-0.808989,0.045749,0.016024,0.967119
2011-10-03T12:55:37.907992,2910,0.200500,0.829340,-0.808380,0.045800,0.016795,0.966511
2011-10-03T12:55:37.917992,2920,0.158436,0.734182,-0.807771,0.045851,0.017565,0.965904
2011-10-03T12:55:37.927992,2930,0.116372,0.639023,-0.807163,0.045903,0.018336,0.965297
2011-10-03T12:55:37.937992,2940,0.074309,0.543865,-0.806554,0.045954,0.019106,0.964690
2011-10-03T12:55:37.947992,2950,0.032465,0.448039,-0.805818,0.045999,0.019884,0.964096
2011-10-03T12:55:37.957992,2960,0.009489,0.294743,-0.794172,0.045456,0.021259,0.964673
2011-10-03T12:55:37.967992,2970,-0.013487,0.141447,-0.782527,0.044914,0.022635,0.965249
2011-10-03T12:55:37.977992,2980,-0.036462,-0.011849,-0.770881,0.044371,0.024011,0.965825
2011-10-03T12:55:37.987992,2990,-0.059438,-0.165145,-0.759236,0.043829,0.025386,0.966401
2011-10-03T12:55:37.997992,3000,-0.082414,-0.318441,-0.747590,0.043286,0.026762,0.966977
2011-10-03T12:55:38.007992,3010,-0.105389,-0.471737,-0.735945,0.042744,0.028138,0.967554
2011-10-03T12:55:38.017992,3020,-0.128365,-0.625033,-0.724299,0.042201,0.029513,0.968130
2011-10-03T12:55:38.027992,3030,-0.151341,-0.778329,-0.712654,0.041659,0.030889,0.968706
2011-10-03T12:55:38.037992,3040,-0.174316,-0.931625,-0.701008,0.041116,0.032264,0.969282
2011-10-03T12:55:38.047992,3050,-0.197196,-1.084829,-0.689322,0.040594,0.033568,0.969917
2011-10-03T12:55:38.057992,3060,-0.215644,-1.233784,-0.675760,0.041008,0.031511,0.973253
2011-10-03T12:55:38.067992,3070,-0.234091,-1.382738,-0.662197,0.041423,0.029455,0.976589
2011-10-03T12:55:38.077992,3080,-0.252538,-1.531692,-0.648635,0.041838,0.027399,0.979925
2011-10-03T12:55:38.087992,3090,-0.270985,-1.680646,-0.635072,0.042252,0.025343,0.983262
2011-10-03T12:55:38.097992,3100,-0.289432,-1.829601,-0.621510,0.042667,0.023287,0.986598
2011-10-03T12:55:38.107992,3110,-0.307880,-1.978555,-0.607947,0.043082,0.021230,0.989934
2011-10-03T12:55:38.117992,3120,-0.326327,-2.127509,-0.594385,0.043496,0.019174,0.993270
2011-10-03T12:55:38.127992,3130,-0.344774,-2.276464,-0.580822,0.043911,0.017118,0.996606
2011-10-03T12:55:38.137992,3140,-0.363221,-2.425418,-0.567260,0.044326,0.015062,0.999943
2011-10-03T12:55:38.147992,3150,-0.381668,-2.574372,-0.553697,0.044740,0.013006,1.003279
2011-10-03T12:55:38.157992,3160,-0.398348,-2.718663,-0.540694,0.045183,0.010984,1.006687
2011-10-03T12:55:38.167992,3170,-0.335700,-2.653723,-0.552817,0.046867,0.010509,1.013338
2011-10-03T12:55:38.177992,3180,-0.273052,-2.588782,-0.564939,0.048552,0.010035,1.019988
2011-10-03T12:55:38.187992,3190,-0.210405,-2.523842,-0.577061,0.050236,0.009560,1.026639
2011-10-03T12:55:38.197992,3200,-0.147757,-2.458901,-0.589183,0.051921,0.009085,1.033289
2011-10-03T12:55:38.207992,3210,-0.085109,-2.393961,-0.601305,0.053606,0.008611,1.039940
2011-10-03T12:55:38.217992,3220,-0.022461,-2.329021,-0.613428,0.055290,0.008136,1.046590
2011-10-03T12:55:38.227992,3230,0.040186,-2.264080,-0.625550,0.056975,0.007661,1.053240
2011-10-03T12:55:38.237992,3240,0.102834,-2.199140,-0.637672,0.058659,0.007187,1.059891
2011-10-03T12:55:38.247992,3250,0.165482,-2.134199,-0.649794,0.060344,0.006712,1.066541
2011-10-03T12:55:38.257992,3260,0.228792,-2.065416,-0.661129,0.061982,0.006257,1.073044
2011-10-03T12:55:38.267992,3270,0.320144,-1.834098,-0.639161,0.061644,0.006626,1.073298
2011-10-03T12:55:38.277992,3280,0.411495,-1.602780,-0.617193,0.061307,0.006995,1.073552
2011-10-03T12:55:38.287992,3290,0.502846,-1.371462,-0.595225,0.060969,0.007364,1.073806
2011-10-03T12:55:38.297992,3300,0.594197,-1.140144,-0.573256,0.060632,0.007733,1.074060
2011-10-03T12:55:38.307992,3310,0.685549,-0.908826,-0.551288,0.060294,0.008103,1.074314
2011-10-03T12:55:38.317992,3320,0.776900,-0.677508,-0.529320,0.059957,0.008472,1.074568
2011-10-03T12:55:38.327992,3330,0.868251,-0.446190,-0.507352,0.059619,0.008841,1.074822
2011-10-03T12:55:38.337992,3340,0.959603,-0.214872,-0.485384,0.059282,0.009210,1.075076
2011-10-03T12:55:38.347992,3350,1.050954,0.016446,-0.463416,0.058944,0.009579,1.075330
2011-10-03T12:55:38.357992,3360,1.139886,0.246536,-0.440879,0.058587,0.009943,1.075441
2011-10-03T12:55:38.367992,3370,1.125957,0.424390,-0.394154,0.057382,0.010063,1.069481
2011-10-03T12:55:38.377992,3380,1.112027,0.602244,-0.347428,0.056176,0.010184,1.063522
2011-10-03T12:55:38.387992,3390,1.098097,0.780098,-0.300703,0.054971,0.010304,1.057563
2011-10-03T12:55:38.397992,3400,1.084168,0.957953,-0.253977,0.053766,0.010425,1.051603
2011-10-03T12:55:38.407992,3410,1.070238,1.135807,-0.207252,0.052560,0.010545,1.045644
2011-10-03T12:55:38.417992,3420,1.056308,1.313661,-0.160526,0.051355,0.010665,1.039684
2011-10-03T12:55:38.427992,3430,1.042378,1.491515,-0.113801,0.050150,0.010786,1.033725
2011-10-03T12:55:38.437992,3440,1.028449,1.669369,-0.067075,0.048944,0.010906,1.027765
2011-10-03T12:55:38.447992,3450,1.014519,1.847223,-0.020349,0.047739,0.011027,1.021806
2011-10-03T12:55:38.457992,3460,1.000589,2.025077,0.026376,0.046534,0.011147,1.015847
2011-10-03T12:55:38.467992,3470,0.988763,2.199142,0.072879,0.045300,0.011229,1.009925
2011-10-03T12:55:38.477992,3480,1.095180,2.160218,0.106896,0.042480,0.009169,1.006135
2011-10-03T12:55:38.487992,3490,1.201597,2.121295,0.140912,0.039660,0.007108,1.002345
2011-10-03T12:55:38.497992,3500,1.308013,2.082372,0.174928,0.036839,0.005047,0.998555
2011-10-03T12:55:38.507992,3510,1.414430,2.043448,0.208944,0.034019,0.002986,0.994765
2011-10-03T12:55:38.517992,3520,1.520847,2.004525,0.242961,0.031199,0.000925,0.990975
2011-10-03T12:55:38.527992,3530,1.627263,1.965601,0.276977,0.028378,-0.001136,0.987186
2011-10-03T12:55:38.537992,3540,1.733680,1.926678,0.310993,0.025558,-0.003197,0.983396
2011-10-03T12:55:38.547992,3550,1.840097,1.887755,0.345010,0.022737,-0.005258,0.979606
2011-10-03T12:55:38.557992,3560,1.946514,1.848831,0.379026,0.019917,-0.007319,0.975816
2011-10-03T12:55:38.567992,3570,2.054656,1.806079,0.412506,0.017171,-0.009242,0.971990
2011-10-03T12:55:38.577992,3580,2.229302,1.615760,0.425343,0.017308,-0.005839,0.966764
2011-10-03T12:55:38.587992,3590,2.403947,1.425442,0.438180,0.017444,-0.002437,0.961539
2011-10-03T12:55:38.597992,3600,2.578593,1.235124,0.451016,0.017581,0.000965,0.956313
2011-10-03T12:55:38.607992,3610,2.753239,1.044805,0.463853,0.017717,0.004367,0.951088
2011-10-03T12:55:38.617992,3620,2.927884,0.854487,0.476689,0.017854,0.007770,0.945863
2011-10-03T12:55:38.627992,3630,3.102530,0.664169,0.489526,0.017990,0.011172,0.940637
2011-10-03T12:55:38.637992,3640,3.277175,0.473850,0.502363,0.018127,0.014574,0.935412
2011-10-03T12:55:38.647992,3650,3.451821,0.283532,0.515199,0.018263,0.017976,0.930186
2011-10-03T12:55:38.657992,3660,3.626467,0.093214,0.528036,0.018400,0.021379,0.924961
2011-10-03T12:55:38.667992,3670,3.791170,-0.096428,0.541170,0.018548,0.024885,0.919978
2011-10-03T12:55:38.677992,3680,3.569668,-0.259784,0.565860,0.019170,0.032442,0.924412
2011-10-03T12:55:38.687992,3690,3.348166,-0.423140,0.590549,0.019791,0.039999,0.928846
2011-10-03T12:55:38.697992,3700,3.126664,-0.586497,0.615239,0.020413,0.047555,0.933280
2011-10-03T12:55:38.707992,3710,2.905161,-0.749853,0.639929,0.021034,0.055112,0.937714
2011-10-03T12:55:38.717992,3720,2.683659,-0.913209,0.664619,0.021655,0.062669,0.942148
2011-10-03T12:55:38.727992,3730,2.462157,-1.076565,0.689308,0.022277,0.070226,0.946581
2011-10-03T12:55:38.737992,3740,2.240655,-1.239922,0.713998,0.022898,0.077782,0.951015
2011-10-03T12:55:38.747992,3750,2.019153,-1.403278,0.738688,0.023519,0.085339,0.955449
2011-10-03T12:55:38.757992,3760,1.797651,-1.566634,0.763378,0.024141,0.092896,0.959883
2011-10-03T12:55:38.767992,3770,1.576148,-1.729990,0.788068,0.024762,0.100452,0.964317
2011-10-03T12:55:38.777992,3780,1.356305,-1.890305,0.812130,0.025424,0.107597,0.968845
2011-10-03T12:55:38.787992,3790,1.193843,-1.945441,0.814498,0.027482,0.100495,0.976604
2011-10-03T12:55:38.797992,3800,1.031380,-2.000576,0.816866,0.029540,0.093392,0.984364
2011-10-03T12:55:38.807992,3810,0.868918,-2.055711,0.819234,0.031598,0.086290,0.992124
2011-10-03T12:55:38.817992,3820,0.706456,-2.110846,0.821602,0.033656,0.079187,0.999884
2011-10-03T12:55:38.827992,3830,0.543993,-2.165982,0.823970,0.035714,0.072085,1.007644
2011-10-03T12:55:38.837992,3840,0.381531,-2.221117,0.826338,0.037772,0.064982,1.015404
2011-10-03T12:55:38.847992,3850,0.219068,-2.276252,0.828706,0.039830,0.057880,1.023164
2011-10-03T12:55:38.857992,3860,0.056606,-2.331387,0.831074,0.041888,0.050777,1.030923
2011-10-03T12:55:38.867992,3870,-0.105857,-2.386523,0.833442,0.043946,0.043675,1.038683
2011-10-03T12:55:38.877992,3880,-0.263866,-2.436802,0.836169,0.045936,0.036864,1.046226
2011-10-03T12:55:38.887992,3890,-0.274336,-2.326185,0.850776,0.045665,0.039719,1.046590
2011-10-03T12:55:38.897992,3900,-0.284805,-2.215567,0.865383,0.045395,0.042573,1.046953
2011-10-03T12:55:38.907992,3910,-0.295275,-2.104950,0.879991,0.045124,0.045428,1.047317
2011-10-03T12:55:38.917992,3920,-0.305745,-1.994333,0.894598,0.044853,0.048282,1.047680
2011-10-03T12:55:38.927992,3930,-0.316214,-1.883715,0.909206,0.044582,0.051137,1.048043
2011-10-03T12:55:38.937992,3940,-0.326684,-1.773098,0.923813,0.044312,0.053991,1.048407
2011-10-03T12:55:38.947992,3950,-0.337153,-1.662481,0.938421,0.044041,0.056846,1.048770
2011-10-03T12:55:38.957992,3960,-0.347623,-1.551864,0.953028,0.043770,0.059700,1.049134
2011-10-03T12:55:38.967992,3970,-0.358093,-1.441246,0.967635,0.043499,0.062555,1.049497
2011-10-03T12:55:38.977992,3980,-0.367891,-1.328162,0.980864,0.043244,0.065423,1.049760
2011-10-03T12:55:38.987992,3990,-0.353840,-1.127465,0.945142,0.043518,0.068779,1.046458
2011-10-03T12:55:38.997992,4000,-0.339790,-0.926769,0.909420,0.043793,0.072135,1.043157
2011-10-03T12:55:39.007992,4010,-0.325740,-0.726072,0.873698,0.044067,0.075491,1.039855
2011-10-03T12:55:39.017992,4020,-0.311689,-0.525376,0.837975,0.044342,0.078847,1.036553
2011-10-03T12:55:39.027992,4030,-0.297639,-0.324680,0.802253,0.044616,0.082203,1.033251
2011-10-03T12:55:39.037992,4040,-0.283589,-0.123983,0.766531,0.044891,0.085559,1.029950
2011-10-03T12:55:39.047992,4050,-0.269538,0.076713,0.730809,0.045165,0.088915,1.026648
2011-10-03T12:55:39.057992,4060,-0.255488,0.277409,0.695086,0.045440,0.092271,1.023346
2011-10-03T12:55:39.067992,4070,-0.241438,0.478106,0.659364,0.045714,0.095627,1.020044
2011-10-03T12:55:39.077992,4080,-0.227387,0.678802,0.623642,0.045989,0.098983,1.016743
2011-10-03T12:55:39.087992,4090,-0.217432,0.875416,0.588820,0.046156,0.102154,1.013356
2011-10-03T12:55:39.097992,4100,-0.331043,0.948867,0.581164,0.043088,0.099758,1.007415
2011-10-03T12:55:39.107992,4110,-0.444654,1.022318,0.573508,0.040021,0.097362,1.001474
2011-10-03T12:55:39.117992,4120,-0.558265,1.095769,0.565852,0.036953,0.094966,0.995533
2011-10-03T12:55:39.127992,4130,-0.671876,1.169220,0.558195,0.033885,0.092570,0.989591
2011-10-03T12:55:39.137992,4140,-0.785486,1.242671,0.550539,0.030818,0.090174,0.983650
2011-10-03T12:55:39.147992,4150,-0.899097,1.316121,0.542883,0.027750,0.087778,0.977709
2011-10-03T12:55:39.157992,4160,-1.012708,1.389572,0.535227,0.024683,0.085382,0.971768
2011-10-03T12:55:39.167992,4170,-1.126319,1.463023,0.527571,0.021615,0.082987,0.965826
2011-10-03T12:55:39.177992,4180,-1.239929,1.536474,0.519914,0.018547,0.080591,0.959885
2011-10-03T12:55:39.187992,4190,-1.345642,1.605128,0.512924,0.015508,0.078100,0.954256
2011-10-03T12:55:39.197992,4200,-1.221363,1.534098,0.525320,0.013295,0.072854,0.957712
2011-10-03T12:55:39.207992,4210,-1.097084,1.463068,0.537715,0.011083,0.067608,0.961168
2011-10-03T12:55:39.217992,4220,-0.972805,1.392038,0.550111,0.008870,0.062362,0.964624
2011-10-03T12:55:39.227992,4230,-0.848526,1.321008,0.562506,0.006657,0.057116,0.968080
2011-10-03T12:55:39.237992,4240,-0.724247,1.249978,0.574902,0.004445,0.051870,0.971536
2011-10-03T12:55:39.247992,4250,-0.599968,1.178948,0.587297,0.002232,0.046625,0.974992
2011-10-03T12:55:39.257992,4260,-0.475689,1.107918,0.599693,0.000019,0.041379,0.978448
2011-10-03T12:55:39.267992,4270,-0.351410,1.036888,0.612089,-0.002193,0.036133,0.981904
2011-10-03T12:55:39.277992,4280,-0.227131,0.965858,0.624484,-0.004406,0.030887,0.985360
2011-10-03T12:55:39.287992,4290,-0.102852,0.894828,0.636880,-0.006619,0.025641,0.988816
2011-10-03T12:55:39.297992,4300,0.016489,0.827040,0.648502,-0.008769,0.020781,0.992059
2011-10-03T12:55:39.307992,4310,-0.002351,0.849982,0.638469,-0.009165,0.026708,0.989348
2011-10-03T12:55:39.317992,4320,-0.021192,0.872924,0.628436,-0.009562,0.032636,0.986636
2011-10-03T12:55:39.327992,4330,-0.040033,0.895866,0.618404,-0.009958,0.038563,0.983925
2011-10-03T12:55:39.337992,4340,-0.058874,0.918808,0.608371,-0.010354,0.044491,0.981214
2011-10-03T12:55:39.347992,4350,-0.077714,0.941749,0.598339,-0.010751,0.050418,0.978503
2011-10-03T12:55:39.357992,4360,-0.096555,0.964691,0.588306,-0.011147,0.056346,0.975791
2011-10-03T12:55:39.367992,4370,-0.115396,0.987633,0.578274,-0.011544,0.062273,0.973080
2011-10-03T12:55:39.377992,4380,-0.134237,1.010575,0.568241,-0.011940,0.068201,0.970369
2011-10-03T12:55:39.387992,4390,-0.153077,1.033517,0.558209,-0.012337,0.074128,0.967657
2011-10-03T12:55:39.397992,4400,-0.171370,1.060557,0.546660,-0.012725,0.079785,0.965108
2011-10-03T12:55:39.407992,4410,-0.175475,1.193641,0.495883,-0.012916,0.078434,0.966735
2011-10-03T12:55:39.417992,4420,-0.179581,1.326725,0.445105,-0.013106,0.077082,0.968362
2011-10-03T12:55:39.427992,4430,-0.183686,1.459810,0.394328,-0.013296,0.075731,0.969990
2011-10-03T12:55:39.437992,4440,-0.187791,1.592894,0.343550,-0.013487,0.074379,0.971617
2011-10-03T12:55:39.447992,4450,-0.191897,1.725978,0.292773,-0.013677,0.073028,0.973244
2011-10-03T12:55:39.457992,4460,-0.196002,1.859063,0.241995,-0.013867,0.071677,0.974872
2011-10-03T12:55:39.467992,4470,-0.200108,1.992147,0.191218,-0.014058,0.070325,0.976499
2011-10-03T12:55:39.477992,4480,-0.204213,2.125232,0.140440,-0.014248,0.068974,0.978126
2011-10-03T12:55:39.487992,4490,-0.208319,2.258316,0.089663,-0.014438,0.067622,0.979754
2011-10-03T12:55:39.497992,4500,-0.218300,2.382525,0.041080,-0.014602,0.066352,0.981271
2011-10-03T12:55:39.507992,4510,-0.402160,2.244106,0.057443,-0.013983,0.067491,0.979531
2011-10-03T12:55:39.517992,4520,-0.586019,2.105688,0.073805,-0.013364,0.068629,0.977791
2011-10-03T12:55:39.527992,4530,-0.769879,1.967269,0.090167,-0.012745,0.069767,0.976050
2011-10-03T12:55:39.537992,4540,-0.953738,1.828850,0.106530,-0.012126,0.070905,0.974310
2011-10-03T12:55:39.547992,4550,-1.137597,1.690432,0.122892,-0.011507,0.072044,0.972570
2011-10-03T12:55:39.557992,4560,-1.321457,1.552013,0.139254,-0.010887,0.073182,0.970830
2011-10-03T12:55:39.567992,4570,-1.505316,1.413595,0.155617,-0.010268,0.074320,0.969089
2011-10-03T12:55:39.577992,4580,-1.689176,1.275176,0.171979,-0.009649,0.075459,0.967349
2011-10-03T12:55:39.587992,4590,-1.873035,1.136757,0.188341,-0.009030,0.076597,0.965609
2011-10-03T12:55:39.597992,4600,-2.056895,0.998339,0.204704,-0.008411,0.077735,0.963869
2011-10-03T12:55:39.607992,4610,-2.227079,0.863169,0.220308,-0.007968,0.078534,0.962334
2011-10-03T12:55:39.617992,4620,-2.033999,0.814301,0.215772,-0.012201,0.070318,0.966252
2011-10-03T12:55:39.627992,4630,-1.840919,0.765434,0.211236,-0.016434,0.062102,0.970170
2011-10-03T12:55:39.637992,4640,-1.647839,0.716567,0.206700,-0.020667,0.053887,0.974088
2011-10-03T12:55:39.647992,4650,-1.454759,0.667699,0.202164,-0.024900,0.045671,0.978006
2011-10-03T12:55:39.657992,4660,-1.261679,0.618832,0.197628,-0.029133,0.037455,0.981925
2011-10-03T12:55:39.667992,4670,-1.068599,0.569964,0.193092,-0.033366,0.029239,0.985843
2011-10-03T12:55:39.677992,4680,-0.875519,0.521097,0.188556,-0.037599,0.021023,0.989761
2011-10-03T12:55:39.687992,4690,-0.682439,0.472229,0.184020,-0.041832,0.012808,0.993679
2011-10-03T12:55:39.697992,4700,-0.489359,0.423362,0.179484,-0.046065,0.004592,0.997598
2011-10-03T12:55:39.707992,4710,-0.302764,0.371716,0.174571,-0.050118,-0.003056,1.001096
2011-10-03T12:55:39.717992,4720,-0.285039,0.247721,0.159853,-0.049488,0.004090,0.993655
2011-10-03T12:55:39.727992,4730,-0.267313,0.123727,0.145136,-0.048858,0.011236,0.986214
2011-10-03T12:55:39.737992,4740,-0.249588,-0.000267,0.130418,-0.048228,0.018382,0.978772
2011-10-03T12:55:39.747992,4750,-0.231862,-0.124261,0.115700,-0.047598,0.025528,0.971331
2011-10-03T12:55:39.757992,4760,-0.214137,-0.248255,0.100982,-0.046967,0.032673,0.963890
2011-10-03T12:55:39.767992,4770,-0.196411,-0.372250,0.086264,-0.046337,0.039819,0.956449
2011-10-03T12:55:39.777992,4780,-0.178685,-0.496244,0.071546,-0.045707,0.046965,0.949008
2011-10-03T12:55:39.787992,4790,-0.160960,-0.620238,0.056829,-0.045077,0.054111,0.941567
2011-10-03T12:55:39.797992,4800,-0.143234,-0.744232,0.042111,-0.044446,0.061257,0.934126
2011-10-03T12:55:39.807992,4810,-0.129384,-0.864738,0.027586,-0.043804,0.067974,0.927421
2011-10-03T12:55:39.817992,4820,-0.211056,-0.899253,0.017813,-0.042857,0.064136,0.938862
2011-10-03T12:55:39.827992,4830,-0.292728,-0.933769,0.008039,-0.041911,0.060298,0.950304
2011-10-03T12:55:39.837992,4840,-0.374400,-0.968284,-0.001734,-0.040965,0.056459,0.961745
2011-10-03T12:55:39.847992,4850,-0.456072,-1.002800,-0.011507,-0.040018,0.052621,0.973186
2011-10-03T12:55:39.857992,4860,-0.537745,-1.037316,-0.021281,-0.039072,0.048782,0.984627
2011-10-03T12:55:39.867992,4870,-0.619417,-1.071831,-0.031054,-0.038126,0.044944,0.996068
2011-10-03T12:55:39.877992,4880,-0.701089,-1.106347,-0.040827,-0.037179,0.041105,1.007509
2011-10-03T12:55:39.887992,4890,-0.782761,-1.140862,-0.050601,-0.036233,0.037267,1.018950
2011-10-03T12:55:39.897992,4900,-0.864433,-1.175378,-0.060374,-0.035287,0.033428,1.030391
2011-10-03T12:55:39.907992,4910,-0.946105,-1.209893,-0.070147,-0.034340,0.029590,1.041832
2011-10-03T12:55:39.917992,4920,-1.021320,-1.240290,-0.077605,-0.033375,0.025775,1.052847
2011-10-03T12:55:39.927992,4930,-0.909525,-1.151390,-0.017991,-0.031867,0.022630,1.051513
2011-10-03T12:55:39.937992,4940,-0.797731,-1.062491,0.041622,-0.030360,0.019486,1.050180
2011-10-03T12:55:39.947992,4950,-0.685936,-0.973591,0.101236,-0.028852,0.016342,1.048846
2011-10-03T12:55:39.957992,4960,-0.574141,-0.884691,0.160849,-0.027344,0.013198,1.047513
2011-10-03T12:55:39.967992,4970,-0.462346,-0.795791,0.220462,-0.025836,0.010054,1.046180
2011-10-03T12:55:39.977992,4980,-0.350552,-0.706892,0.280076,-0.024328,0.006910,1.044846
2011-10-03T12:55:39.987992,4990,-0.238757,-0.617992,0.339689,-0.022820,0.003766,1.043513
2011-10-03T12:55:39.997992,5000,-0.126962,-0.529092,0.399303,-0.021313,0.000622,1.042180
2011-10-03T12:55:40.007992,5010,-0.015167,-0.440193,0.458916,-0.019805,-0.002522,1.040846
2011-10-03T12:55:40.017992,5020,0.095848,-0.351292,0.517031,-0.018378,-0.005399,1.039446
2011-10-03T12:55:40.027992,5030,0.183884,-0.262359,0.530939,-0.019333,-0.000393,1.036076
2011-10-03T12:55:40.037992,5040,0.271920,-0.173426,0.544848,-0.020289,0.004614,1.032707
2011-10-03T12:55:40.047992,5050,0.359956,-0.084494,0.558756,-0.021244,0.009620,1.029337
2011-10-03T12:55:40.057992,5060,0.447992,0.004439,0.572664,-0.022200,0.014626,1.025968
2011-10-03T12:55:40.067992,5070,0.536028,0.093371,0.586572,-0.023155,0.019633,1.022598
2011-10-03T12:55:40.077992,5080,0.624064,0.182304,0.600481,-0.024110,0.024639,1.019229
2011-10-03T12:55:40.087992,5090,0.712099,0.271237,0.614389,-0.025066,0.029645,1.015859
2011-10-03T12:55:40.097992,5100,0.800135,0.360169,0.628297,-0.026021,0.034652,1.012489
2011-10-03T12:55:40.107992,5110,0.888171,0.449102,0.642205,-0.026977,0.039658,1.009120
2011-10-03T12:55:40.117992,5120,0.968004,0.534005,0.655118,-0.028030,0.044544,1.005892
2011-10-03T12:55:40.127992,5130,0.850898,0.522182,0.644123,-0.031421,0.046544,1.006055
2011-10-03T12:55:40.137992,5140,0.733793,0.510359,0.633127,-0.034811,0.048544,1.006218
2011-10-03T12:55:40.147992,5150,0.616688,0.498535,0.622132,-0.038202,0.050545,1.006381
2011-10-03T12:55:40.157992,5160,0.499583,0.486712,0.611137,-0.041593,0.052545,1.006544
2011-10-03T12:55:40.167992,5170,0.382478,0.474889,0.600142,-0.044984,0.054545,1.006708
2011-10-03T12:55:40.177992,5180,0.265372,0.463065,0.589147,-0.048375,0.056545,1.006871
2011-10-03T12:55:40.187992,5190,0.148267,0.451242,0.578152,-0.051766,0.058545,1.007034
2011-10-03T12:55:40.197992,5200,0.031162,0.439419,0.567157,-0.055156,0.060545,1.007197
2011-10-03T12:55:40.207992,5210,-0.085943,0.427595,0.556162,-0.058547,0.062545,1.007361
2011-10-03T12:55:40.217992,5220,-0.203048,0.415772,0.545167,-0.061938,0.064545,1.007524
2011-10-03T12:55:40.227992,5230,-0.322047,0.396941,0.533368,-0.065142,0.066333,1.007282
2011-10-03T12:55:40.237992,5240,-0.482401,0.225016,0.504007,-0.064267,0.063471,0.998189
2011-10-03T12:55:40.247992,5250,-0.642754,0.053091,0.474646,-0.063392,0.060610,0.989096
2011-10-03T12:55:40.257992,5260,-0.803108,-0.118834,0.445286,-0.062518,0.057749,0.980003
2011-10-03T12:55:40.267992,5270,-0.963462,-0.290759,0.415925,-0.061643,0.054887,0.970911
2011-10-03T12:55:40.277992,5280,-1.123816,-0.462684,0.386564,-0.060768,0.052026,0.961818
2011-10-03T12:55:40.287992,5290,-1.284170,-0.634609,0.357204,-0.059893,0.049165,0.952725
2011-10-03T12:55:40.297992,5300,-1.444523,-0.806534,0.327843,-0.059018,0.046303,0.943632
2011-10-03T12:55:40.307992,5310,-1.604877,-0.978459,0.298482,-0.058143,0.043442,0.934539
2011-10-03T12:55:40.317992,5320,-1.765231,-1.150384,0.269122,-0.057268,0.040581,0.925446
2011-10-03T12:55:40.327992,5330,-1.912851,-1.319341,0.241379,-0.056384,0.037803,0.917234
2011-10-03T12:55:40.337992,5340,-1.769250,-1.420428,0.250644,-0.055288,0.036948,0.929148
2011-10-03T12:55:40.347992,5350,-1.625649,-1.521514,0.259909,-0.054193,0.036092,0.941062
2011-10-03T12:55:40.357992,5360,-1.482047,-1.622601,0.269174,-0.053097,0.035237,0.952976
2011-10-03T12:55:40.367992,5370,-1.338446,-1.723687,0.278440,-0.052001,0.034381,0.964890
2011-10-03T12:55:40.377992,5380,-1.194845,-1.824774,0.287705,-0.050906,0.033526,0.976804
2011-10-03T12:55:40.387992,5390,-1.051244,-1.925861,0.296970,-0.049810,0.032670,0.988718
2011-10-03T12:55:40.397992,5400,-0.907643,-2.026947,0.306235,-0.048714,0.031814,1.000632
2011-10-03T12:55:40.407992,5410,-0.764042,-2.128034,0.315500,-0.047619,0.030959,1.012546
2011-10-03T12:55:40.417992,5420,-0.620440,-2.229120,0.324765,-0.046523,0.030103,1.024460
2011-10-03T12:55:40.427992,5430,-0.476839,-2.330207,0.334031,-0.045428,0.029248,1.036374
2011-10-03T12:55:40.437992,5440,-0.337130,-2.422149,0.343007,-0.044310,0.028425,1.048032
2011-10-03T12:55:40.447992,5450,-0.328723,-2.205538,0.342259,-0.042454,0.028689,1.051042
2011-10-03T12:55:40.457992,5460,-0.320317,-1.988928,0.341511,-0.040599,0.028954,1.054053
2011-10-03T12:55:40.467992,5470,-0.311911,-1.772318,0.340763,-0.038743,0.029219,1.057063
2011-10-03T12:55:40.477992,5480,-0.303505,-1.555708,0.340015,-0.036888,0.029483,1.060073
2011-10-03T12:55:40.487992,5490,-0.295098,-1.339097,0.339267,-0.035032,0.029748,1.063084
2011-10-03T12:55:40.497992,5500,-0.286692,-1.122487,0.338519,-0.033177,0.030013,1.066094
2011-10-03T12:55:40.507992,5510,-0.278286,-0.905877,0.337771,-0.031321,0.030277,1.069105
2011-10-03T12:55:40.517992,5520,-0.269880,-0.689267,0.337023,-0.029466,0.030542,1.072115
2011-10-03T12:55:40.527992,5530,-0.261473,-0.472657,0.336275,-0.027610,0.030807,1.075126
2011-10-03T12:55:40.537992,5540,-0.250975,-0.256155,0.334493,-0.025845,0.031035,1.077877
2011-10-03T12:55:40.547992,5550,-0.196475,-0.041937,0.310970,-0.025969,0.030503,1.075173
2011-10-03T12:55:40.557992,5560,-0.141975,0.172280,0.287447,-0.026093,0.029970,1.072469
2011-10-03T12:55:40.567992,5570,-0.087475,0.386498,0.263924,-0.026217,0.029438,1.069765
2011-10-03T12:55:40.577992,5580,-0.032975,0.600715,0.240401,-0.026341,0.028905,1.067061
2011-10-03T12:55:40.587992,5590,0.021525,0.814933,0.216877,-0.026465,0.028373,1.064356
2011-10-03T12:55:40.597992,5600,0.076025,1.029150,0.193354,-0.026589,0.027840,1.061652
2011-10-03T12:55:40.607992,5610,0.130525,1.243368,0.169831,-0.026714,0.027308,1.058948
2011-10-03T12:55:40.617992,5620,0.185025,1.457585,0.146308,-0.026838,0.026775,1.056244
2011-10-03T12:55:40.627992,5630,0.239525,1.671803,0.122785,-0.026962,0.026243,1.053540
2011-10-03T12:55:40.637992,5640,0.294919,1.872926,0.100666,-0.027205,0.025789,1.050598
2011-10-03T12:55:40.647992,5650,0.366949,1.830393,0.104672,-0.029672,0.026807,1.043220
2011-10-03T12:55:40.657992,5660,0.438979,1.787861,0.108678,-0.032139,0.027825,1.035842
2011-10-03T12:55:40.667992,5670,0.511008,1.745328,0.112684,-0.034606,0.028842,1.028464
2011-10-03T12:55:40.677992,5680,0.583038,1.702796,0.116690,-0.037072,0.029860,1.021087
2011-10-03T12:55:40.687992,5690,0.655068,1.660263,0.120695,-0.039539,0.030877,1.013709
2011-10-03T12:55:40.697992,5700,0.727098,1.617730,0.124701,-0.042006,0.031895,1.006331
2011-10-03T12:55:40.707992,5710,0.799127,1.575198,0.128707,-0.044472,0.032913,0.998953
2011-10-03T12:55:40.717992,5720,0.871157,1.532665,0.132713,-0.046939,0.033930,0.991576
2011-10-03T12:55:40.727992,5730,0.943187,1.490133,0.136719,-0.049406,0.034948,0.984198
2011-10-03T12:55:40.737992,5740,1.015217,1.447600,0.140725,-0.051872,0.035965,0.976820
2011-10-03T12:55:40.747992,5750,1.083183,1.402586,0.144193,-0.054208,0.036979,0.969877
2011-10-03T12:55:40.757992,5760,1.075246,1.311214,0.137623,-0.054092,0.037910,0.971059
2011-10-03T12:55:40.767992,5770,1.067308,1.219841,0.131053,-0.053976,0.038842,0.972241
2011-10-03T12:55:40.777992,5780,1.059370,1.128469,0.124483,-0.053860,0.039773,0.973422
2011-10-03T12:55:40.787992,5790,1.051433,1.037096,0.117913,-0.053744,0.040705,0.974604
2011-10-03T12:55:40.797992,5800,1.043495,0.945723,0.111342,-0.053628,0.041636,0.975786
2011-10-03T12:55:40.807992,5810,1.035557,0.854351,0.104772,-0.053512,0.042568,0.976967
2011-10-03T12:55:40.817992,5820,1.027619,0.762978,0.098202,-0.053397,0.043500,0.978149
2011-10-03T12:55:40.827992,5830,1.019682,0.671606,0.091632,-0.053281,0.044431,0.979331
2011-10-03T12:55:40.837992,5840,1.011744,0.580233,0.085062,-0.053165,0.045363,0.980512
2011-10-03T12:55:40.847992,5850,1.006123,0.489558,0.078947,-0.053043,0.046089,0.981594
2011-10-03T12:55:40.857992,5860,1.040702,0.410986,0.080730,-0.052818,0.043250,0.980943
2011-10-03T12:55:40.867992,5870,1.075281,0.332414,0.082513,-0.052593,0.040412,0.980292
2011-10-03T12:55:40.877992,5880,1.109860,0.253842,0.084297,-0.052367,0.037573,0.979641
2011-10-03T12:55:40.887992,5890,1.144439,0.175270,0.086080,-0.052142,0.034734,0.978990
2011-10-03T12:55:40.897992,5900,1.179018,0.096698,0.087863,-0.051917,0.031896,0.978339
2011-10-03T12:55:40.907992,5910,1.213597,0.018125,0.089647,-0.051692,0.029057,0.977687
2011-10-03T12:55:40.917992,5920,1.248176,-0.060447,0.091430,-0.051467,0.026219,0.977036
2011-10-03T12:55:40.927992,5930,1.282755,-0.139019,0.093213,-0.051241,0.023380,0.976385
2011-10-03T12:55:40.937992,5940,1.317334,-0.217591,0.094996,-0.051016,0.020541,0.975734
2011-10-03T12:55:40.947992,5950,1.350766,-0.295350,0.097088,-0.050761,0.017881,0.975171
2011-10-03T12:55:40.957992,5960,1.345957,-0.345959,0.109458,-0.049485,0.021158,0.977563
2011-10-03T12:55:40.967992,5970,1.341147,-0.396568,0.121828,-0.048209,0.024434,0.979954
2011-10-03T12:55:40.977992,5980,1.336338,-0.447177,0.134198,-0.046934,0.027711,0.982345
2011-10-03T12:55:40.987992,5990,1.331529,-0.497787,0.146568,-0.045658,0.030988,0.984736
2011-10-03T12:55:40.997992,6000,1.326719,-0.548396,0.158939,-0.044383,0.034265,0.987128
2011-10-03T12:55:41.007992,6010,1.321910,-0.599005,0.171309,-0.043107,0.037542,0.989519
2011-10-03T12:55:41.017992,6020,1.317100,-0.649615,0.183679,-0.041832,0.040819,0.991910
2011-10-03T12:55:41.027992,6030,1.312291,-0.700224,0.196049,-0.040556,0.044095,0.994301
2011-10-03T12:55:41.037992,6040,1.307481,-0.750833,0.208419,-0.039281,0.047372,0.996693
2011-10-03T12:55:41.047992,6050,1.302672,-0.801442,0.220789,-0.038005,0.050649,0.999084
2011-10-03T12:55:41.057992,6060,1.297095,-0.844129,0.234120,-0.036747,0.053659,1.001615
2011-10-03T12:55:41.067992,6070,1.277752,-0.744705,0.264680,-0.035803,0.051872,1.006660
2011-10-03T12:55:41.077992,6080,1.258409,-0.645281,0.295240,-0.034860,0.050085,1.011705
2011-10-03T12:55:41.087992,6090,1.239066,-0.545857,0.325799,-0.033916,0.048299,1.016750
2011-10-03T12:55:41.097992,6100,1.219722,-0.446434,0.356359,-0.032973,0.046512,1.021795
2011-10-03T12:55:41.107992,6110,1.200379,-0.347010,0.386919,-0.032029,0.044725,1.026840
2011-10-03T12:55:41.117992,6120,1.181036,-0.247586,0.417479,-0.031085,0.042939,1.031885
2011-10-03T12:55:41.127992,6130,1.161693,-0.148162,0.448038,-0.030142,0.041152,1.036930
2011-10-03T12:55:41.137992,6140,1.142350,-0.048738,0.478598,-0.029198,0.039365,1.041975
2011-10-03T12:55:41.147992,6150,1.123007,0.050685,0.509158,-0.028255,0.037579,1.047020
2011-10-03T12:55:41.157992,6160,1.105991,0.152290,0.538975,-0.027347,0.035779,1.051795
2011-10-03T12:55:41.167992,6170,1.167165,0.327150,0.543854,-0.027660,0.033537,1.047487
2011-10-03T12:55:41.177992,6180,1.228339,0.502010,0.548732,-0.027973,0.031295,1.043179
2011-10-03T12:55:41.187992,6190,1.289513,0.676870,0.553610,-0.028285,0.029054,1.038871
2011-10-03T12:55:41.197992,6200,1.350687,0.851730,0.558489,-0.028598,0.026812,1.034563
2011-10-03T12:55:41.207992,6210,1.411861,1.026590,0.563367,-0.028911,0.024570,1.030255
2011-10-03T12:55:41.217992,6220,1.473035,1.201450,0.568245,-0.029223,0.022329,1.025947
2011-10-03T12:55:41.227992,6230,1.534209,1.376309,0.573123,-0.029536,0.020087,1.021639
2011-10-03T12:55:41.237992,6240,1.595383,1.551169,0.578002,-0.029849,0.017845,1.017331
2011-10-03T12:55:41.247992,6250,1.656557,1.726029,0.582880,-0.030161,0.015604,1.013023
2011-10-03T12:55:41.257992,6260,1.717731,1.900889,0.587758,-0.030474,0.013362,1.008715
2011-10-03T12:55:41.267992,6270,1.770071,2.070473,0.591052,-0.030904,0.011616,1.004212
2011-10-03T12:55:41.277992,6280,1.642877,2.132838,0.562138,-0.033717,0.019956,0.995747
2011-10-03T12:55:41.287992,6290,1.515683,2.195203,0.533224,-0.036530,0.028295,0.987282
2011-10-03T12:55:41.297992,6300,1.388488,2.257568,0.504310,-0.039343,0.036634,0.978817
2011-10-03T12:55:41.307992,6310,1.261294,2.319933,0.475396,-0.042156,0.044974,0.970351
2011-10-03T12:55:41.317992,6320,1.134100,2.382298,0.446482,-0.044969,0.053313,0.961886
2011-10-03T12:55:41.327992,6330,1.006906,2.444663,0.417568,-0.047782,0.061652,0.953421
2011-10-03T12:55:41.337992,6340,0.879712,2.507028,0.388654,-0.050596,0.069991,0.944956
2011-10-03T12:55:41.347992,6350,0.752518,2.569393,0.359740,-0.053409,0.078331,0.936491
2011-10-03T12:55:41.357992,6360,0.625323,2.631758,0.330826,-0.056222,0.086670,0.928026
2011-10-03T12:55:41.367992,6370,0.499778,2.681851,0.303138,-0.058914,0.094446,0.920237
2011-10-03T12:55:41.377992,6380,0.401574,2.528490,0.295774,-0.059609,0.092875,0.923654
2011-10-03T12:55:41.387992,6390,0.303369,2.375128,0.288410,-0.060304,0.091305,0.927072
2011-10-03T12:55:41.397992,6400,0.205165,2.221767,0.281045,-0.060998,0.089735,0.930490
2011-10-03T12:55:41.407992,6410,0.106960,2.068405,0.273681,-0.061693,0.088165,0.933908
2011-10-03T12:55:41.417992,6420,0.008756,1.915044,0.266316,-0.062388,0.086595,0.937326
2011-10-03T12:55:41.427992,6430,-0.089449,1.761682,0.258952,-0.063082,0.085024,0.940743
2011-10-03T12:55:41.437992,6440,-0.187653,1.608321,0.251588,-0.063777,0.083454,0.944161
2011-10-03T12:55:41.447992,6450,-0.285858,1.454959,0.244223,-0.064471,0.081884,0.947579
2011-10-03T12:55:41.457992,6460,-0.384062,1.301598,0.236859,-0.065166,0.080314,0.950997
2011-10-03T12:55:41.467992,6470,-0.479035,1.146450,0.232361,-0.066004,0.078758,0.954132
2011-10-03T12:55:41.477992,6480,-0.507422,0.954494,0.286926,-0.069787,0.077510,0.951447
2011-10-03T12:55:41.487992,6490,-0.535810,0.762538,0.341491,-0.073571,0.076261,0.948761
2011-10-03T12:55:41.497992,6500,-0.564197,0.570582,0.396056,-0.077354,0.075012,0.946075
2011-10-03T12:55:41.507992,6510,-0.592585,0.378626,0.450621,-0.081137,0.073764,0.943390
2011-10-03T12:55:41.517992,6520,-0.620972,0.186670,0.505186,-0.084921,0.072515,0.940704
2011-10-03T12:55:41.527992,6530,-0.649360,-0.005286,0.559751,-0.088704,0.071266,0.938019
2011-10-03T12:55:41.537992,6540,-0.677747,-0.197242,0.614316,-0.092488,0.070018,0.935333
2011-10-03T12:55:41.547992,6550,-0.706135,-0.389198,0.668881,-0.096271,0.068769,0.932648
2011-10-03T12:55:41.557992,6560,-0.734523,-0.581154,0.723446,-0.100055,0.067520,0.929962
2011-10-03T12:55:41.567992,6570,-0.762910,-0.773110,0.778012,-0.103838,0.066272,0.927276
2011-10-03T12:55:41.577992,6580,-0.789297,-0.970070,0.829155,-0.107348,0.065098,0.925217
2011-10-03T12:55:41.587992,6590,-0.784108,-1.246008,0.826304,-0.106536,0.065111,0.933045
2011-10-03T12:55:41.597992,6600,-0.778920,-1.521946,0.823452,-0.105725,0.065123,0.940872
2011-10-03T12:55:41.607992,6610,-0.773732,-1.797884,0.820601,-0.104913,0.065136,0.948700
2011-10-03T12:55:41.617992,6620,-0.768544,-2.073822,0.817750,-0.104101,0.065148,0.956527
2011-10-03T12:55:41.627992,6630,-0.763356,-2.349760,0.814899,-0.103290,0.065160,0.964355
2011-10-03T12:55:41.637992,6640,-0.758167,-2.625698,0.812047,-0.102478,0.065173,0.972182
2011-10-03T12:55:41.647992,6650,-0.752979,-2.901636,0.809196,-0.101667,0.065185,0.980010
2011-10-03T12:55:41.657992,6660,-0.747791,-3.177574,0.806345,-0.100855,0.065198,0.987837
2011-10-03T12:55:41.667992,6670,-0.742603,-3.453512,0.803494,-0.100043,0.065210,0.995664
2011-10-03T12:55:41.677992,6680,-0.738356,-3.707926,0.798906,-0.099242,0.065297,1.003377
2011-10-03T12:55:41.687992,6690,-0.748065,-3.643215,0.768568,-0.098590,0.066484,1.009383
2011-10-03T12:55:41.697992,6700,-0.757774,-3.578504,0.738230,-0.097939,0.067671,1.015389
2011-10-03T12:55:41.707992,6710,-0.767483,-3.513793,0.707892,-0.097287,0.068859,1.021396
2011-10-03T12:55:41.717992,6720,-0.777192,-3.449082,0.677555,-0.096636,0.070046,1.027402
2011-10-03T12:55:41.727992,6730,-0.786901,-3.384371,0.647217,-0.095984,0.071234,1.033408
2011-10-03T12:55:41.737992,6740,-0.796610,-3.319660,0.616879,-0.095333,0.072421,1.039414
2011-10-03T12:55:41.747992,6750,-0.806319,-3.254949,0.586542,-0.094681,0.073609,1.045421
2011-10-03T12:55:41.757992,6760,-0.816028,-3.190238,0.556204,-0.094030,0.074796,1.051427
2011-10-03T12:55:41.767992,6770,-0.825737,-3.125527,0.525866,-0.093378,0.075984,1.057433
2011-10-03T12:55:41.777992,6780,-0.841008,-3.046757,0.497879,-0.092892,0.077068,1.063233
2011-10-03T12:55:41.787992,6790,-0.942065,-2.751146,0.506148,-0.094962,0.076571,1.065844
2011-10-03T12:55:41.797992,6800,-1.043122,-2.455535,0.514418,-0.097032,0.076074,1.068454
2011-10-03T12:55:41.807992,6810,-1.144178,-2.159924,0.522687,-0.099101,0.075577,1.071065
2011-10-03T12:55:41.817992,6820,-1.245235,-1.864313,0.530957,-0.101171,0.075080,1.073676
2011-10-03T12:55:41.827992,6830,-1.346292,-1.568702,0.539226,-0.103241,0.074583,1.076286
2011-10-03T12:55:41.837992,6840,-1.447349,-1.273092,0.547495,-0.105310,0.074085,1.078897
2011-10-03T12:55:41.847992,6850,-1.548406,-0.977481,0.555765,-0.107380,0.073588,1.081507
2011-10-03T12:55:41.857992,6860,-1.649462,-0.681870,0.564034,-0.109450,0.073091,1.084118
2011-10-03T12:55:41.867992,6870,-1.750519,-0.386259,0.572303,-0.111519,0.072594,1.086729
2011-10-03T12:55:41.877992,6880,-1.851576,-0.090648,0.580573,-0.113589,0.072097,1.089339
2011-10-03T12:55:41.887992,6890,-1.944122,0.195540,0.587839,-0.115735,0.071486,1.091423
2011-10-03T12:55:41.897992,6900,-1.898943,0.329258,0.578879,-0.119107,0.069035,1.084984
2011-10-03T12:55:41.907992,6910,-1.853764,0.462976,0.569919,-0.122479,0.066583,1.078544
2011-10-03T12:55:41.917992,6920,-1.808585,0.596694,0.560959,-0.125851,0.064132,1.072104
2011-10-03T12:55:41.927992,6930,-1.763406,0.730413,0.551999,-0.129223,0.061681,1.065664
2011-10-03T12:55:41.937992,6940,-1.718228,0.864131,0.543039,-0.132595,0.059230,1.059224
2011-10-03T12:55:41.947992,6950,-1.673049,0.997849,0.534079,-0.135967,0.056778,1.052785
2011-10-03T12:55:41.957992,6960,-1.627870,1.131567,0.525118,-0.139339,0.054327,1.046345
2011-10-03T12:55:41.967992,6970,-1.582691,1.265285,0.516158,-0.142711,0.051876,1.039905
2011-10-03T12:55:41.977992,6980,-1.537513,1.399003,0.507198,-0.146083,0.049425,1.033465
2011-10-03T12:55:41.987992,6990,-1.496367,1.523349,0.499500,-0.149251,0.047058,1.027009
2011-10-03T12:55:41.997992,7000,-1.525998,1.483209,0.513961,-0.148840,0.046178,1.020261
2011-10-03T12:55:42.007992,7010,-1.555629,1.443070,0.528422,-0.148429,0.045297,1.013514
2011-10-03T12:55:42.017992,7020,-1.585260,1.402930,0.542883,-0.148018,0.044417,1.006766
2011-10-03T12:55:42.027992,7030,-1.614891,1.362790,0.557343,-0.147606,0.043536,1.000019
2011-10-03T12:55:42.037992,7040,-1.644523,1.322650,0.571804,-0.147195,0.042656,0.993271
2011-10-03T12:55:42.047992,7050,-1.674154,1.282510,0.586265,-0.146784,0.041776,0.986524
2011-10-03T12:55:42.057992,7060,-1.703785,1.242371,0.600725,-0.146373,0.040895,0.979776
2011-10-03T12:55:42.067992,7070,-1.733416,1.202231,0.615186,-0.145962,0.040015,0.973028
2011-10-03T12:55:42.077992,7080,-1.763048,1.162091,0.629647,-0.145551,0.039134,0.966281
2011-10-03T12:55:42.087992,7090,-1.783685,1.117464,0.642893,-0.145115,0.038343,0.960065
2011-10-03T12:55:42.097992,7100,-1.648265,0.994983,0.635079,-0.144256,0.039095,0.963077
2011-10-03T12:55:42.107992,7110,-1.512846,0.872501,0.627264,-0.143397,0.039847,0.966090
2011-10-03T12:55:42.117992,7120,-1.377426,0.750020,0.619450,-0.142539,0.040600,0.969102
2011-10-03T12:55:42.127992,7130,-1.242007,0.627539,0.611635,-0.141680,0.041352,0.972114
2011-10-03T12:55:42.137992,7140,-1.106587,0.505057,0.603821,-0.140821,0.042104,0.975127
2011-10-03T12:55:42.147992,7150,-0.971167,0.382576,0.596006,-0.139962,0.042856,0.978139
2011-10-03T12:55:42.157992,7160,-0.835748,0.260095,0.588192,-0.139104,0.043609,0.981151
2011-10-03T12:55:42.167992,7170,-0.700328,0.137613,0.580377,-0.138245,0.044361,0.984164
2011-10-03T12:55:42.177992,7180,-0.564909,0.015132,0.572563,-0.137386,0.045113,0.987176
2011-10-03T12:55:42.187992,7190,-0.429489,-0.107350,0.564748,-0.136527,0.045865,0.990188
2011-10-03T12:55:42.197992,7200,-0.306236,-0.217089,0.559483,-0.135761,0.046493,0.993216
2011-10-03T12:55:42.207992,7210,-0.346656,-0.155417,0.588508,-0.136234,0.045445,0.996453
2011-10-03T12:55:42.217992,7220,-0.387077,-0.093744,0.617533,-0.136707,0.044397,0.999689
2011-10-03T12:55:42.227992,7230,-0.427497,-0.032071,0.646558,-0.137180,0.043349,1.002926
2011-10-03T12:55:42.237992,7240,-0.467918,0.029601,0.675583,-0.137653,0.042301,1.006163
2011-10-03T12:55:42.247992,7250,-0.508338,0.091274,0.704608,-0.138126,0.041253,1.009399
2011-10-03T12:55:42.257992,7260,-0.548759,0.152947,0.733633,-0.138600,0.040205,1.012636
2011-10-03T12:55:42.267992,7270,-0.589179,0.214620,0.762658,-0.139073,0.039157,1.015873
2011-10-03T12:55:42.277992,7280,-0.629600,0.276292,0.791683,-0.139546,0.038109,1.019109
2011-10-03T12:55:42.287992,7290,-0.670020,0.337965,0.820708,-0.140019,0.037060,1.022346
2011-10-03T12:55:42.297992,7300,-0.707190,0.394060,0.847209,-0.140424,0.036104,1.025185
2011-10-03T12:55:42.307992,7310,-0.698713,0.371822,0.838277,-0.139879,0.036431,1.022439
2011-10-03T12:55:42.317992,7320,-0.690237,0.349584,0.829345,-0.139333,0.036758,1.019693
2011-10-03T12:55:42.327992,7330,-0.681760,0.327346,0.820413,-0.138788,0.037085,1.016946
2011-10-03T12:55:42.337992,7340,-0.673283,0.305109,0.811481,-0.138242,0.037412,1.014200
2011-10-03T12:55:42.347992,7350,-0.664807,0.282871,0.802549,-0.137696,0.037738,1.011454
2011-10-03T12:55:42.357992,7360,-0.656330,0.260633,0.793618,-0.137151,0.038065,1.008708
2011-10-03T12:55:42.367992,7370,-0.647854,0.238396,0.784686,-0.136605,0.038392,1.005962
2011-10-03T12:55:42.377992,7380,-0.639377,0.216158,0.775754,-0.136060,0.038719,1.003216
2011-10-03T12:55:42.387992,7390,-0.630900,0.193920,0.766822,-0.135514,0.039046,1.000470
2011-10-03T12:55:42.397992,7400,-0.622424,0.171682,0.757890,-0.134969,0.039373,0.997724
2011-10-03T12:55:42.407992,7410,-0.610705,0.153524,0.750222,-0.134513,0.039708,0.994938
2011-10-03T12:55:42.417992,7420,-0.557263,0.187875,0.758830,-0.135222,0.040149,0.991641
2011-10-03T12:55:42.427992,7430,-0.503821,0.222226,0.767437,-0.135931,0.040590,0.988345
2011-10-03T12:55:42.437992,7440,-0.450379,0.256576,0.776044,-0.136640,0.041031,0.985048
2011-10-03T12:55:42.447992,7450,-0.396937,0.290927,0.784651,-0.137349,0.041472,0.981751
2011-10-03T12:55:42.457992,7460,-0.343495,0.325278,0.793259,-0.138058,0.041912,0.978454
2011-10-03T12:55:42.467992,7470,-0.290053,0.359628,0.801866,-0.138766,0.042353,0.975158
2011-10-03T12:55:42.477992,7480,-0.236611,0.393979,0.810473,-0.139475,0.042794,0.971861
2011-10-03T12:55:42.487992,7490,-0.183169,0.428329,0.819081,-0.140184,0.043235,0.968564
2011-10-03T12:55:42.497992,7500,-0.129726,0.462680,0.827688,-0.140893,0.043676,0.965267
2011-10-03T12:55:42.507992,7510,-0.077931,0.495051,0.835103,-0.141493,0.044237,0.962372
2011-10-03T12:55:42.517992,7520,-0.049260,0.499627,0.825773,-0.140567,0.046490,0.965114
2011-10-03T12:55:42.527992,7530,-0.020588,0.504204,0.816444,-0.139641,0.048743,0.967856
2011-10-03T12:55:42.537992,7540,0.008084,0.508780,0.807115,-0.138714,0.050997,0.970598
2011-10-03T12:55:42.547992,7550,0.036755,0.513356,0.797786,-0.137788,0.053250,0.973340
2011-10-03T12:55:42.557992,7560,0.065427,0.517932,0.788457,-0.136862,0.055503,0.976082
2011-10-03T12:55:42.567992,7570,0.094098,0.522508,0.779128,-0.135936,0.057756,0.978824
2011-10-03T12:55:42.577992,7580,0.122770,0.527084,0.769798,-0.135009,0.060009,0.981566
2011-10-03T12:55:42.587992,7590,0.151441,0.531660,0.760469,-0.134083,0.062262,0.984307
2011-10-03T12:55:42.597992,7600,0.180113,0.536236,0.751140,-0.133157,0.064515,0.987049
2011-10-03T12:55:42.607992,7610,0.198801,0.544684,0.742600,-0.132350,0.066468,0.989699
2011-10-03T12:55:42.617992,7620,0.088566,0.603126,0.744251,-0.133087,0.064543,0.991162
2011-10-03T12:55:42.627992,7630,-0.021668,0.661569,0.745902,-0.133825,0.062619,0.992625
2011-10-03T12:55:42.637992,7640,-0.131902,0.720011,0.747553,-0.134562,0.060694,0.994088
2011-10-03T12:55:42.647992,7650,-0.242136,0.778454,0.749205,-0.135299,0.058769,0.995551
2011-10-03T12:55:42.657992,7660,-0.352370,0.836896,0.750856,-0.136036,0.056845,0.997013
2011-10-03T12:55:42.667992,7670,-0.462605,0.895339,0.752507,-0.136774,0.054920,0.998476
2011-10-03T12:55:42.677992,7680,-0.572839,0.953781,0.754158,-0.137511,0.052995,0.999939
2011-10-03T12:55:42.687992,7690,-0.683073,1.012224,0.755809,-0.138248,0.051071,1.001402
2011-10-03T12:55:42.697992,7700,-0.793307,1.070666,0.757460,-0.138985,0.049146,1.002865
2011-10-03T12:55:42.707992,7710,-0.903541,1.129109,0.759111,-0.139723,0.047221,1.004327
2011-10-03T12:55:42.717992,7720,-1.005287,1.191282,0.759772,-0.140517,0.045362,1.005572
2011-10-03T12:55:42.727992,7730,-0.971600,1.312968,0.744622,-0.142218,0.044537,1.003338
2011-10-03T12:55:42.737992,7740,-0.937914,1.434655,0.729472,-0.143919,0.043713,1.001103
2011-10-03T12:55:42.747992,7750,-0.904227,1.556341,0.714322,-0.145621,0.042889,0.998869
2011-10-03T12:55:42.757992,7760,-0.870541,1.678028,0.699172,-0.147322,0.042064,0.996634
2011-10-03T12:55:42.767992,7770,-0.836854,1.799715,0.684022,-0.149023,0.041240,0.994400
2011-10-03T12:55:42.777992,7780,-0.803168,1.921401,0.668872,-0.150725,0.040415,0.992166
2011-10-03T12:55:42.787992,7790,-0.769482,2.043088,0.653723,-0.152426,0.039591,0.989931
2011-10-03T12:55:42.797992,7800,-0.735795,2.164774,0.638573,-0.154127,0.038767,0.987697
2011-10-03T12:55:42.807992,7810,-0.702109,2.286461,0.623423,-0.155828,0.037942,0.985462
2011-10-03T12:55:42.817992,7820,-0.676518,2.392851,0.610987,-0.157659,0.037194,0.983151
2011-10-03T12:55:42.827992,7830,-0.771553,2.271324,0.638990,-0.161418,0.037581,0.979701
2011-10-03T12:55:42.837992,7840,-0.866588,2.149797,0.666993,-0.165176,0.037967,0.976251
2011-10-03T12:55:42.847992,7850,-0.961623,2.028270,0.694996,-0.168935,0.038354,0.972801
2011-10-03T12:55:42.857992,7860,-1.056658,1.906743,0.722999,-0.172693,0.038740,0.969351
2011-10-03T12:55:42.867992,7870,-1.151693,1.785215,0.751002,-0.176452,0.039127,0.965901
2011-10-03T12:55:42.877992,7880,-1.246729,1.663688,0.779005,-0.180211,0.039513,0.962451
2011-10-03T12:55:42.887992,7890,-1.341764,1.542161,0.807008,-0.183969,0.039900,0.959001
2011-10-03T12:55:42.897992,7900,-1.436799,1.420634,0.835011,-0.187728,0.040286,0.955551
2011-10-03T12:55:42.907992,7910,-1.531834,1.299107,0.863014,-0.191486,0.040673,0.952101
2011-10-03T12:55:42.917992,7920,-1.621662,1.168361,0.888473,-0.195107,0.041051,0.948998
2011-10-03T12:55:42.927992,7930,-1.634408,0.901150,0.876271,-0.196680,0.041306,0.951037
2011-10-03T12:55:42.937992,7940,-1.647154,0.633939,0.864069,-0.198253,0.041561,0.953076
2011-10-03T12:55:42.947992,7950,-1.659900,0.366728,0.851868,-0.199827,0.041817,0.955115
2011-10-03T12:55:42.957992,7960,-1.672646,0.099517,0.839666,-0.201400,0.042072,0.957154
2011-10-03T12:55:42.967992,7970,-1.685392,-0.167694,0.827464,-0.202973,0.042328,0.959193
2011-10-03T12:55:42.977992,7980,-1.698138,-0.434905,0.815263,-0.204547,0.042583,0.961232
2011-10-03T12:55:42.987992,7990,-1.710884,-0.702116,0.803061,-0.206120,0.042838,0.963271
2011-10-03T12:55:42.997992,8000,-1.723630,-0.969327,0.790859,-0.207693,0.043094,0.965310
2011-10-03T12:55:43.007992,8010,-1.736376,-1.236537,0.778657,-0.209267,0.043349,0.967349
2011-10-03T12:55:43.017992,8020,-1.749122,-1.503748,0.766456,-0.210840,0.043604,0.969388
2011-10-03T12:55:43.027992,8030,-1.751871,-1.766851,0.754473,-0.212137,0.043605,0.971439
2011-10-03T12:55:43.037992,8040,-1.625589,-1.976930,0.745321,-0.209863,0.040317,0.973648
2011-10-03T12:55:43.047992,8050,-1.499306,-2.187009,0.736169,-0.207590,0.037029,0.975856
2011-10-03T12:55:43.057992,8060,-1.373024,-2.397087,0.727017,-0.205316,0.033741,0.978064
2011-10-03T12:55:43.067992,8070,-1.246741,-2.607166,0.717865,-0.203042,0.030453,0.980273
2011-10-03T12:55:43.077992,8080,-1.120459,-2.817245,0.708712,-0.200769,0.027165,0.982481
2011-10-03T12:55:43.087992,8090,-0.994176,-3.027324,0.699560,-0.198495,0.023877,0.984689
2011-10-03T12:55:43.097992,8100,-0.867894,-3.237402,0.690408,-0.196222,0.020589,0.986898
2011-10-03T12:55:43.107992,8110,-0.741611,-3.447481,0.681256,-0.193948,0.017301,0.989106
2011-10-03T12:55:43.117992,8120,-0.615328,-3.657560,0.672104,-0.191674,0.014013,0.991314
2011-10-03T12:55:43.127992,8130,-0.496183,-3.843260,0.664816,-0.189589,0.011324,0.993428
2011-10-03T12:55:43.137992,8140,-0.460715,-3.743139,0.679386,-0.189706,0.015656,0.994427
2011-10-03T12:55:43.147992,8150,-0.425246,-3.643017,0.693956,-0.189823,0.019988,0.995427
2011-10-03T12:55:43.157992,8160,-0.389778,-3.542896,0.708525,-0.189941,0.024320,0.996427
2011-10-03T12:55:43.167992,8170,-0.354310,-3.442775,0.723095,-0.190058,0.028652,0.997427
2011-10-03T12:55:43.177992,8180,-0.318841,-3.342653,0.737665,-0.190176,0.032984,0.998426
2011-10-03T12:55:43.187992,8190,-0.283373,-3.242532,0.752235,-0.190293,0.037316,0.999426
2011-10-03T12:55:43.197992,8200,-0.247905,-3.142411,0.766804,-0.190410,0.041648,1.000426
2011-10-03T12:55:43.207992,8210,-0.212437,-3.042289,0.781374,-0.190528,0.045980,1.001426
2011-10-03T12:55:43.217992,8220,-0.176968,-2.942168,0.795944,-0.190645,0.050313,1.002425
2011-10-03T12:55:43.227992,8230,-0.141500,-2.842047,0.810514,-0.190763,0.054645,1.003425
2011-10-03T12:55:43.237992,8240,-0.110796,-2.735376,0.819463,-0.190827,0.058582,1.004936
2011-10-03T12:55:43.247992,8250,-0.135702,-2.552245,0.762798,-0.190271,0.057910,1.012420
2011-10-03T12:55:43.257992,8260,-0.160607,-2.369114,0.706133,-0.189715,0.057237,1.019903
2011-10-03T12:55:43.267992,8270,-0.185513,-2.185984,0.649468,-0.189159,0.056565,1.027387
2011-10-03T12:55:43.277992,8280,-0.210419,-2.002853,0.592803,-0.188603,0.055893,1.034870
2011-10-03T12:55:43.287992,8290,-0.235325,-1.819722,0.536139,-0.188047,0.055221,1.042353
2011-10-03T12:55:43.297992,8300,-0.260231,-1.636592,0.479474,-0.187491,0.054548,1.049837
2011-10-03T12:55:43.307992,8310,-0.285137,-1.453461,0.422809,-0.186935,0.053876,1.057320
2011-10-03T12:55:43.317992,8320,-0.310043,-1.270331,0.366144,-0.186379,0.053204,1.064803
2011-10-03T12:55:43.327992,8330,-0.334949,-1.087200,0.309480,-0.185823,0.052531,1.072287
2011-10-03T12:55:43.337992,8340,-0.364533,-0.897798,0.258650,-0.185516,0.051623,1.079383
2011-10-03T12:55:43.347992,8350,-0.447054,-0.637439,0.273847,-0.188024,0.048035,1.082099
2011-10-03T12:55:43.357992,8360,-0.529575,-0.377080,0.289045,-0.190532,0.044448,1.084815
2011-10-03T12:55:43.367992,8370,-0.612096,-0.116720,0.304242,-0.193040,0.040861,1.087530
2011-10-03T12:55:43.377992,8380,-0.694617,0.143639,0.319440,-0.195548,0.037274,1.090246
2011-10-03T12:55:43.387992,8390,-0.777138,0.403999,0.334637,-0.198056,0.033687,1.092962
2011-10-03T12:55:43.397992,8400,-0.859659,0.664358,0.349835,-0.200564,0.030100,1.095678
2011-10-03T12:55:43.407992,8410,-0.942180,0.924717,0.365032,-0.203072,0.026513,1.098393
2011-10-03T12:55:43.417992,8420,-1.024701,1.185077,0.380229,-0.205580,0.022926,1.101109
2011-10-03T12:55:43.427992,8430,-1.107222,1.445436,0.395427,-0.208088,0.019339,1.103825
2011-10-03T12:55:43.437992,8440,-1.178949,1.686557,0.410662,-0.210425,0.015927,1.105352
2011-10-03T12:55:43.447992,8450,-1.095191,1.650564,0.426444,-0.210301,0.015036,1.089759
2011-10-03T12:55:43.457992,8460,-1.011433,1.614570,0.442227,-0.210178,0.014145,1.074165
2011-10-03T12:55:43.467992,8470,-0.927676,1.578576,0.458009,-0.210054,0.013253,1.058571
2011-10-03T12:55:43.477992,8480,-0.843918,1.542582,0.473791,-0.209931,0.012362,1.042978
2011-10-03T12:55:43.487992,8490,-0.760161,1.506589,0.489573,-0.209807,0.011471,1.027384
2011-10-03T12:55:43.497992,8500,-0.676403,1.470595,0.505356,-0.209684,0.010580,1.011791
2011-10-03T12:55:43.507992,8510,-0.592646,1.434601,0.521138,-0.209561,0.009688,0.996197
2011-10-03T12:55:43.517992,8520,-0.508888,1.398608,0.536920,-0.209437,0.008797,0.980603
2011-10-03T12:55:43.527992,8530,-0.425131,1.362614,0.552702,-0.209314,0.007906,0.965010
2011-10-03T12:55:43.537992,8540,-0.341373,1.326620,0.568484,-0.209190,0.007015,0.949416
2011-10-03T12:55:43.547992,8550,-0.250156,1.274019,0.583054,-0.208978,0.006208,0.935088
2011-10-03T12:55:43.557992,8560,-0.068496,1.020068,0.582926,-0.207686,0.006432,0.936096
2011-10-03T12:55:43.567992,8570,0.113163,0.766117,0.582798,-0.206395,0.006657,0.937104
2011-10-03T12:55:43.577992,8580,0.294823,0.512165,0.582669,-0.205103,0.006881,0.938112
2011-10-03T12:55:43.587992,8590,0.476483,0.258214,0.582541,-0.203811,0.007105,0.939119
2011-10-03T12:55:43.597992,8600,0.658143,0.004263,0.582413,-0.202520,0.007329,0.940127
2011-10-03T12:55:43.607992,8610,0.839802,-0.249689,0.582284,-0.201228,0.007553,0.941135
2011-10-03T12:55:43.617992,8620,1.021462,-0.503640,0.582156,-0.199937,0.007777,0.942143
2011-10-03T12:55:43.627992,8630,1.203122,-0.757591,0.582028,-0.198645,0.008001,0.943151
2011-10-03T12:55:43.637992,8640,1.384781,-1.011542,0.581899,-0.197353,0.008226,0.944159
2011-10-03T12:55:43.647992,8650,1.570005,-1.251870,0.577190,-0.196015,0.008370,0.945284
2011-10-03T12:55:43.657992,8660,1.794460,-1.342225,0.522058,-0.194162,0.007638,0.947691
2011-10-03T12:55:43.667992,8670,2.018915,-1.432580,0.466925,-0.192310,0.006907,0.950098
2011-10-03T12:55:43.677992,8680,2.243370,-1.522935,0.411793,-0.190457,0.006175,0.952505
2011-10-03T12:55:43.687992,8690,2.467825,-1.613290,0.356660,-0.188604,0.005443,0.954913
2011-10-03T12:55:43.697992,8700,2.692280,-1.703645,0.301528,-0.186752,0.004711,0.957320
2011-10-03T12:55:43.707992,8710,2.916736,-1.794000,0.246396,-0.184899,0.003979,0.959727
2011-10-03T12:55:43.717992,8720,3.141191,-1.884355,0.191263,-0.183046,0.003247,0.962135
2011-10-03T12:55:43.727992,8730,3.365646,-1.974710,0.136131,-0.181194,0.002516,0.964542
2011-10-03T12:55:43.737992,8740,3.590101,-2.065065,0.080998,-0.179341,0.001784,0.966949
2011-10-03T12:55:43.747992,8750,3.783772,-2.152661,0.026246,-0.177453,0.001597,0.969475
2011-10-03T12:55:43.757992,8760,3.649409,-2.210860,-0.024453,-0.175189,0.007219,0.973267
2011-10-03T12:55:43.767992,8770,3.515046,-2.269060,-0.075153,-0.172925,0.012841,0.977060
2011-10-03T12:55:43.777992,8780,3.380683,-2.327259,-0.125853,-0.170661,0.018463,0.980852
2011-10-03T12:55:43.787992,8790,3.246320,-2.385459,-0.176552,-0.168397,0.024085,0.984644
2011-10-03T12:55:43.797992,8800,3.111957,-2.443658,-0.227252,-0.166134,0.029707,0.988436
2011-10-03T12:55:43.807992,8810,2.977593,-2.501858,-0.277951,-0.163870,0.035329,0.992229
2011-10-03T12:55:43.817992,8820,2.843230,-2.560057,-0.328651,-0.161606,0.040951,0.996021
2011-10-03T12:55:43.827992,8830,2.708867,-2.618257,-0.379350,-0.159342,0.046573,0.999813
2011-10-03T12:55:43.837992,8840,2.574504,-2.676456,-0.430050,-0.157078,0.052195,1.003605
2011-10-03T12:55:43.847992,8850,2.440141,-2.734656,-0.480749,-0.154814,0.057817,1.007397
2011-10-03T12:55:43.857992,8860,2.291067,-2.769479,-0.534940,-0.152660,0.063104,1.011229
2011-10-03T12:55:43.867992,8870,1.974450,-2.538051,-0.628894,-0.151756,0.064571,1.015502
2011-10-03T12:55:43.877992,8880,1.657833,-2.306623,-0.722849,-0.150851,0.066039,1.019776
2011-10-03T12:55:43.887992,8890,1.341217,-2.075195,-0.816803,-0.149947,0.067507,1.024049
2011-10-03T12:55:43.897992,8900,1.024600,-1.843767,-0.910758,-0.149042,0.068975,1.028323
2011-10-03T12:55:43.907992,8910,0.707983,-1.612339,-1.004712,-0.148137,0.070443,1.032597
2011-10-03T12:55:43.917992,8920,0.391366,-1.380911,-1.098667,-0.147233,0.071911,1.036870
2011-10-03T12:55:43.927992,8930,0.074749,-1.149483,-1.192621,-0.146328,0.073378,1.041144
2011-10-03T12:55:43.937992,8940,-0.241868,-0.918056,-1.286576,-0.145424,0.074846,1.045417
2011-10-03T12:55:43.947992,8950,-0.558485,-0.686628,-1.380530,-0.144519,0.076314,1.049691
2011-10-03T12:55:43.957992,8960,-0.863974,-0.458790,-1.472603,-0.143658,0.077254,1.053346
2011-10-03T12:55:43.967992,8970,-1.020218,-0.279114,-1.539432,-0.143374,0.071117,1.048696
2011-10-03T12:55:43.977992,8980,-1.176461,-0.099438,-1.606260,-0.143090,0.064981,1.044047
2011-10-03T12:55:43.987992,8990,-1.332705,0.080239,-1.673089,-0.142807,0.058844,1.039397
2011-10-03T12:55:43.997992,9000,-1.488949,0.259915,-1.739918,-0.142523,0.052707,1.034748
2011-10-03T12:55:44.007992,9010,-1.645192,0.439592,-1.806746,-0.142239,0.046570,1.030098
2011-10-03T12:55:44.017992,9020,-1.801436,0.619268,-1.873575,-0.141955,0.040433,1.025449
2011-10-03T12:55:44.027992,9030,-1.957680,0.798944,-1.940404,-0.141672,0.034297,1.020799
2011-10-03T12:55:44.037992,9040,-2.113923,0.978621,-2.007232,-0.141388,0.028160,1.016150
2011-10-03T12:55:44.047992,9050,-2.270167,1.158297,-2.074061,-0.141104,0.022023,1.011501
2011-10-03T12:55:44.057992,9060,-2.388865,1.326400,-2.137267,-0.140788,0.015685,1.007338
2011-10-03T12:55:44.067992,9070,-2.132919,1.379019,-2.164327,-0.140152,0.007339,1.008031
2011-10-03T12:55:44.077992,9080,-1.876973,1.431639,-2.191388,-0.139515,-0.001006,1.008724
2011-10-03T12:55:44.087992,9090,-1.621028,1.484258,-2.218448,-0.138878,-0.009352,1.009417
2011-10-03T12:55:44.097992,9100,-1.365082,1.536878,-2.245508,-0.138242,-0.017698,1.010110
2011-10-03T12:55:44.107992,9110,-1.109136,1.589497,-2.272568,-0.137605,-0.026044,1.010803
2011-10-03T12:55:44.117992,9120,-0.853191,1.642117,-2.299628,-0.136968,-0.034389,1.011496
2011-10-03T12:55:44.127992,9130,-0.597245,1.694736,-2.326688,-0.136332,-0.042735,1.012189
2011-10-03T12:55:44.137992,9140,-0.341299,1.747356,-2.353748,-0.135695,-0.051081,1.012882
2011-10-03T12:55:44.147992,9150,-0.085354,1.799975,-2.380808,-0.135058,-0.059426,1.013575
2011-10-03T12:55:44.157992,9160,0.170592,1.852594,-2.407868,-0.134422,-0.067772,1.014268
2011-10-03T12:55:44.167992,9170,0.419350,1.903535,-2.437571,-0.133836,-0.074683,1.015091
2011-10-03T12:55:44.177992,9180,0.596296,1.937703,-2.493682,-0.133766,-0.067265,1.017211
2011-10-03T12:55:44.187992,9190,0.773242,1.971871,-2.549793,-0.133696,-0.059847,1.019330
2011-10-03T12:55:44.197992,9200,0.950188,2.006039,-2.605904,-0.133626,-0.052429,1.021450
2011-10-03T12:55:44.207992,9210,1.127135,2.040207,-2.662015,-0.133555,-0.045011,1.023569
2011-10-03T12:55:44.217992,9220,1.304081,2.074375,-2.718125,-0.133485,-0.037593,1.025689
2011-10-03T12:55:44.227992,9230,1.481027,2.108543,-2.774236,-0.133415,-0.030175,1.027808
2011-10-03T12:55:44.237992,9240,1.657973,2.142711,-2.830347,-0.133344,-0.022757,1.029928
2011-10-03T12:55:44.247992,9250,1.834920,2.176878,-2.886458,-0.133274,-0.015339,1.032047
2011-10-03T12:55:44.257992,9260,2.011866,2.211046,-2.942568,-0.133204,-0.007921,1.034167
2011-10-03T12:55:44.267992,9270,2.171102,2.242116,-3.004669,-0.133096,-0.000891,1.035329
2011-10-03T12:55:44.277992,9280,2.149963,2.241627,-3.127778,-0.132602,0.002177,1.026746
2011-10-03T12:55:44.287992,9290,2.128823,2.241138,-3.250887,-0.132108,0.005245,1.018163
2011-10-03T12:55:44.297992,9300,2.107683,2.240648,-3.373996,-0.131614,0.008313,1.009579
2011-10-03T12:55:44.307992,9310,2.086544,2.240159,-3.497105,-0.131120,0.011382,1.000996
2011-10-03T12:55:44.317992,9320,2.065404,2.239670,-3.620214,-0.130626,0.014450,0.992413
2011-10-03T12:55:44.327992,9330,2.044265,2.239181,-3.743323,-0.130132,0.017518,0.983830
2011-10-03T12:55:44.337992,9340,2.023125,2.238692,-3.866432,-0.129638,0.020587,0.975247
2011-10-03T12:55:44.347992,9350,2.001985,2.238203,-3.989542,-0.129144,0.023655,0.966663
2011-10-03T12:55:44.357992,9360,1.980846,2.237714,-4.112651,-0.128650,0.026723,0.958080
2011-10-03T12:55:44.367992,9370,1.959706,2.237224,-4.235760,-0.128156,0.029791,0.949497
2011-10-03T12:55:44.377992,9380,1.911457,2.214391,-4.360060,-0.127726,0.032677,0.941548
2011-10-03T12:55:44.387992,9390,1.593337,1.969119,-4.496217,-0.127941,0.033741,0.939915
2011-10-03T12:55:44.397992,9400,1.275218,1.723848,-4.632374,-0.128155,0.034805,0.938283
2011-10-03T12:55:44.407992,9410,0.957098,1.478576,-4.768531,-0.128369,0.035869,0.936650
2011-10-03T12:55:44.417992,9420,0.638979,1.233305,-4.904688,-0.128583,0.036933,0.935017
2011-10-03T12:55:44.427992,9430,0.320859,0.988034,-5.040845,-0.128798,0.037998,0.933384
2011-10-03T12:55:44.437992,9440,0.002739,0.742762,-5.177002,-0.129012,0.039062,0.931751
2011-10-03T12:55:44.447992,9450,-0.315380,0.497491,-5.313159,-0.129226,0.040126,0.930118
2011-10-03T12:55:44.457992,9460,-0.633500,0.252220,-5.449316,-0.129440,0.041190,0.928485
2011-10-03T12:55:44.467992,9470,-0.951619,0.006948,-5.585472,-0.129655,0.042254,0.926853
2011-10-03T12:55:44.477992,9480,-1.257648,-0.218041,-5.727581,-0.129750,0.042679,0.925886
2011-10-03T12:55:44.487992,9490,-1.425736,-0.211642,-5.937585,-0.128488,0.035800,0.932524
2011-10-03T12:55:44.497992,9500,-1.593824,-0.205242,-6.147588,-0.127227,0.028922,0.939162
2011-10-03T12:55:44.507992,9510,-1.761912,-0.198843,-6.357592,-0.125965,0.022044,0.945800
2011-10-03T12:55:44.517992,9520,-1.930000,-0.192444,-6.567596,-0.124704,0.015166,0.952438
2011-10-03T12:55:44.527992,9530,-2.098088,-0.186045,-6.777600,-0.123442,0.008288,0.959076
2011-10-03T12:55:44.537992,9540,-2.266176,-0.179645,-6.987604,-0.122181,0.001410,0.965714
2011-10-03T12:55:44.547992,9550,-2.434264,-0.173246,-7.197608,-0.120919,-0.005468,0.972352
2011-10-03T12:55:44.557992,9560,-2.602352,-0.166847,-7.407611,-0.119657,-0.012346,0.978990
2011-10-03T12:55:44.567992,9570,-2.770440,-0.160448,-7.617615,-0.118396,-0.019224,0.985628
2011-10-03T12:55:44.577992,9580,-2.919354,-0.150901,-7.823358,-0.117295,-0.026103,0.991624
2011-10-03T12:55:44.587992,9590,-2.889961,-0.112085,-7.989479,-0.117688,-0.032984,0.991651
2011-10-03T12:55:44.597992,9600,-2.860569,-0.073268,-8.155600,-0.118082,-0.039866,0.991679
2011-10-03T12:55:44.607992,9610,-2.831176,-0.034452,-8.321720,-0.118475,-0.046747,0.991706
2011-10-03T12:55:44.617992,9620,-2.801783,0.004364,-8.487841,-0.118869,-0.053629,0.991733
2011-10-03T12:55:44.627992,9630,-2.772391,0.043181,-8.653962,-0.119262,-0.060510,0.991761
2011-10-03T12:55:44.637992,9640,-2.742998,0.081997,-8.820083,-0.119656,-0.067392,0.991788
2011-10-03T12:55:44.647992,9650,-2.713605,0.120813,-8.986203,-0.120049,-0.074273,0.991815
2011-10-03T12:55:44.657992,9660,-2.684213,0.159630,-9.152324,-0.120443,-0.081155,0.991843
2011-10-03T12:55:44.667992,9670,-2.654820,0.198446,-9.318445,-0.120836,-0.088036,0.991870
2011-10-03T12:55:44.677992,9680,-2.625427,0.237262,-9.484565,-0.121230,-0.094918,0.991897
2011-10-03T12:55:44.687992,9690,-2.570978,0.273025,-9.654280,-0.121636,-0.101188,0.992205
2011-10-03T12:55:44.697992,9700,-2.286664,0.280772,-9.856970,-0.122165,-0.101852,0.995082
2011-10-03T12:55:44.707992,9710,-2.002349,0.288518,-10.059659,-0.122693,-0.102515,0.997960
2011-10-03T12:55:44.717992,9720,-1.718034,0.296265,-10.262348,-0.123221,-0.103179,1.000837
2011-10-03T12:55:44.727992,9730,-1.433719,0.304012,-10.465037,-0.123750,-0.103843,1.003714
2011-10-03T12:55:44.737992,9740,-1.149404,0.311759,-10.667726,-0.124278,-0.104506,1.006592
2011-10-03T12:55:44.747992,9750,-0.865090,0.319505,-10.870415,-0.124807,-0.105170,1.009469
2011-10-03T12:55:44.757992,9760,-0.580775,0.327252,-11.073104,-0.125335,-0.105833,1.012346
2011-10-03T12:55:44.767992,9770,-0.296460,0.334999,-11.275794,-0.125863,-0.106497,1.015224
2011-10-03T12:55:44.777992,9780,-0.012145,0.342746,-11.478483,-0.126392,-0.107160,1.018101
2011-10-03T12:55:44.787992,9790,0.256643,0.352010,-11.681237,-0.126728,-0.107596,1.020663
2011-10-03T12:55:44.797992,9800,0.367487,0.376717,-11.884650,-0.125115,-0.105710,1.020019
2011-10-03T12:55:44.807992,9810,0.478330,0.401424,-12.088063,-0.123503,-0.103825,1.019375
2011-10-03T12:55:44.817992,9820,0.589173,0.426130,-12.291477,-0.121890,-0.101940,1.018731
2011-10-03T12:55:44.827992,9830,0.700016,0.450837,-12.494890,-0.120277,-0.100054,1.018087
2011-10-03T12:55:44.837992,9840,0.810859,0.475544,-12.698303,-0.118664,-0.098169,1.017442
2011-10-03T12:55:44.847992,9850,0.921702,0.500250,-12.901717,-0.117051,-0.096283,1.016798
2011-10-03T12:55:44.857992,9860,1.032546,0.524957,-13.105130,-0.115438,-0.094398,1.016154
2011-10-03T12:55:44.867992,9870,1.143389,0.549664,-13.308543,-0.113826,-0.092512,1.015510
2011-10-03T12:55:44.877992,9880,1.254232,0.574370,-13.511956,-0.112213,-0.090627,1.014865
2011-10-03T12:55:44.887992,9890,1.365075,0.599077,-13.715370,-0.110600,-0.088742,1.014221
2011-10-03T12:55:44.897992,9900,1.457655,0.624175,-13.917124,-0.108800,-0.086958,1.013455
2011-10-03T12:55:44.907992,9910,1.375849,0.653010,-14.103033,-0.105212,-0.086147,1.011526
2011-10-03T12:55:44.917992,9920,1.294043,0.681845,-14.288942,-0.101624,-0.085337,1.009597
2011-10-03T12:55:44.927992,9930,1.212236,0.710680,-14.474851,-0.098037,-0.084526,1.007667
2011-10-03T12:55:44.937992,9940,1.130430,0.739514,-14.660760,-0.094449,-0.083715,1.005738
2011-10-03T12:55:44.947992,9950,1.048624,0.768349,-14.846669,-0.090861,-0.082904,1.003809
2011-10-03T12:55:44.957992,9960,0.966818,0.797184,-15.032578,-0.087274,-0.082094,1.001880
2011-10-03T12:55:44.967992,9970,0.885012,0.826019,-15.218487,-0.083686,-0.081283,0.999950
2011-10-03T12:55:44.977992,9980,0.803205,0.854854,-15.404396,-0.080098,-0.080472,0.998021
2011-10-03T12:55:44.987992,9990,0.721399,0.883689,-15.590306,-0.076511,-0.079661,0.996092
2011-10-03T12:55:44.997992,10000,0.642582,0.908944,-15.776624,-0.073167,-0.079196,0.994243
2011-10-03T12:55:45.007992,10010,0.591558,0.900907,-15.966753,-0.072098,-0.081946,0.993141
2011-10-03T12:55:45.017992,10020,0.540533,0.892871,-16.156881,-0.071028,-0.084695,0.992040
2011-10-03T12:55:45.027992,10030,0.489509,0.884835,-16.347010,-0.069958,-0.087444,0.990939
2011-10-03T12:55:45.037992,10040,0.438485,0.876799,-16.537138,-0.068889,-0.090194,0.989837
2011-10-03T12:55:45.047992,10050,0.387461,0.868763,-16.727267,-0.067819,-0.092943,0.988736
2011-10-03T12:55:45.057992,10060,0.336437,0.860726,-16.917395,-0.066750,-0.095692,0.987634
2011-10-03T12:55:45.067992,10070,0.285412,0.852690,-17.107523,-0.065680,-0.098442,0.986533
2011-10-03T12:55:45.077992,10080,0.234388,0.844654,-17.297652,-0.064610,-0.101191,0.985431
2011-10-03T12:55:45.087992,10090,0.183364,0.836618,-17.487780,-0.063541,-0.103940,0.984330
2011-10-03T12:55:45.097992,10100,0.135682,0.826141,-17.680873,-0.062521,-0.106476,0.983224
2011-10-03T12:55:45.107992,10110,0.118281,0.793548,-17.900822,-0.061952,-0.107070,0.982078
2011-10-03T12:55:45.117992,10120,0.100881,0.760955,-18.120772,-0.061383,-0.107665,0.980932
2011-10-03T12:55:45.127992,10130,0.083481,0.728361,-18.340722,-0.060815,-0.108260,0.979786
2011-10-03T12:55:45.137992,10140,0.066081,0.695768,-18.560672,-0.060246,-0.108854,0.978640
2011-10-03T12:55:45.147992,10150,0.048680,0.663175,-18.780622,-0.059677,-0.109449,0.977494
2011-10-03T12:55:45.157992,10160,0.031280,0.630582,-19.000572,-0.059108,-0.110044,0.976348
2011-10-03T12:55:45.167992,10170,0.013880,0.597989,-19.220521,-0.058539,-0.110638,0.975202
2011-10-03T12:55:45.177992,10180,-0.003520,0.565396,-19.440471,-0.057970,-0.111233,0.974056
2011-10-03T12:55:45.187992,10190,-0.020920,0.532803,-19.660421,-0.057402,-0.111828,0.972910
2011-10-03T12:55:45.197992,10200,-0.038321,0.500210,-19.880371,-0.056833,-0.112422,0.971764
2011-10-03T12:55:45.207992,10210,-0.055290,0.467278,-20.100975,-0.056419,-0.113273,0.970973
2011-10-03T12:55:45.217992,10220,-0.068480,0.431379,-20.327325,-0.057367,-0.116374,0.973297
2011-10-03T12:55:45.227992,10230,-0.081671,0.395480,-20.553674,-0.058314,-0.119475,0.975621
2011-10-03T12:55:45.237992,10240,-0.094861,0.359581,-20.780023,-0.059262,-0.122576,0.977944
2011-10-03T12:55:45.247992,10250,-0.108051,0.323682,-21.006372,-0.060209,-0.125677,0.980268
2011-10-03T12:55:45.257992,10260,-0.121241,0.287782,-21.232721,-0.061157,-0.128778,0.982592
2011-10-03T12:55:45.267992,10270,-0.134431,0.251883,-21.459070,-0.062104,-0.131878,0.984915
2011-10-03T12:55:45.277992,10280,-0.147621,0.215984,-21.685419,-0.063052,-0.134979,0.987239
2011-10-03T12:55:45.287992,10290,-0.160812,0.180085,-21.911769,-0.063999,-0.138080,0.989563
2011-10-03T12:55:45.297992,10300,-0.174002,0.144186,-22.138118,-0.064947,-0.141181,0.991886
2011-10-03T12:55:45.307992,10310,-0.183595,0.112360,-22.362899,-0.065926,-0.144164,0.994154
2011-10-03T12:55:45.317992,10320,-0.163074,0.114643,-22.574549,-0.067172,-0.146160,0.995953
2011-10-03T12:55:45.327992,10330,-0.142553,0.116926,-22.786199,-0.068418,-0.148155,0.997753
2011-10-03T12:55:45.337992,10340,-0.122031,0.119209,-22.997848,-0.069664,-0.150151,0.999552
2011-10-03T12:55:45.347992,10350,-0.101510,0.121491,-23.209498,-0.070910,-0.152147,1.001351
2011-10-03T12:55:45.357992,10360,-0.080989,0.123774,-23.421148,-0.072156,-0.154143,1.003150
2011-10-03T12:55:45.367992,10370,-0.060468,0.126057,-23.632798,-0.073402,-0.156138,1.004949
2011-10-03T12:55:45.377992,10380,-0.039946,0.128340,-23.844448,-0.074648,-0.158134,1.006748
2011-10-03T12:55:45.387992,10390,-0.019425,0.130623,-24.056098,-0.075894,-0.160130,1.008547
2011-10-03T12:55:45.397992,10400,0.001096,0.132905,-24.267748,-0.077140,-0.162125,1.010347
2011-10-03T12:55:45.407992,10410,0.009560,0.126156,-24.480497,-0.078310,-0.163991,1.011832
2011-10-03T12:55:45.417992,10420,-0.088724,0.039436,-24.702969,-0.078806,-0.164699,1.010542
2011-10-03T12:55:45.427992,10430,-0.187007,-0.047283,-24.925441,-0.079303,-0.165408,1.009252
2011-10-03T12:55:45.437992,10440,-0.285291,-0.134002,-25.147913,-0.079800,-0.166117,1.007963
2011-10-03T12:55:45.447992,10450,-0.383574,-0.220721,-25.370385,-0.080297,-0.166826,1.006673
2011-10-03T12:55:45.457992,10460,-0.481858,-0.307441,-25.592857,-0.080794,-0.167534,1.005383
2011-10-03T12:55:45.467992,10470,-0.580141,-0.394160,-25.815329,-0.081291,-0.168243,1.004093
2011-10-03T12:55:45.477992,10480,-0.678425,-0.480879,-26.037802,-0.081788,-0.168952,1.002803
2011-10-03T12:55:45.487992,10490,-0.776709,-0.567598,-26.260274,-0.082284,-0.169661,1.001513
2011-10-03T12:55:45.497992,10500,-0.874992,-0.654317,-26.482746,-0.082781,-0.170370,1.000223
2011-10-03T12:55:45.507992,10510,-0.973276,-0.741037,-26.705218,-0.083278,-0.171078,0.998933
2011-10-03T12:55:45.517992,10520,-1.058989,-0.824903,-26.929558,-0.083713,-0.171977,0.997673
2011-10-03T12:55:45.527992,10530,-1.002662,-0.876529,-27.175006,-0.083443,-0.175024,0.996742
2011-10-03T12:55:45.537992,10540,-0.946334,-0.928156,-27.420454,-0.083173,-0.178071,0.995811
2011-10-03T12:55:45.547992,10550,-0.890006,-0.979782,-27.665902,-0.082903,-0.181117,0.994880
2011-10-03T12:55:45.557992,10560,-0.833679,-1.031408,-27.911350,-0.082633,-0.184164,0.993949
2011-10-03T12:55:45.567992,10570,-0.777351,-1.083035,-28.156798,-0.082363,-0.187211,0.993018
2011-10-03T12:55:45.577992,10580,-0.721023,-1.134661,-28.402246,-0.082093,-0.190257,0.992087
2011-10-03T12:55:45.587992,10590,-0.664696,-1.186287,-28.647694,-0.081823,-0.193304,0.991156
2011-10-03T12:55:45.597992,10600,-0.608368,-1.237914,-28.893142,-0.081553,-0.196351,0.990225
2011-10-03T12:55:45.607992,10610,-0.552040,-1.289540,-29.138590,-0.081283,-0.199398,0.989294
2011-10-03T12:55:45.617992,10620,-0.497004,-1.331751,-29.379408,-0.080962,-0.202211,0.988436
2011-10-03T12:55:45.627992,10630,-0.452587,-1.296519,-29.582144,-0.080223,-0.203104,0.988171
2011-10-03T12:55:45.637992,10640,-0.408171,-1.261288,-29.784881,-0.079484,-0.203998,0.987906
2011-10-03T12:55:45.647992,10650,-0.363755,-1.226056,-29.987617,-0.078745,-0.204891,0.987642
2011-10-03T12:55:45.657992,10660,-0.319338,-1.190824,-30.190353,-0.078006,-0.205785,0.987377
2011-10-03T12:55:45.667992,10670,-0.274922,-1.155592,-30.393089,-0.077267,-0.206678,0.987112
2011-10-03T12:55:45.677992,10680,-0.230505,-1.120360,-30.595826,-0.076528,-0.207572,0.986848
2011-10-03T12:55:45.687992,10690,-0.186089,-1.085128,-30.798562,-0.075789,-0.208465,0.986583
2011-10-03T12:55:45.697992,10700,-0.141673,-1.049897,-31.001298,-0.075050,-0.209359,0.986318
2011-10-03T12:55:45.707992,10710,-0.097256,-1.014665,-31.204034,-0.074311,-0.210252,0.986053
2011-10-03T12:55:45.717992,10720,-0.052840,-0.979433,-31.406771,-0.073572,-0.211145,0.985789
2011-10-03T12:55:45.727992,10730,-0.016589,-0.947510,-31.604705,-0.072879,-0.212088,0.985393
2011-10-03T12:55:45.737992,10740,-0.048852,-0.943344,-31.762356,-0.072574,-0.213438,0.983900
2011-10-03T12:55:45.747992,10750,-0.081115,-0.939178,-31.920006,-0.072269,-0.214789,0.982406
2011-10-03T12:55:45.757992,10760,-0.113378,-0.935013,-32.077657,-0.071964,-0.216140,0.980912
2011-10-03T12:55:45.767992,10770,-0.145640,-0.930847,-32.235307,-0.071659,-0.217490,0.979419
2011-10-03T12:55:45.777992,10780,-0.177903,-0.926681,-32.392958,-0.071355,-0.218841,0.977925
2011-10-03T12:55:45.787992,10790,-0.210166,-0.922516,-32.550608,-0.071050,-0.220192,0.976431
2011-10-03T12:55:45.797992,10800,-0.242429,-0.918350,-32.708259,-0.070745,-0.221542,0.974938
2011-10-03T12:55:45.807992,10810,-0.274691,-0.914184,-32.865909,-0.070440,-0.222893,0.973444
2011-10-03T12:55:45.817992,10820,-0.306954,-0.910019,-33.023560,-0.070135,-0.224244,0.971950
2011-10-03T12:55:45.827992,10830,-0.331073,-0.907704,-33.179271,-0.069951,-0.225557,0.971154
2011-10-03T12:55:45.837992,10840,-0.285616,-0.921199,-33.318412,-0.070802,-0.226546,0.976316
2011-10-03T12:55:45.847992,10850,-0.240159,-0.934695,-33.457554,-0.071654,-0.227535,0.981479
2011-10-03T12:55:45.857992,10860,-0.194702,-0.948190,-33.596695,-0.072505,-0.228525,0.986641
2011-10-03T12:55:45.867992,10870,-0.149246,-0.961686,-33.735837,-0.073356,-0.229514,0.991803
2011-10-03T12:55:45.877992,10880,-0.103789,-0.975181,-33.874978,-0.074207,-0.230503,0.996965
2011-10-03T12:55:45.887992,10890,-0.058332,-0.988677,-34.014120,-0.075058,-0.231493,1.002127
2011-10-03T12:55:45.897992,10900,-0.012875,-1.002172,-34.153261,-0.075909,-0.232482,1.007290
2011-10-03T12:55:45.907992,10910,0.032582,-1.015668,-34.292403,-0.076761,-0.233472,1.012452
2011-10-03T12:55:45.917992,10920,0.078039,-1.029163,-34.431544,-0.077612,-0.234461,1.017614
2011-10-03T12:55:45.927992,10930,0.126835,-1.041483,-34.564770,-0.078320,-0.235429,1.022428
2011-10-03T12:55:45.937992,10940,0.205462,-1.043300,-34.645156,-0.077751,-0.236202,1.024136
2011-10-03T12:55:45.947992,10950,0.284088,-1.045117,-34.725541,-0.077182,-0.236976,1.025843
2011-10-03T12:55:45.957992,10960,0.362715,-1.046934,-34.805927,-0.076613,-0.237750,1.027550
2011-10-03T12:55:45.967992,10970,0.441342,-1.048751,-34.886312,-0.076044,-0.238523,1.029258
2011-10-03T12:55:45.977992,10980,0.519968,-1.050568,-34.966698,-0.075475,-0.239297,1.030965
2011-10-03T12:55:45.987992,10990,0.598595,-1.052385,-35.047084,-0.074906,-0.240071,1.032672
2011-10-03T12:55:45.997992,11000,0.677222,-1.054202,-35.127469,-0.074337,-0.240844,1.034380
2011-10-03T12:55:46.007992,11010,0.755848,-1.056019,-35.207855,-0.073768,-0.241618,1.036087
2011-10-03T12:55:46.017992,11020,0.834475,-1.057836,-35.288240,-0.073199,-0.242392,1.037794
2011-10-03T12:55:46.027992,11030,0.913101,-1.059653,-35.368626,-0.072630,-0.243166,1.039501
2011-10-03T12:55:46.037992,11040,0.977194,-1.056138,-35.440018,-0.071785,-0.243697,1.040922
2011-10-03T12:55:46.047992,11050,0.921252,-1.008582,-35.437136,-0.068659,-0.242224,1.039977
2011-10-03T12:55:46.057992,11060,0.865310,-0.961025,-35.434254,-0.065533,-0.240751,1.039033
2011-10-03T12:55:46.067992,11070,0.809368,-0.913469,-35.431371,-0.062407,-0.239278,1.038088
2011-10-03T12:55:46.077992,11080,0.753426,-0.865913,-35.428489,-0.059281,-0.237805,1.037143
2011-10-03T12:55:46.087992,11090,0.697484,-0.818357,-35.425607,-0.056155,-0.236332,1.036198
2011-10-03T12:55:46.097992,11100,0.641542,-0.770801,-35.422724,-0.053029,-0.234859,1.035253
2011-10-03T12:55:46.107992,11110,0.585600,-0.723245,-35.419842,-0.049903,-0.233386,1.034308
2011-10-03T12:55:46.117992,11120,0.529658,-0.675688,-35.416960,-0.046776,-0.231913,1.033363
2011-10-03T12:55:46.127992,11130,0.473716,-0.628132,-35.414078,-0.043650,-0.230440,1.032419
2011-10-03T12:55:46.137992,11140,0.420762,-0.574115,-35.409699,-0.040753,-0.229031,1.031164
2011-10-03T12:55:46.147992,11150,0.391010,-0.469928,-35.393697,-0.039635,-0.228122,1.027509
2011-10-03T12:55:46.157992,11160,0.361258,-0.365740,-35.377696,-0.038517,-0.227212,1.023853
2011-10-03T12:55:46.167992,11170,0.331506,-0.261553,-35.361695,-0.037400,-0.226303,1.020197
2011-10-03T12:55:46.177992,11180,0.301753,-0.157365,-35.345694,-0.036282,-0.225393,1.016541
2011-10-03T12:55:46.187992,11190,0.272001,-0.053177,-35.329692,-0.035164,-0.224484,1.012885
2011-10-03T12:55:46.197992,11200,0.242249,0.051010,-35.313691,-0.034046,-0.223574,1.009229
2011-10-03T12:55:46.207992,11210,0.212497,0.155198,-35.297690,-0.032928,-0.222665,1.005574
2011-10-03T12:55:46.217992,11220,0.182744,0.259385,-35.281689,-0.031810,-0.221755,1.001918
2011-10-03T12:55:46.227992,11230,0.152992,0.363573,-35.265687,-0.030692,-0.220846,0.998262
2011-10-03T12:55:46.237992,11240,0.123240,0.467760,-35.249686,-0.029574,-0.219936,0.994606
2011-10-03T12:55:46.247992,11250,0.085367,0.565718,-35.232629,-0.028640,-0.219149,0.991198
2011-10-03T12:55:46.257992,11260,-0.015128,0.615636,-35.207428,-0.029121,-0.219305,0.989702
2011-10-03T12:55:46.267992,11270,-0.115622,0.665555,-35.182228,-0.029601,-0.219460,0.988205
2011-10-03T12:55:46.277992,11280,-0.216117,0.715473,-35.157027,-0.030082,-0.219616,0.986708
2011-10-03T12:55:46.287992,11290,-0.316612,0.765391,-35.131826,-0.030563,-0.219771,0.985211
2011-10-03T12:55:46.297992,11300,-0.417106,0.815310,-35.106626,-0.031044,-0.219927,0.983715
2011-10-03T12:55:46.307992,11310,-0.517601,0.865228,-35.081425,-0.031525,-0.220082,0.982218
2011-10-03T12:55:46.317992,11320,-0.618096,0.915146,-35.056224,-0.032006,-0.220238,0.980721
2011-10-03T12:55:46.327992,11330,-0.718590,0.965064,-35.031024,-0.032486,-0.220393,0.979225
2011-10-03T12:55:46.337992,11340,-0.819085,1.014983,-35.005823,-0.032967,-0.220549,0.977728
2011-10-03T12:55:46.347992,11350,-0.896241,1.052152,-34.978811,-0.033526,-0.220929,0.976511
2011-10-03T12:55:46.357992,11360,-0.792871,0.990703,-34.937789,-0.034691,-0.223051,0.977461
2011-10-03T12:55:46.367992,11370,-0.689501,0.929254,-34.896767,-0.035855,-0.225173,0.978412
2011-10-03T12:55:46.377992,11380,-0.586131,0.867805,-34.855745,-0.037019,-0.227295,0.979362
2011-10-03T12:55:46.387992,11390,-0.482760,0.806356,-34.814723,-0.038183,-0.229417,0.980312
2011-10-03T12:55:46.397992,11400,-0.379390,0.744906,-34.773701,-0.039347,-0.231539,0.981262
2011-10-03T12:55:46.407992,11410,-0.276020,0.683457,-34.732679,-0.040512,-0.233661,0.982212
2011-10-03T12:55:46.417992,11420,-0.172649,0.622008,-34.691657,-0.041676,-0.235783,0.983162
2011-10-03T12:55:46.427992,11430,-0.069279,0.560559,-34.650635,-0.042840,-0.237905,0.984112
2011-10-03T12:55:46.437992,11440,0.034091,0.499110,-34.609613,-0.044004,-0.240027,0.985062
2011-10-03T12:55:46.447992,11450,0.139450,0.434099,-34.564480,-0.044980,-0.242053,0.986064
2011-10-03T12:55:46.457992,11460,0.263635,0.335351,-34.480412,-0.044168,-0.243176,0.987559
2011-10-03T12:55:46.467992,11470,0.387820,0.236603,-34.396344,-0.043356,-0.244298,0.989053
2011-10-03T12:55:46.477992,11480,0.512005,0.137855,-34.312276,-0.042544,-0.245421,0.990548
2011-10-03T12:55:46.487992,11490,0.636191,0.039107,-34.228208,-0.041732,-0.246544,0.992043
2011-10-03T12:55:46.497992,11500,0.760376,-0.059641,-34.144140,-0.040920,-0.247666,0.993537
2011-10-03T12:55:46.507992,11510,0.884561,-0.158389,-34.060072,-0.040108,-0.248789,0.995032
2011-10-03T12:55:46.517992,11520,1.008746,-0.257137,-33.976004,-0.039296,-0.249912,0.996526
2011-10-03T12:55:46.527992,11530,1.132931,-0.355885,-33.891936,-0.038484,-0.251034,0.998021
2011-10-03T12:55:46.537992,11540,1.257117,-0.454632,-33.807868,-0.037672,-0.252157,0.999515
2011-10-03T12:55:46.547992,11550,1.381302,-0.553380,-33.723800,-0.036860,-0.253279,1.001010
2011-10-03T12:55:46.557992,11560,1.506483,-0.641426,-33.633335,-0.036243,-0.253692,1.002457
2011-10-03T12:55:46.567992,11570,1.639153,-0.648941,-33.494729,-0.037092,-0.248765,1.003549
2011-10-03T12:55:46.577992,11580,1.771823,-0.656457,-33.356123,-0.037941,-0.243837,1.004642
2011-10-03T12:55:46.587992,11590,1.904493,-0.663973,-33.217517,-0.038790,-0.238910,1.005734
2011-10-03T12:55:46.597992,11600,2.037163,-0.671488,-33.078911,-0.039638,-0.233982,1.006826
2011-10-03T12:55:46.607992,11610,2.169833,-0.679004,-32.940305,-0.040487,-0.229055,1.007918
2011-10-03T12:55:46.617992,11620,2.302503,-0.686520,-32.801699,-0.041336,-0.224127,1.009010
2011-10-03T12:55:46.627992,11630,2.435173,-0.694035,-32.663094,-0.042185,-0.219199,1.010102
2011-10-03T12:55:46.637992,11640,2.567843,-0.701551,-32.524488,-0.043034,-0.214272,1.011194
2011-10-03T12:55:46.647992,11650,2.700513,-0.709066,-32.385882,-0.043883,-0.209344,1.012286
2011-10-03T12:55:46.657992,11660,2.779959,-0.716024,-32.249069,-0.044501,-0.204234,1.013133
2011-10-03T12:55:46.667992,11670,2.466079,-0.718857,-32.125506,-0.043410,-0.197771,1.012171
2011-10-03T12:55:46.677992,11680,2.152199,-0.721690,-32.001943,-0.042318,-0.191309,1.011209
2011-10-03T12:55:46.687992,11690,1.838320,-0.724523,-31.878381,-0.041227,-0.184846,1.010247
2011-10-03T12:55:46.697992,11700,1.524440,-0.727357,-31.754818,-0.040136,-0.178384,1.009286
2011-10-03T12:55:46.707992,11710,1.210560,-0.730190,-31.631255,-0.039044,-0.171921,1.008324
2011-10-03T12:55:46.717992,11720,0.896680,-0.733023,-31.507692,-0.037953,-0.165459,1.007362
2011-10-03T12:55:46.727992,11730,0.582800,-0.735856,-31.384130,-0.036862,-0.158996,1.006400
2011-10-03T12:55:46.737992,11740,0.268920,-0.738689,-31.260567,-0.035770,-0.152534,1.005438
2011-10-03T12:55:46.747992,11750,-0.044959,-0.741522,-31.137004,-0.034679,-0.146071,1.004476
2011-10-03T12:55:46.757992,11760,-0.358839,-0.744356,-31.013441,-0.033588,-0.139609,1.003514
2011-10-03T12:55:46.767992,11770,-0.657155,-0.745656,-30.895567,-0.032741,-0.134531,1.002511
2011-10-03T12:55:46.777992,11780,-0.841226,-0.735708,-30.819450,-0.033687,-0.139617,1.001200
2011-10-03T12:55:46.787992,11790,-1.025297,-0.725761,-30.743333,-0.034633,-0.144703,0.999890
2011-10-03T12:55:46.797992,11800,-1.209367,-0.715813,-30.667216,-0.035579,-0.149789,0.998580
2011-10-03T12:55:46.807992,11810,-1.393438,-0.705865,-30.591098,-0.036525,-0.154875,0.997269
2011-10-03T12:55:46.817992,11820,-1.577508,-0.695917,-30.514981,-0.037472,-0.159960,0.995959
2011-10-03T12:55:46.827992,11830,-1.761579,-0.685969,-30.438864,-0.038418,-0.165046,0.994648
2011-10-03T12:55:46.837992,11840,-1.945649,-0.676021,-30.362747,-0.039364,-0.170132,0.993338
2011-10-03T12:55:46.847992,11850,-2.129720,-0.666074,-30.286630,-0.040310,-0.175218,0.992028
2011-10-03T12:55:46.857992,11860,-2.313790,-0.656126,-30.210512,-0.041256,-0.180304,0.990717
2011-10-03T12:55:46.867992,11870,-2.460084,-0.650561,-30.121691,-0.042040,-0.185497,0.989521
2011-10-03T12:55:46.877992,11880,-2.332194,-0.676809,-29.940665,-0.041648,-0.191466,0.989157
2011-10-03T12:55:46.887992,11890,-2.204304,-0.703057,-29.759639,-0.041255,-0.197434,0.988792
2011-10-03T12:55:46.897992,11900,-2.076413,-0.729304,-29.578613,-0.040862,-0.203402,0.988427
2011-10-03T12:55:46.907992,11910,-1.948523,-0.755552,-29.397587,-0.040470,-0.209371,0.988062
2011-10-03T12:55:46.917992,11920,-1.820632,-0.781800,-29.216561,-0.040077,-0.215339,0.987698
2011-10-03T12:55:46.927992,11930,-1.692742,-0.808048,-29.035535,-0.039684,-0.221308,0.987333
2011-10-03T12:55:46.937992,11940,-1.564851,-0.834296,-28.854509,-0.039292,-0.227276,0.986968
2011-10-03T12:55:46.947992,11950,-1.436961,-0.860544,-28.673483,-0.038899,-0.233245,0.986604
2011-10-03T12:55:46.957992,11960,-1.309071,-0.886792,-28.492457,-0.038506,-0.239213,0.986239
2011-10-03T12:55:46.967992,11970,-1.147552,-0.904862,-28.305568,-0.037880,-0.244547,0.986235
2011-10-03T12:55:46.977992,11980,-0.731262,-0.860982,-28.074265,-0.035485,-0.245070,0.988962
2011-10-03T12:55:46.987992,11990,-0.314971,-0.817102,-27.842962,-0.033089,-0.245593,0.991689
2011-10-03T12:55:46.997992,12000,0.101320,-0.773222,-27.611658,-0.030693,-0.246116,0.994416
2011-10-03T12:55:47.007992,12010,0.517611,-0.729341,-27.380355,-0.028298,-0.246639,0.997144
2011-10-03T12:55:47.017992,12020,0.933901,-0.685461,-27.149052,-0.025902,-0.247162,0.999871
2011-10-03T12:55:47.027992,12030,1.350192,-0.641581,-26.917749,-0.023507,-0.247685,1.002598
2011-10-03T12:55:47.037992,12040,1.766483,-0.597701,-26.686445,-0.021111,-0.248208,1.005325
2011-10-03T12:55:47.047992,12050,2.182774,-0.553820,-26.455142,-0.018715,-0.248731,1.008052
2011-10-03T12:55:47.057992,12060,2.599064,-0.509940,-26.223839,-0.016320,-0.249254,1.010780
2011-10-03T12:55:47.067992,12070,3.015355,-0.466060,-25.992535,-0.013924,-0.249777,1.013507
2011-10-03T12:55:47.077992,12080,3.427410,-0.411171,-25.762913,-0.011890,-0.249351,1.015716
2011-10-03T12:55:47.087992,12090,3.808718,-0.276381,-25.545491,-0.012477,-0.242039,1.014165
2011-10-03T12:55:47.097992,12100,4.190026,-0.141591,-25.328068,-0.013064,-0.234728,1.012615
2011-10-03T12:55:47.107992,12110,4.571334,-0.006801,-25.110646,-0.013652,-0.227416,1.011065
2011-10-03T12:55:47.117992,12120,4.952642,0.127989,-24.893223,-0.014239,-0.220104,1.009514
2011-10-03T12:55:47.127992,12130,5.333950,0.262778,-24.675801,-0.014826,-0.212792,1.007964
2011-10-03T12:55:47.137992,12140,5.715258,0.397568,-24.458378,-0.015413,-0.205480,1.006413
2011-10-03T12:55:47.147992,12150,6.096566,0.532358,-24.240956,-0.016001,-0.198168,1.004863
2011-10-03T12:55:47.157992,12160,6.477874,0.667148,-24.023534,-0.016588,-0.190856,1.003313
2011-10-03T12:55:47.167992,12170,6.859183,0.801938,-23.806111,-0.017175,-0.183544,1.001762
2011-10-03T12:55:47.177992,12180,7.141377,0.919607,-23.584774,-0.017293,-0.175335,1.000090
2011-10-03T12:55:47.187992,12190,6.727286,0.916999,-23.335935,-0.014115,-0.160818,0.997565
2011-10-03T12:55:47.197992,12200,6.313196,0.914391,-23.087096,-0.010936,-0.146302,0.995039
2011-10-03T12:55:47.207992,12210,5.899105,0.911783,-22.838258,-0.007758,-0.131786,0.992513
2011-10-03T12:55:47.217992,12220,5.485015,0.909175,-22.589419,-0.004579,-0.117270,0.989988
2011-10-03T12:55:47.227992,12230,5.070924,0.906567,-22.340580,-0.001401,-0.102753,0.987462
2011-10-03T12:55:47.237992,12240,4.656834,0.903959,-22.091741,0.001778,-0.088237,0.984936
2011-10-03T12:55:47.247992,12250,4.242744,0.901351,-21.842903,0.004956,-0.073721,0.982411
2011-10-03T12:55:47.257992,12260,3.828653,0.898743,-21.594064,0.008134,-0.059205,0.979885
2011-10-03T12:55:47.267992,12270,3.414563,0.896135,-21.345225,0.011313,-0.044688,0.977359
2011-10-03T12:55:47.277992,12280,3.005483,0.862910,-21.105692,0.014064,-0.031555,0.975316
2011-10-03T12:55:47.287992,12290,2.631742,0.613775,-20.931780,0.013800,-0.028169,0.976670
2011-10-03T12:55:47.297992,12300,2.258001,0.364640,-20.757868,0.013536,-0.024784,0.978025
2011-10-03T12:55:47.307992,12310,1.884259,0.115505,-20.583956,0.013272,-0.021399,0.979380
2011-10-03T12:55:47.317992,12320,1.510518,-0.133630,-20.410043,0.013008,-0.018014,0.980735
2011-10-03T12:55:47.327992,12330,1.136777,-0.382764,-20.236131,0.012744,-0.014628,0.982089
2011-10-03T12:55:47.337992,12340,0.763035,-0.631899,-20.062219,0.012480,-0.011243,0.983444
2011-10-03T12:55:47.347992,12350,0.389294,-0.881034,-19.888307,0.012216,-0.007858,0.984799
2011-10-03T12:55:47.357992,12360,0.015553,-1.130169,-19.714395,0.011952,-0.004473,0.986154
2011-10-03T12:55:47.367992,12370,-0.358189,-1.379303,-19.540483,0.011688,-0.001088,0.987508
2011-10-03T12:55:47.377992,12380,-0.731930,-1.628438,-19.366571,0.011424,0.002298,0.988863
2011-10-03T12:55:47.387992,12390,-1.116718,-1.852927,-19.197011,0.011541,0.004271,0.990723
2011-10-03T12:55:47.397992,12400,-1.580719,-1.900682,-19.058662,0.014389,-0.003882,0.996202
2011-10-03T12:55:47.407992,12410,-2.044720,-1.948438,-18.920313,0.017237,-0.012035,1.001681
2011-10-03T12:55:47.417992,12420,-2.508721,-1.996193,-18.781964,0.020085,-0.020188,1.007160
2011-10-03T12:55:47.427992,12430,-2.972722,-2.043948,-18.643615,0.022933,-0.028341,1.012639
2011-10-03T12:55:47.437992,12440,-3.436723,-2.091704,-18.505265,0.025781,-0.036495,1.018118
2011-10-03T12:55:47.447992,12450,-3.900724,-2.139459,-18.366916,0.028629,-0.044648,1.023597
2011-10-03T12:55:47.457992,12460,-4.364725,-2.187215,-18.228567,0.031477,-0.052801,1.029076
2011-10-03T12:55:47.467992,12470,-4.828726,-2.234970,-18.090218,0.034324,-0.060954,1.034555
2011-10-03T12:55:47.477992,12480,-5.292727,-2.282726,-17.951869,0.037172,-0.069107,1.040034
2011-10-03T12:55:47.487992,12490,-5.682522,-2.318285,-17.811676,0.039833,-0.077614,1.044680
2011-10-03T12:55:47.497992,12500,-5.462566,-2.253629,-17.656335,0.040954,-0.089033,1.042479
2011-10-03T12:55:47.507992,12510,-5.242610,-2.188973,-17.500994,0.042075,-0.100451,1.040278
2011-10-03T12:55:47.517992,12520,-5.022654,-2.124318,-17.345653,0.043196,-0.111869,1.038076
2011-10-03T12:55:47.527992,12530,-4.802698,-2.059662,-17.190312,0.044318,-0.123288,1.035875
2011-10-03T12:55:47.537992,12540,-4.582743,-1.995006,-17.034971,0.045439,-0.134706,1.033674
2011-10-03T12:55:47.547992,12550,-4.362787,-1.930350,-16.879630,0.046560,-0.146125,1.031473
2011-10-03T12:55:47.557992,12560,-4.142831,-1.865695,-16.724288,0.047681,-0.157543,1.029271
2011-10-03T12:55:47.567992,12570,-3.922875,-1.801039,-16.568947,0.048802,-0.168962,1.027070
2011-10-03T12:55:47.577992,12580,-3.702919,-1.736383,-16.413606,0.049924,-0.180380,1.024869
2011-10-03T12:55:47.587992,12590,-3.468859,-1.675293,-16.257995,0.050995,-0.189865,1.022659
2011-10-03T12:55:47.597992,12600,-3.138796,-1.638469,-16.100544,0.051731,-0.186191,1.020392
2011-10-03T12:55:47.607992,12610,-2.808734,-1.601645,-15.943093,0.052466,-0.182516,1.018125
2011-10-03T12:55:47.617992,12620,-2.478672,-1.564821,-15.785641,0.053201,-0.178842,1.015858
2011-10-03T12:55:47.627992,12630,-2.148610,-1.527997,-15.628190,0.053937,-0.175167,1.013591
2011-10-03T12:55:47.637992,12640,-1.818547,-1.491173,-15.470739,0.054672,-0.171493,1.011324
2011-10-03T12:55:47.647992,12650,-1.488485,-1.454349,-15.313288,0.055408,-0.167818,1.009057
2011-10-03T12:55:47.657992,12660,-1.158423,-1.417525,-15.155837,0.056143,-0.164144,1.006790
2011-10-03T12:55:47.667992,12670,-0.828361,-1.380701,-14.998385,0.056878,-0.160469,1.004523
2011-10-03T12:55:47.677992,12680,-0.498298,-1.343877,-14.840934,0.057614,-0.156795,1.002256
2011-10-03T12:55:47.687992,12690,-0.168236,-1.307054,-14.683483,0.058349,-0.153120,0.999989
2011-10-03T12:55:47.697992,12700,0.154290,-1.276019,-14.529493,0.059221,-0.149723,0.996842
2011-10-03T12:55:47.707992,12710,0.426109,-1.283935,-14.398792,0.061017,-0.148188,0.987774
2011-10-03T12:55:47.717992,12720,0.697928,-1.291851,-14.268090,0.062812,-0.146653,0.978705
2011-10-03T12:55:47.727992,12730,0.969748,-1.299767,-14.137389,0.064608,-0.145118,0.969637
2011-10-03T12:55:47.737992,12740,1.241567,-1.307683,-14.006688,0.066403,-0.143583,0.960568
2011-10-03T12:55:47.747992,12750,1.513386,-1.315599,-13.875987,0.068199,-0.142048,0.951500
2011-10-03T12:55:47.757992,12760,1.785205,-1.323515,-13.745285,0.069994,-0.140513,0.942431
2011-10-03T12:55:47.767992,12770,2.057025,-1.331430,-13.614584,0.071789,-0.138978,0.933363
2011-10-03T12:55:47.777992,12780,2.328844,-1.339346,-13.483883,0.073585,-0.137443,0.924294
2011-10-03T12:55:47.787992,12790,2.600663,-1.347262,-13.353181,0.075380,-0.135908,0.915226
2011-10-03T12:55:47.797992,12800,2.858977,-1.389813,-13.216535,0.076913,-0.133360,0.907084
2011-10-03T12:55:47.807992,12810,3.024542,-1.670227,-13.039057,0.076638,-0.123847,0.905309
2011-10-03T12:55:47.817992,12820,3.190106,-1.950642,-12.861579,0.076364,-0.114335,0.903533
2011-10-03T12:55:47.827992,12830,3.355670,-2.231057,-12.684100,0.076090,-0.104823,0.901757
2011-10-03T12:55:47.837992,12840,3.521235,-2.511471,-12.506622,0.075815,-0.095310,0.899982
2011-10-03T12:55:47.847992,12850,3.686799,-2.791886,-12.329144,0.075541,-0.085798,0.898206
2011-10-03T12:55:47.857992,12860,3.852363,-3.072300,-12.151666,0.075267,-0.076286,0.896431
2011-10-03T12:55:47.867992,12870,4.017928,-3.352715,-11.974188,0.074993,-0.066773,0.894655
2011-10-03T12:55:47.877992,12880,4.183492,-3.633129,-11.796710,0.074718,-0.057261,0.892880
2011-10-03T12:55:47.887992,12890,4.349056,-3.913544,-11.619231,0.074444,-0.047749,0.891104
2011-10-03T12:55:47.897992,12900,4.452980,-4.155623,-11.459589,0.074737,-0.038991,0.892067
2011-10-03T12:55:47.907992,12910,4.162888,-4.152653,-11.413953,0.078654,-0.035056,0.910532
2011-10-03T12:55:47.917992,12920,3.872796,-4.149683,-11.368317,0.082571,-0.031121,0.928997
2011-10-03T12:55:47.927992,12930,3.582704,-4.146714,-11.322682,0.086488,-0.027186,0.947462
2011-10-03T12:55:47.937992,12940,3.292612,-4.143744,-11.277046,0.090405,-0.023252,0.965927
2011-10-03T12:55:47.947992,12950,3.002520,-4.140774,-11.231411,0.094322,-0.019317,0.984393
2011-10-03T12:55:47.957992,12960,2.712428,-4.137804,-11.185775,0.098239,-0.015382,1.002858
2011-10-03T12:55:47.967992,12970,2.422336,-4.134834,-11.140139,0.102156,-0.011447,1.021323
2011-10-03T12:55:47.977992,12980,2.132243,-4.131865,-11.094504,0.106073,-0.007513,1.039788
2011-10-03T12:55:47.987992,12990,1.842151,-4.128895,-11.048868,0.109990,-0.003578,1.058254
2011-10-03T12:55:47.997992,13000,1.552059,-4.125925,-11.003233,0.113907,0.000357,1.076719
2011-10-03T12:55:48.007992,13010,1.265298,-4.081513,-10.949005,0.117432,0.002994,1.094094
2011-10-03T12:55:48.017992,13020,1.001130,-3.756012,-10.836502,0.118295,-0.003172,1.104078
2011-10-03T12:55:48.027992,13030,0.736962,-3.430511,-10.723999,0.119159,-0.009339,1.114062
2011-10-03T12:55:48.037992,13040,0.472794,-3.105010,-10.611496,0.120023,-0.015505,1.124046
2011-10-03T12:55:48.047992,13050,0.208626,-2.779509,-10.498993,0.120886,-0.021671,1.134030
2011-10-03T12:55:48.057992,13060,-0.055542,-2.454009,-10.386489,0.121750,-0.027837,1.144014
2011-10-03T12:55:48.067992,13070,-0.319710,-2.128508,-10.273986,0.122613,-0.034003,1.153998
2011-10-03T12:55:48.077992,13080,-0.583879,-1.803007,-10.161483,0.123477,-0.040170,1.163981
2011-10-03T12:55:48.087992,13090,-0.848047,-1.477506,-10.048980,0.124340,-0.046336,1.173965
2011-10-03T12:55:48.097992,13100,-1.112215,-1.152005,-9.936477,0.125204,-0.052502,1.183949
2011-10-03T12:55:48.107992,13110,-1.346491,-0.829053,-9.824914,0.125980,-0.057986,1.190735
2011-10-03T12:55:48.117992,13120,-1.382823,-0.522980,-9.719581,0.126175,-0.058948,1.176340
2011-10-03T12:55:48.127992,13130,-1.419155,-0.216906,-9.614247,0.126371,-0.059911,1.161946
2011-10-03T12:55:48.137992,13140,-1.455487,0.089168,-9.508913,0.126567,-0.060874,1.147552
2011-10-03T12:55:48.147992,13150,-1.491819,0.395241,-9.403579,0.126763,-0.061836,1.133158
2011-10-03T12:55:48.157992,13160,-1.528151,0.701315,-9.298245,0.126959,-0.062799,1.118764
2011-10-03T12:55:48.167992,13170,-1.564484,1.007388,-9.192911,0.127154,-0.063762,1.104369
2011-10-03T12:55:48.177992,13180,-1.600816,1.313462,-9.087578,0.127350,-0.064724,1.089975
2011-10-03T12:55:48.187992,13190,-1.637148,1.619535,-8.982244,0.127546,-0.065687,1.075581
2011-10-03T12:55:48.197992,13200,-1.673480,1.925609,-8.876910,0.127742,-0.066649,1.061187
2011-10-03T12:55:48.207992,13210,-1.686807,2.186719,-8.777792,0.127783,-0.067524,1.047778
2011-10-03T12:55:48.217992,13220,-1.552586,2.159454,-8.718536,0.126830,-0.067833,1.040687
2011-10-03T12:55:48.227992,13230,-1.418365,2.132188,-8.659281,0.125877,-0.068142,1.033597
2011-10-03T12:55:48.237992,13240,-1.284144,2.104923,-8.600025,0.124924,-0.068451,1.026507
2011-10-03T12:55:48.247992,13250,-1.149924,2.077657,-8.540770,0.123972,-0.068760,1.019416
2011-10-03T12:55:48.257992,13260,-1.015703,2.050392,-8.481515,0.123019,-0.069069,1.012326
2011-10-03T12:55:48.267992,13270,-0.881482,2.023126,-8.422259,0.122066,-0.069378,1.005236
2011-10-03T12:55:48.277992,13280,-0.747261,1.995861,-8.363004,0.121113,-0.069687,0.998145
2011-10-03T12:55:48.287992,13290,-0.613040,1.968595,-8.303749,0.120161,-0.069996,0.991055
2011-10-03T12:55:48.297992,13300,-0.478820,1.941330,-8.244493,0.119208,-0.070305,0.983965
2011-10-03T12:55:48.307992,13310,-0.344599,1.914065,-8.185238,0.118255,-0.070614,0.976874
2011-10-03T12:55:48.317992,13320,-0.211963,1.881521,-8.124296,0.117610,-0.070874,0.970517
2011-10-03T12:55:48.327992,13330,-0.090283,1.812500,-8.051696,0.119096,-0.070791,0.969222
2011-10-03T12:55:48.337992,13340,0.031398,1.743479,-7.979097,0.120581,-0.070708,0.967927
2011-10-03T12:55:48.347992,13350,0.153078,1.674458,-7.906497,0.122066,-0.070625,0.966632
2011-10-03T12:55:48.357992,13360,0.274758,1.605437,-7.833898,0.123552,-0.070543,0.965337
2011-10-03T12:55:48.367992,13370,0.396439,1.536416,-7.761298,0.125037,-0.070460,0.964043
2011-10-03T12:55:48.377992,13380,0.518119,1.467394,-7.688699,0.126522,-0.070377,0.962748
2011-10-03T12:55:48.387992,13390,0.639799,1.398373,-7.616099,0.128008,-0.070294,0.961453
2011-10-03T12:55:48.397992,13400,0.761480,1.329352,-7.543500,0.129493,-0.070211,0.960158
2011-10-03T12:55:48.407992,13410,0.883160,1.260331,-7.470900,0.130978,-0.070129,0.958863
2011-10-03T12:55:48.417992,13420,1.000193,1.189814,-7.396386,0.132272,-0.069823,0.957935
2011-10-03T12:55:48.427992,13430,1.086312,1.109348,-7.309141,0.132289,-0.068040,0.959445
2011-10-03T12:55:48.437992,13440,1.172432,1.028881,-7.221897,0.132307,-0.066257,0.960954
2011-10-03T12:55:48.447992,13450,1.258552,0.948415,-7.134652,0.132325,-0.064474,0.962464
2011-10-03T12:55:48.457992,13460,1.344671,0.867949,-7.047407,0.132343,-0.062691,0.963973
2011-10-03T12:55:48.467992,13470,1.430791,0.787483,-6.960162,0.132360,-0.060907,0.965483
2011-10-03T12:55:48.477992,13480,1.516910,0.707016,-6.872917,0.132378,-0.059124,0.966992
2011-10-03T12:55:48.487992,13490,1.603030,0.626550,-6.785672,0.132396,-0.057341,0.968502
2011-10-03T12:55:48.497992,13500,1.689150,0.546084,-6.698427,0.132414,-0.055558,0.970011
2011-10-03T12:55:48.507992,13510,1.775269,0.465617,-6.611182,0.132431,-0.053774,0.971521
