pc_time,ts_ms,gyroX,gyroY,gyroZ,accelX,accelY,accelZ
2011-09-26T13:29:11.391827,0,-0.107009,0.707731,-2.356884,0.047269,-0.024840,0.987727
2011-09-26T13:29:11.401827,10,-0.095239,0.680320,-2.359363,0.047294,-0.025397,0.987585
2011-09-26T13:29:11.411827,20,-0.083468,0.652909,-2.361842,0.047320,-0.025953,0.987442
2011-09-26T13:29:11.421827,30,-0.071698,0.625498,-2.364321,0.047345,-0.026510,0.987300
2011-09-26T13:29:11.431827,40,-0.059927,0.598087,-2.366800,0.047370,-0.027067,0.987157
2011-09-26T13:29:11.441827,50,-0.048157,0.570676,-2.369279,0.047395,-0.027623,0.987015
2011-09-26T13:29:11.451827,60,-0.036386,0.543265,-2.371757,0.047421,-0.028180,0.986872
2011-09-26T13:29:11.461827,70,-0.024616,0.515854,-2.374236,0.047446,-0.028737,0.986729
2011-09-26T13:29:11.471827,80,-0.012846,0.488442,-2.376715,0.047471,-0.029293,0.986587
2011-09-26T13:29:11.481827,90,-0.001075,0.461031,-2.379194,0.047496,-0.029850,0.986444
2011-09-26T13:29:11.491827,100,0.010695,0.433620,-2.381673,0.047522,-0.030407,0.986302
2011-09-26T13:29:11.501827,110,0.020831,0.400068,-2.384429,0.047719,-0.030765,0.985987
2011-09-26T13:29:11.511827,120,0.030959,0.366489,-2.387185,0.047917,-0.031122,0.985672
2011-09-26T13:29:11.521827,130,0.041087,0.332910,-2.389942,0.048115,-0.031480,0.985356
2011-09-26T13:29:11.531827,140,0.051215,0.299331,-2.392699,0.048313,-0.031837,0.985040
2011-09-26T13:29:11.541827,150,0.061343,0.265752,-2.395456,0.048512,-0.032194,0.984725
2011-09-26T13:29:11.551827,160,0.071471,0.232173,-2.398212,0.048710,-0.032551,0.984409
2011-09-26T13:29:11.561827,170,0.081599,0.198594,-2.400969,0.048908,-0.032909,0.984094
2011-09-26T13:29:11.571827,180,0.091727,0.165015,-2.403726,0.049106,-0.033266,0.983778
2011-09-26T13:29:11.581827,190,0.101855,0.131435,-2.406483,0.049304,-0.033623,0.983462
2011-09-26T13:29:11.591827,200,0.111983,0.097856,-2.409240,0.049502,-0.033980,0.983147
2011-09-26T13:29:11.601827,210,0.138869,0.103071,-2.408835,0.048774,-0.033539,0.983318
2011-09-26T13:29:11.611827,220,0.165818,0.108433,-2.408418,0.048043,-0.033095,0.983490
2011-09-26T13:29:11.621827,230,0.192768,0.113795,-2.408001,0.047311,-0.032651,0.983663
2011-09-26T13:29:11.631827,240,0.219718,0.119156,-2.407585,0.046580,-0.032207,0.983835
2011-09-26T13:29:11.641827,250,0.246668,0.124518,-2.407168,0.045848,-0.031762,0.984008
2011-09-26T13:29:11.651827,260,0.273617,0.129880,-2.406751,0.045117,-0.031318,0.984180
2011-09-26T13:29:11.661827,270,0.300567,0.135242,-2.406334,0.044385,-0.030874,0.984353
2011-09-26T13:29:11.671827,280,0.327517,0.140604,-2.405917,0.043654,-0.030430,0.984525
2011-09-26T13:29:11.681827,290,0.354467,0.145966,-2.405501,0.042922,-0.029985,0.984698
2011-09-26T13:29:11.691827,300,0.381416,0.151328,-2.405084,0.042191,-0.029541,0.984871
2011-09-26T13:29:11.701827,310,0.408366,0.156690,-2.404667,0.041459,-0.029097,0.985043
2011-09-26T13:29:11.711827,320,0.366193,0.123071,-2.404393,0.041601,-0.029352,0.986170
2011-09-26T13:29:11.721827,330,0.323870,0.089368,-2.404120,0.041746,-0.029608,0.987298
2011-09-26T13:29:11.731827,340,0.281546,0.055664,-2.403846,0.041890,-0.029865,0.988427
2011-09-26T13:29:11.741827,350,0.239223,0.021961,-2.403572,0.042034,-0.030122,0.989555
2011-09-26T13:29:11.751827,360,0.196899,-0.011743,-2.403299,0.042178,-0.030378,0.990684
2011-09-26T13:29:11.761827,370,0.154575,-0.045446,-2.403025,0.042322,-0.030635,0.991812
2011-09-26T13:29:11.771827,380,0.112252,-0.079150,-2.402751,0.042467,-0.030891,0.992941
2011-09-26T13:29:11.781827,390,0.069928,-0.112853,-2.402478,0.042611,-0.031148,0.994070
2011-09-26T13:29:11.791827,400,0.027605,-0.146557,-2.402204,0.042755,-0.031404,0.995198
2011-09-26T13:29:11.801827,410,-0.014719,-0.180260,-2.401930,0.042899,-0.031661,0.996327
2011-09-26T13:29:11.811827,420,-0.029401,-0.175930,-2.409103,0.043402,-0.031529,0.998322
2011-09-26T13:29:11.821827,430,-0.043905,-0.171356,-2.416323,0.043907,-0.031395,1.000323
2011-09-26T13:29:11.831827,440,-0.058409,-0.166781,-2.423543,0.044413,-0.031260,1.002324
2011-09-26T13:29:11.841827,450,-0.072914,-0.162206,-2.430764,0.044918,-0.031126,1.004324
2011-09-26T13:29:11.851827,460,-0.087418,-0.157632,-2.437984,0.045423,-0.030992,1.006325
2011-09-26T13:29:11.861827,470,-0.101922,-0.153057,-2.445205,0.045928,-0.030857,1.008326
2011-09-26T13:29:11.871827,480,-0.116426,-0.148482,-2.452425,0.046433,-0.030723,1.010327
2011-09-26T13:29:11.881827,490,-0.130931,-0.143908,-2.459645,0.046938,-0.030589,1.012328
2011-09-26T13:29:11.891827,500,-0.145435,-0.139333,-2.466866,0.047444,-0.030455,1.014329
2011-09-26T13:29:11.901827,510,-0.159939,-0.134759,-2.474086,0.047949,-0.030320,1.016329
2011-09-26T13:29:11.911827,520,-0.174443,-0.130184,-2.481307,0.048454,-0.030186,1.018330
2011-09-26T13:29:11.921827,530,-0.207436,-0.057675,-2.482208,0.047248,-0.030284,1.016537
2011-09-26T13:29:11.931827,540,-0.240453,0.014920,-2.483101,0.046040,-0.030383,1.014740
2011-09-26T13:29:11.941827,550,-0.273469,0.087515,-2.483995,0.044832,-0.030482,1.012942
2011-09-26T13:29:11.951827,560,-0.306486,0.160110,-2.484888,0.043623,-0.030580,1.011144
2011-09-26T13:29:11.961827,570,-0.339502,0.232705,-2.485781,0.042415,-0.030679,1.009346
2011-09-26T13:29:11.971827,580,-0.372519,0.305300,-2.486675,0.041207,-0.030778,1.007549
2011-09-26T13:29:11.981827,590,-0.405536,0.377895,-2.487568,0.039999,-0.030876,1.005751
2011-09-26T13:29:11.991827,600,-0.438552,0.450490,-2.488461,0.038791,-0.030975,1.003953
2011-09-26T13:29:12.001827,610,-0.471569,0.523085,-2.489355,0.037583,-0.031074,1.002156
2011-09-26T13:29:12.011827,620,-0.504585,0.595680,-2.490248,0.036375,-0.031172,1.000358
2011-09-26T13:29:12.021827,630,-0.498473,0.593599,-2.491579,0.035944,-0.033629,0.998294
2011-09-26T13:29:12.031827,640,-0.492220,0.591250,-2.492912,0.035516,-0.036094,0.996229
2011-09-26T13:29:12.041827,650,-0.485966,0.588900,-2.494244,0.035088,-0.038559,0.994165
2011-09-26T13:29:12.051827,660,-0.479713,0.586550,-2.495577,0.034660,-0.041024,0.992100
2011-09-26T13:29:12.061827,670,-0.473460,0.584200,-2.496910,0.034231,-0.043489,0.990035
2011-09-26T13:29:12.071827,680,-0.467207,0.581850,-2.498242,0.033803,-0.045954,0.987970
2011-09-26T13:29:12.081827,690,-0.460954,0.579500,-2.499575,0.033375,-0.048419,0.985906
2011-09-26T13:29:12.091827,700,-0.454701,0.577150,-2.500908,0.032947,-0.050884,0.983841
2011-09-26T13:29:12.101827,710,-0.448447,0.574800,-2.502240,0.032519,-0.053349,0.981776
2011-09-26T13:29:12.111827,720,-0.442194,0.572450,-2.503573,0.032091,-0.055814,0.979712
2011-09-26T13:29:12.121827,730,-0.439399,0.508952,-2.502438,0.031256,-0.054170,0.980389
2011-09-26T13:29:12.131827,740,-0.436615,0.445270,-2.501296,0.030419,-0.052514,0.981075
2011-09-26T13:29:12.141827,750,-0.433830,0.381589,-2.500154,0.029582,-0.050859,0.981761
2011-09-26T13:29:12.151827,760,-0.431046,0.317907,-2.499012,0.028745,-0.049203,0.982447
2011-09-26T13:29:12.161827,770,-0.428262,0.254226,-2.497870,0.027908,-0.047547,0.983133
2011-09-26T13:29:12.171827,780,-0.425477,0.190544,-2.496728,0.027072,-0.045891,0.983819
2011-09-26T13:29:12.181827,790,-0.422693,0.126863,-2.495585,0.026235,-0.044236,0.984505
2011-09-26T13:29:12.191827,800,-0.419908,0.063181,-2.494443,0.025398,-0.042580,0.985191
2011-09-26T13:29:12.201827,810,-0.417124,-0.000500,-2.493301,0.024561,-0.040924,0.985877
2011-09-26T13:29:12.211827,820,-0.414339,-0.064182,-2.492159,0.023724,-0.039269,0.986563
2011-09-26T13:29:12.221827,830,-0.411555,-0.127863,-2.491017,0.022888,-0.037613,0.987249
2011-09-26T13:29:12.231827,840,-0.407058,-0.147774,-2.479140,0.022800,-0.037690,0.989703
2011-09-26T13:29:12.241827,850,-0.402529,-0.166847,-2.467058,0.022726,-0.037800,0.992192
2011-09-26T13:29:12.251827,860,-0.398000,-0.185919,-2.454976,0.022653,-0.037911,0.994680
2011-09-26T13:29:12.261827,870,-0.393470,-0.204992,-2.442893,0.022579,-0.038021,0.997168
2011-09-26T13:29:12.271827,880,-0.388941,-0.224065,-2.430811,0.022506,-0.038131,0.999656
2011-09-26T13:29:12.281827,890,-0.384412,-0.243138,-2.418729,0.022432,-0.038242,1.002145
2011-09-26T13:29:12.291827,900,-0.379882,-0.262211,-2.406647,0.022359,-0.038352,1.004633
2011-09-26T13:29:12.301827,910,-0.375353,-0.281284,-2.394565,0.022285,-0.038462,1.007121
2011-09-26T13:29:12.311827,920,-0.370824,-0.300356,-2.382482,0.022212,-0.038573,1.009609
2011-09-26T13:29:12.321827,930,-0.366295,-0.319429,-2.370400,0.022138,-0.038683,1.012098
2011-09-26T13:29:12.331827,940,-0.358588,-0.326028,-2.368642,0.022273,-0.037866,1.013053
2011-09-26T13:29:12.341827,950,-0.350851,-0.332509,-2.366983,0.022410,-0.037039,1.013994
2011-09-26T13:29:12.351827,960,-0.343114,-0.338989,-2.365323,0.022547,-0.036213,1.014934
2011-09-26T13:29:12.361827,970,-0.335378,-0.345470,-2.363663,0.022684,-0.035387,1.015875
2011-09-26T13:29:12.371827,980,-0.327641,-0.351951,-2.362003,0.022821,-0.034561,1.016816
2011-09-26T13:29:12.381827,990,-0.319904,-0.358431,-2.360343,0.022958,-0.033735,1.017757
2011-09-26T13:29:12.391827,1000,-0.312168,-0.364912,-2.358683,0.023095,-0.032909,1.018697
2011-09-26T13:29:12.401827,1010,-0.304431,-0.371392,-2.357024,0.023232,-0.032083,1.019638
2011-09-26T13:29:12.411827,1020,-0.296694,-0.377873,-2.355364,0.023369,-0.031256,1.020579
2011-09-26T13:29:12.421827,1030,-0.288957,-0.384354,-2.353704,0.023506,-0.030430,1.021520
2011-09-26T13:29:12.431827,1040,-0.243324,-0.349240,-2.347367,0.022838,-0.030042,1.020662
2011-09-26T13:29:12.441827,1050,-0.196988,-0.313356,-2.340943,0.022155,-0.029662,1.019772
2011-09-26T13:29:12.451827,1060,-0.150653,-0.277472,-2.334520,0.021473,-0.029282,1.018881
2011-09-26T13:29:12.461827,1070,-0.104318,-0.241588,-2.328096,0.020790,-0.028902,1.017990
2011-09-26T13:29:12.471827,1080,-0.057982,-0.205704,-2.321672,0.020108,-0.028522,1.017099
2011-09-26T13:29:12.481827,1090,-0.011647,-0.169821,-2.315249,0.019425,-0.028142,1.016208
2011-09-26T13:29:12.491827,1100,0.034689,-0.133937,-2.308825,0.018743,-0.027762,1.015318
2011-09-26T13:29:12.501827,1110,0.081024,-0.098053,-2.302402,0.018060,-0.027382,1.014427
2011-09-26T13:29:12.511827,1120,0.127360,-0.062169,-2.295978,0.017378,-0.027002,1.013536
2011-09-26T13:29:12.521827,1130,0.173695,-0.026285,-2.289554,0.016695,-0.026622,1.012645
2011-09-26T13:29:12.531827,1140,0.220031,0.009599,-2.283131,0.016012,-0.026242,1.011755
2011-09-26T13:29:12.541827,1150,0.183546,0.024898,-2.251765,0.015501,-0.025924,1.010268
2011-09-26T13:29:12.551827,1160,0.146656,0.040096,-2.220277,0.014991,-0.025605,1.008778
2011-09-26T13:29:12.561827,1170,0.109765,0.055294,-2.188789,0.014481,-0.025287,1.007288
2011-09-26T13:29:12.571827,1180,0.072874,0.070491,-2.157301,0.013971,-0.024969,1.005797
2011-09-26T13:29:12.581827,1190,0.035984,0.085689,-2.125813,0.013461,-0.024651,1.004307
2011-09-26T13:29:12.591827,1200,-0.000907,0.100887,-2.094325,0.012951,-0.024333,1.002817
2011-09-26T13:29:12.601827,1210,-0.037798,0.116085,-2.062837,0.012440,-0.024014,1.001327
2011-09-26T13:29:12.611827,1220,-0.074688,0.131283,-2.031348,0.011930,-0.023696,0.999837
2011-09-26T13:29:12.621827,1230,-0.111579,0.146480,-1.999860,0.011420,-0.023378,0.998347
2011-09-26T13:29:12.631827,1240,-0.148470,0.161678,-1.968372,0.010910,-0.023060,0.996857
2011-09-26T13:29:12.641827,1250,-0.133352,0.141617,-1.932273,0.010540,-0.022899,0.997339
2011-09-26T13:29:12.651827,1260,-0.118028,0.121415,-1.896155,0.010171,-0.022739,0.997829
2011-09-26T13:29:12.661827,1270,-0.102703,0.101213,-1.860037,0.009802,-0.022579,0.998319
2011-09-26T13:29:12.671827,1280,-0.087378,0.081012,-1.823919,0.009433,-0.022419,0.998809
2011-09-26T13:29:12.681827,1290,-0.072053,0.060810,-1.787802,0.009063,-0.022260,0.999299
2011-09-26T13:29:12.691827,1300,-0.056728,0.040608,-1.751684,0.008694,-0.022100,0.999789
2011-09-26T13:29:12.701827,1310,-0.041403,0.020406,-1.715566,0.008325,-0.021940,1.000279
2011-09-26T13:29:12.711827,1320,-0.026078,0.000204,-1.679448,0.007956,-0.021780,1.000769
2011-09-26T13:29:12.721827,1330,-0.010753,-0.019998,-1.643330,0.007587,-0.021620,1.001259
2011-09-26T13:29:12.731827,1340,0.004571,-0.040200,-1.607213,0.007217,-0.021460,1.001749
2011-09-26T13:29:12.741827,1350,0.006325,-0.035768,-1.592586,0.006579,-0.019608,1.001882
2011-09-26T13:29:12.751827,1360,0.007778,-0.030790,-1.578435,0.005934,-0.017718,1.002007
2011-09-26T13:29:12.761827,1370,0.009231,-0.025813,-1.564284,0.005289,-0.015828,1.002132
2011-09-26T13:29:12.771827,1380,0.010684,-0.020836,-1.550134,0.004645,-0.013939,1.002258
2011-09-26T13:29:12.781827,1390,0.012137,-0.015858,-1.535983,0.004000,-0.012049,1.002383
2011-09-26T13:29:12.791827,1400,0.013590,-0.010881,-1.521833,0.003355,-0.010159,1.002508
2011-09-26T13:29:12.801827,1410,0.015043,-0.005903,-1.507682,0.002710,-0.008270,1.002634
2011-09-26T13:29:12.811827,1420,0.016496,-0.000926,-1.493531,0.002066,-0.006380,1.002759
2011-09-26T13:29:12.821827,1430,0.017949,0.004052,-1.479381,0.001421,-0.004490,1.002884
2011-09-26T13:29:12.831827,1440,0.019402,0.009029,-1.465230,0.000776,-0.002601,1.003010
2011-09-26T13:29:12.841827,1450,0.020855,0.014007,-1.451079,0.000131,-0.000711,1.003135
2011-09-26T13:29:12.851827,1460,0.024466,-0.011119,-1.421397,-0.000349,-0.000872,1.003239
2011-09-26T13:29:12.861827,1470,0.028093,-0.036462,-1.391603,-0.000828,-0.001048,1.003343
2011-09-26T13:29:12.871827,1480,0.031720,-0.061806,-1.361808,-0.001307,-0.001224,1.003446
2011-09-26T13:29:12.881827,1490,0.035346,-0.087149,-1.332014,-0.001786,-0.001399,1.003550
2011-09-26T13:29:12.891827,1500,0.038973,-0.112492,-1.302219,-0.002265,-0.001575,1.003654
2011-09-26T13:29:12.901827,1510,0.042599,-0.137835,-1.272424,-0.002744,-0.001751,1.003757
2011-09-26T13:29:12.911827,1520,0.046226,-0.163179,-1.242630,-0.003223,-0.001927,1.003861
2011-09-26T13:29:12.921827,1530,0.049853,-0.188522,-1.212835,-0.003702,-0.002103,1.003965
2011-09-26T13:29:12.931827,1540,0.053479,-0.213865,-1.183041,-0.004181,-0.002279,1.004068
2011-09-26T13:29:12.941827,1550,0.057106,-0.239208,-1.153246,-0.004660,-0.002454,1.004172
2011-09-26T13:29:12.951827,1560,0.079710,-0.202117,-1.115317,-0.004427,-0.002070,1.004792
2011-09-26T13:29:12.961827,1570,0.102438,-0.164620,-1.077334,-0.004189,-0.001682,1.005416
2011-09-26T13:29:12.971827,1580,0.125166,-0.127122,-1.039352,-0.003951,-0.001295,1.006040
2011-09-26T13:29:12.981827,1590,0.147894,-0.089625,-1.001369,-0.003713,-0.000907,1.006664
2011-09-26T13:29:12.991827,1600,0.170622,-0.052127,-0.963387,-0.003476,-0.000519,1.007287
2011-09-26T13:29:13.001827,1610,0.193350,-0.014629,-0.925404,-0.003238,-0.000131,1.007911
2011-09-26T13:29:13.011827,1620,0.216079,0.022868,-0.887422,-0.003000,0.000256,1.008535
2011-09-26T13:29:13.021827,1630,0.238807,0.060366,-0.849439,-0.002763,0.000644,1.009159
2011-09-26T13:29:13.031827,1640,0.261535,0.097864,-0.811457,-0.002525,0.001032,1.009782
2011-09-26T13:29:13.041827,1650,0.284263,0.135361,-0.773474,-0.002287,0.001420,1.010406
2011-09-26T13:29:13.051827,1660,0.308273,0.164510,-0.715074,-0.003077,0.002769,1.008886
2011-09-26T13:29:13.061827,1670,0.332289,0.193625,-0.656591,-0.003872,0.004123,1.007356
2011-09-26T13:29:13.071827,1680,0.356305,0.222739,-0.598107,-0.004667,0.005476,1.005827
2011-09-26T13:29:13.081827,1690,0.380320,0.251854,-0.539624,-0.005461,0.006830,1.004298
2011-09-26T13:29:13.091827,1700,0.404336,0.280969,-0.481140,-0.006256,0.008183,1.002769
2011-09-26T13:29:13.101827,1710,0.428352,0.310083,-0.422657,-0.007050,0.009537,1.001239
2011-09-26T13:29:13.111827,1720,0.452367,0.339198,-0.364173,-0.007845,0.010890,0.999710
2011-09-26T13:29:13.121827,1730,0.476383,0.368312,-0.305690,-0.008640,0.012244,0.998181
2011-09-26T13:29:13.131827,1740,0.500399,0.397427,-0.247206,-0.009434,0.013598,0.996652
2011-09-26T13:29:13.141827,1750,0.524415,0.426542,-0.188723,-0.010229,0.014951,0.995122
2011-09-26T13:29:13.151827,1760,0.548430,0.455656,-0.130239,-0.011023,0.016305,0.993593
2011-09-26T13:29:13.161827,1770,0.550841,0.448735,-0.065113,-0.010675,0.018575,0.991772
2011-09-26T13:29:13.171827,1780,0.553159,0.441658,0.000042,-0.010321,0.020849,0.989950
2011-09-26T13:29:13.181827,1790,0.555477,0.434581,0.065196,-0.009967,0.023123,0.988129
2011-09-26T13:29:13.191827,1800,0.557795,0.427503,0.130351,-0.009613,0.025397,0.986307
2011-09-26T13:29:13.201827,1810,0.560113,0.420426,0.195506,-0.009260,0.027671,0.984485
2011-09-26T13:29:13.211827,1820,0.562430,0.413349,0.260660,-0.008906,0.029945,0.982663
2011-09-26T13:29:13.221827,1830,0.564748,0.406272,0.325815,-0.008552,0.032219,0.980841
2011-09-26T13:29:13.231827,1840,0.567066,0.399195,0.390970,-0.008199,0.034493,0.979019
2011-09-26T13:29:13.241827,1850,0.569384,0.392118,0.456124,-0.007845,0.036767,0.977197
2011-09-26T13:29:13.251827,1860,0.571702,0.385041,0.521279,-0.007491,0.039041,0.975375
2011-09-26T13:29:13.261827,1870,0.535865,0.345257,0.572069,-0.006445,0.041286,0.975404
2011-09-26T13:29:13.271827,1880,0.498776,0.304400,0.622388,-0.005377,0.043530,0.975493
2011-09-26T13:29:13.281827,1890,0.461686,0.263543,0.672706,-0.004309,0.045775,0.975583
2011-09-26T13:29:13.291827,1900,0.424597,0.222685,0.723025,-0.003240,0.048019,0.975672
2011-09-26T13:29:13.301827,1910,0.387508,0.181828,0.773344,-0.002172,0.050263,0.975761
2011-09-26T13:29:13.311827,1920,0.350419,0.140971,0.823662,-0.001103,0.052508,0.975851
2011-09-26T13:29:13.321827,1930,0.313329,0.100113,0.873981,-0.000035,0.054752,0.975940
2011-09-26T13:29:13.331827,1940,0.276240,0.059256,0.924299,0.001034,0.056997,0.976029
2011-09-26T13:29:13.341827,1950,0.239151,0.018398,0.974618,0.002102,0.059241,0.976119
2011-09-26T13:29:13.351827,1960,0.202062,-0.022459,1.024936,0.003170,0.061485,0.976208
2011-09-26T13:29:13.361827,1970,0.164972,-0.063316,1.075255,0.004239,0.063730,0.976298
2011-09-26T13:29:13.371827,1980,0.098421,-0.082258,1.113725,0.005422,0.064725,0.978066
2011-09-26T13:29:13.381827,1990,0.031635,-0.101025,1.152101,0.006606,0.065710,0.979847
2011-09-26T13:29:13.391827,2000,-0.035151,-0.119792,1.190477,0.007791,0.066696,0.981629
2011-09-26T13:29:13.401827,2010,-0.101936,-0.138559,1.228852,0.008975,0.067681,0.983410
2011-09-26T13:29:13.411827,2020,-0.168722,-0.157326,1.267228,0.010159,0.068666,0.985191
2011-09-26T13:29:13.421827,2030,-0.235508,-0.176094,1.305604,0.011343,0.069652,0.986973
2011-09-26T13:29:13.431827,2040,-0.302294,-0.194861,1.343980,0.012527,0.070637,0.988754
2011-09-26T13:29:13.441827,2050,-0.369079,-0.213628,1.382356,0.013712,0.071622,0.990536
2011-09-26T13:29:13.451827,2060,-0.435865,-0.232395,1.420731,0.014896,0.072607,0.992317
2011-09-26T13:29:13.461827,2070,-0.502651,-0.251162,1.459107,0.016080,0.073593,0.994099
2011-09-26T13:29:13.471827,2080,-0.541176,-0.223412,1.486003,0.016827,0.074725,0.994464
2011-09-26T13:29:13.481827,2090,-0.579361,-0.195103,1.512760,0.017569,0.075860,0.994813
2011-09-26T13:29:13.491827,2100,-0.617545,-0.166793,1.539517,0.018311,0.076994,0.995161
2011-09-26T13:29:13.501827,2110,-0.655730,-0.138483,1.566274,0.019052,0.078128,0.995509
2011-09-26T13:29:13.511827,2120,-0.693915,-0.110173,1.593031,0.019794,0.079263,0.995858
2011-09-26T13:29:13.521827,2130,-0.732100,-0.081864,1.619789,0.020536,0.080397,0.996206
2011-09-26T13:29:13.531827,2140,-0.770285,-0.053554,1.646546,0.021277,0.081532,0.996555
2011-09-26T13:29:13.541827,2150,-0.808470,-0.025244,1.673303,0.022019,0.082666,0.996903
2011-09-26T13:29:13.551827,2160,-0.846654,0.003066,1.700060,0.022761,0.083800,0.997252
2011-09-26T13:29:13.561827,2170,-0.884839,0.031376,1.726818,0.023503,0.084935,0.997600
2011-09-26T13:29:13.571827,2180,-0.927584,-0.013372,1.748618,0.023361,0.084740,0.996555
2011-09-26T13:29:13.581827,2190,-0.970369,-0.058767,1.770375,0.023211,0.084534,0.995497
2011-09-26T13:29:13.591827,2200,-1.013154,-0.104162,1.792131,0.023061,0.084327,0.994440
2011-09-26T13:29:13.601827,2210,-1.055939,-0.149557,1.813888,0.022912,0.084121,0.993382
2011-09-26T13:29:13.611827,2220,-1.098724,-0.194952,1.835645,0.022762,0.083915,0.992324
2011-09-26T13:29:13.621827,2230,-1.141509,-0.240347,1.857401,0.022612,0.083708,0.991267
2011-09-26T13:29:13.631827,2240,-1.184294,-0.285742,1.879158,0.022463,0.083502,0.990209
2011-09-26T13:29:13.641827,2250,-1.227079,-0.331138,1.900914,0.022313,0.083296,0.989152
2011-09-26T13:29:13.651827,2260,-1.269864,-0.376533,1.922671,0.022163,0.083089,0.988094
2011-09-26T13:29:13.661827,2270,-1.312649,-0.421928,1.944428,0.022013,0.082883,0.987036
2011-09-26T13:29:13.671827,2280,-1.355434,-0.467323,1.966184,0.021864,0.082677,0.985979
2011-09-26T13:29:13.681827,2290,-1.317918,-0.493905,1.960500,0.022451,0.083487,0.988086
2011-09-26T13:29:13.691827,2300,-1.279575,-0.520293,1.954533,0.023046,0.084309,0.990226
2011-09-26T13:29:13.701827,2310,-1.241233,-0.546682,1.948566,0.023640,0.085130,0.992366
2011-09-26T13:29:13.711827,2320,-1.202890,-0.573070,1.942599,0.024235,0.085952,0.994506
2011-09-26T13:29:13.721827,2330,-1.164548,-0.599459,1.936633,0.024830,0.086773,0.996646
2011-09-26T13:29:13.731827,2340,-1.126206,-0.625847,1.930666,0.025424,0.087594,0.998786
2011-09-26T13:29:13.741827,2350,-1.087863,-0.652236,1.924699,0.026019,0.088416,1.000926
2011-09-26T13:29:13.751827,2360,-1.049521,-0.678624,1.918733,0.026613,0.089237,1.003066
2011-09-26T13:29:13.761827,2370,-1.011178,-0.705012,1.912766,0.027208,0.090059,1.005205
2011-09-26T13:29:13.771827,2380,-0.972836,-0.731401,1.906799,0.027803,0.090880,1.007345
2011-09-26T13:29:13.781827,2390,-0.982839,-0.733271,1.923773,0.028295,0.089439,1.008828
2011-09-26T13:29:13.791827,2400,-0.995008,-0.734042,1.941774,0.028782,0.087898,1.010281
2011-09-26T13:29:13.801827,2410,-1.007177,-0.734813,1.959775,0.029269,0.086356,1.011734
2011-09-26T13:29:13.811827,2420,-1.019346,-0.735585,1.977777,0.029756,0.084814,1.013187
2011-09-26T13:29:13.821827,2430,-1.031515,-0.736356,1.995778,0.030243,0.083272,1.014640
2011-09-26T13:29:13.831827,2440,-1.043684,-0.737128,2.013779,0.030730,0.081731,1.016094
2011-09-26T13:29:13.841827,2450,-1.055853,-0.737899,2.031780,0.031217,0.080189,1.017547
2011-09-26T13:29:13.851827,2460,-1.068022,-0.738671,2.049782,0.031704,0.078647,1.019000
2011-09-26T13:29:13.861827,2470,-1.080191,-0.739442,2.067783,0.032191,0.077105,1.020453
2011-09-26T13:29:13.871827,2480,-1.092360,-0.740213,2.085784,0.032678,0.075563,1.021906
2011-09-26T13:29:13.881827,2490,-1.034896,-0.742072,2.110059,0.032894,0.076419,1.022796
2011-09-26T13:29:13.891827,2500,-0.976658,-0.743942,2.134403,0.033108,0.077301,1.023679
2011-09-26T13:29:13.901827,2510,-0.918421,-0.745812,2.158747,0.033321,0.078182,1.024562
2011-09-26T13:29:13.911827,2520,-0.860183,-0.747683,2.183091,0.033534,0.079064,1.025445
2011-09-26T13:29:13.921827,2530,-0.801946,-0.749553,2.207435,0.033747,0.079946,1.026329
2011-09-26T13:29:13.931827,2540,-0.743709,-0.751424,2.231779,0.033961,0.080828,1.027212
2011-09-26T13:29:13.941827,2550,-0.685471,-0.753294,2.256123,0.034174,0.081710,1.028095
2011-09-26T13:29:13.951827,2560,-0.627234,-0.755164,2.280467,0.034387,0.082592,1.028978
2011-09-26T13:29:13.961827,2570,-0.568997,-0.757035,2.304811,0.034600,0.083473,1.029862
2011-09-26T13:29:13.971827,2580,-0.510759,-0.758905,2.329155,0.034813,0.084355,1.030745
2011-09-26T13:29:13.981827,2590,-0.452522,-0.760776,2.353499,0.035027,0.085237,1.031628
2011-09-26T13:29:13.991827,2600,-0.397645,-0.731923,2.363000,0.036077,0.085723,1.031378
2011-09-26T13:29:14.001827,2610,-0.342807,-0.702716,2.372330,0.037137,0.086204,1.031114
2011-09-26T13:29:14.011827,2620,-0.287969,-0.673510,2.381660,0.038196,0.086685,1.030851
2011-09-26T13:29:14.021827,2630,-0.233131,-0.644303,2.390990,0.039256,0.087166,1.030588
2011-09-26T13:29:14.031827,2640,-0.178292,-0.615096,2.400320,0.040316,0.087647,1.030324
2011-09-26T13:29:14.041827,2650,-0.123454,-0.585890,2.409650,0.041376,0.088128,1.030061
2011-09-26T13:29:14.051827,2660,-0.068616,-0.556683,2.418980,0.042436,0.088610,1.029797
2011-09-26T13:29:14.061827,2670,-0.013778,-0.527477,2.428310,0.043496,0.089091,1.029534
2011-09-26T13:29:14.071827,2680,0.041060,-0.498270,2.437640,0.044556,0.089572,1.029271
2011-09-26T13:29:14.081827,2690,0.095898,-0.469064,2.446970,0.045615,0.090053,1.029007
2011-09-26T13:29:14.091827,2700,0.086839,-0.357603,2.459974,0.045322,0.091216,1.027190
2011-09-26T13:29:14.101827,2710,0.076905,-0.245016,2.473029,0.045010,0.092389,1.025351
2011-09-26T13:29:14.111827,2720,0.066971,-0.132429,2.486084,0.044699,0.093561,1.023513
2011-09-26T13:29:14.121827,2730,0.057037,-0.019843,2.499139,0.044387,0.094734,1.021674
2011-09-26T13:29:14.131827,2740,0.047104,0.092744,2.512194,0.044075,0.095906,1.019836
2011-09-26T13:29:14.141827,2750,0.037170,0.205331,2.525249,0.043763,0.097079,1.017997
2011-09-26T13:29:14.151827,2760,0.027236,0.317917,2.538304,0.043451,0.098251,1.016159
2011-09-26T13:29:14.161827,2770,0.017302,0.430504,2.551359,0.043140,0.099424,1.014320
2011-09-26T13:29:14.171827,2780,0.007368,0.543091,2.564414,0.042828,0.100596,1.012481
2011-09-26T13:29:14.181827,2790,-0.002566,0.655678,2.577469,0.042516,0.101769,1.010643
2011-09-26T13:29:14.191827,2800,0.010768,0.646629,2.568861,0.041312,0.102040,1.007020
2011-09-26T13:29:14.201827,2810,0.024400,0.636020,2.559976,0.040097,0.102300,1.003375
2011-09-26T13:29:14.211827,2820,0.038032,0.625410,2.551091,0.038882,0.102560,0.999730
2011-09-26T13:29:14.221827,2830,0.051665,0.614800,2.542206,0.037667,0.102821,0.996084
2011-09-26T13:29:14.231827,2840,0.065297,0.604191,2.533320,0.036452,0.103081,0.992439
2011-09-26T13:29:14.241827,2850,0.078929,0.593581,2.524435,0.035237,0.103341,0.988794
2011-09-26T13:29:14.251827,2860,0.092561,0.582972,2.515550,0.034021,0.103601,0.985148
2011-09-26T13:29:14.261827,2870,0.106193,0.572362,2.506665,0.032806,0.103861,0.981503
2011-09-26T13:29:14.271827,2880,0.119826,0.561753,2.497779,0.031591,0.104121,0.977857
2011-09-26T13:29:14.281827,2890,0.133458,0.551143,2.488894,0.030376,0.104381,0.974212
2011-09-26T13:29:14.291827,2900,0.147090,0.540534,2.480009,0.029161,0.104641,0.970567
2011-09-26T13:29:14.301827,2910,0.119901,0.520713,2.469546,0.029334,0.103778,0.971983
2011-09-26T13:29:14.311827,2920,0.091267,0.500566,2.459026,0.029556,0.102874,0.973578
2011-09-26T13:29:14.321827,2930,0.062632,0.480419,2.448507,0.029779,0.101971,0.975174
2011-09-26T13:29:14.331827,2940,0.033998,0.460273,2.437987,0.030001,0.101068,0.976769
2011-09-26T13:29:14.341827,2950,0.005363,0.440126,2.427468,0.030224,0.100164,0.978365
2011-09-26T13:29:14.351827,2960,-0.023271,0.419979,2.416949,0.030446,0.099261,0.979960
2011-09-26T13:29:14.361827,2970,-0.051906,0.399832,2.406429,0.030669,0.098357,0.981556
2011-09-26T13:29:14.371827,2980,-0.080540,0.379685,2.395910,0.030891,0.097454,0.983151
2011-09-26T13:29:14.381827,2990,-0.109175,0.359539,2.385390,0.031113,0.096551,0.984747
2011-09-26T13:29:14.391827,3000,-0.137809,0.339392,2.374871,0.031336,0.095647,0.986342
2011-09-26T13:29:14.401827,3010,-0.157356,0.401907,2.366704,0.030435,0.095256,0.986623
2011-09-26T13:29:14.411827,3020,-0.176766,0.465662,2.358573,0.029518,0.094872,0.986883
2011-09-26T13:29:14.421827,3030,-0.196175,0.529417,2.350442,0.028600,0.094489,0.987144
2011-09-26T13:29:14.431827,3040,-0.215585,0.593171,2.342311,0.027682,0.094105,0.987405
2011-09-26T13:29:14.441827,3050,-0.234995,0.656926,2.334179,0.026765,0.093722,0.987666
2011-09-26T13:29:14.451827,3060,-0.254405,0.720681,2.326048,0.025847,0.093338,0.987927
2011-09-26T13:29:14.461827,3070,-0.273815,0.784435,2.317917,0.024930,0.092954,0.988188
2011-09-26T13:29:14.471827,3080,-0.293225,0.848190,2.309785,0.024012,0.092571,0.988449
2011-09-26T13:29:14.481827,3090,-0.312635,0.911945,2.301654,0.023095,0.092187,0.988709
2011-09-26T13:29:14.491827,3100,-0.332045,0.975699,2.293523,0.022177,0.091804,0.988970
2011-09-26T13:29:14.501827,3110,-0.313667,0.958223,2.283186,0.021676,0.091634,0.988352
2011-09-26T13:29:14.511827,3120,-0.294741,0.939570,2.272817,0.021181,0.091468,0.987721
2011-09-26T13:29:14.521827,3130,-0.275816,0.920918,2.262448,0.020686,0.091302,0.987090
2011-09-26T13:29:14.531827,3140,-0.256890,0.902265,2.252079,0.020191,0.091136,0.986459
2011-09-26T13:29:14.541827,3150,-0.237965,0.883612,2.241710,0.019695,0.090970,0.985828
2011-09-26T13:29:14.551827,3160,-0.219039,0.864959,2.231341,0.019200,0.090804,0.985197
2011-09-26T13:29:14.561827,3170,-0.200114,0.846306,2.220972,0.018705,0.090638,0.984566
2011-09-26T13:29:14.571827,3180,-0.181188,0.827653,2.210603,0.018210,0.090472,0.983935
2011-09-26T13:29:14.581827,3190,-0.162263,0.809000,2.200234,0.017715,0.090306,0.983304
2011-09-26T13:29:14.591827,3200,-0.143337,0.790347,2.189864,0.017220,0.090140,0.982674
2011-09-26T13:29:14.601827,3210,-0.124412,0.771694,2.179495,0.016725,0.089974,0.982043
2011-09-26T13:29:14.611827,3220,-0.179511,0.759283,2.161310,0.016718,0.090913,0.981564
2011-09-26T13:29:14.621827,3230,-0.235650,0.746959,2.143014,0.016718,0.091868,0.981087
2011-09-26T13:29:14.631827,3240,-0.291790,0.734635,2.124718,0.016718,0.092823,0.980610
2011-09-26T13:29:14.641827,3250,-0.347930,0.722312,2.106423,0.016717,0.093778,0.980134
2011-09-26T13:29:14.651827,3260,-0.404070,0.709988,2.088127,0.016717,0.094732,0.979657
2011-09-26T13:29:14.661827,3270,-0.460210,0.697664,2.069832,0.016717,0.095687,0.979180
2011-09-26T13:29:14.671827,3280,-0.516350,0.685340,2.051536,0.016717,0.096642,0.978704
2011-09-26T13:29:14.681827,3290,-0.572490,0.673017,2.033240,0.016717,0.097597,0.978227
2011-09-26T13:29:14.691827,3300,-0.628630,0.660693,2.014945,0.016717,0.098552,0.977750
2011-09-26T13:29:14.701827,3310,-0.684770,0.648369,1.996649,0.016716,0.099507,0.977274
2011-09-26T13:29:14.711827,3320,-0.566100,0.696206,1.983884,0.016401,0.097145,0.978784
2011-09-26T13:29:14.721827,3330,-0.444589,0.745021,1.971210,0.016081,0.094730,0.980327
2011-09-26T13:29:14.731827,3340,-0.323078,0.793836,1.958535,0.015761,0.092315,0.981870
2011-09-26T13:29:14.741827,3350,-0.201567,0.842651,1.945861,0.015441,0.089899,0.983413
2011-09-26T13:29:14.751827,3360,-0.080056,0.891466,1.933186,0.015121,0.087484,0.984956
2011-09-26T13:29:14.761827,3370,0.041454,0.940281,1.920511,0.014801,0.085068,0.986499
2011-09-26T13:29:14.771827,3380,0.162965,0.989095,1.907837,0.014481,0.082653,0.988042
2011-09-26T13:29:14.781827,3390,0.284476,1.037910,1.895162,0.014160,0.080238,0.989585
2011-09-26T13:29:14.791827,3400,0.405987,1.086725,1.882487,0.013840,0.077822,0.991128
2011-09-26T13:29:14.801827,3410,0.527498,1.135540,1.869813,0.013520,0.075407,0.992671
2011-09-26T13:29:14.811827,3420,0.649009,1.184355,1.857138,0.013200,0.072991,0.994214
2011-09-26T13:29:14.821827,3430,0.428050,1.147765,1.868607,0.012482,0.073309,0.990261
2011-09-26T13:29:14.831827,3440,0.201146,1.109692,1.880496,0.011757,0.073674,0.986213
2011-09-26T13:29:14.841827,3450,-0.025758,1.071620,1.892384,0.011032,0.074039,0.982165
2011-09-26T13:29:14.851827,3460,-0.252663,1.033547,1.904273,0.010308,0.074404,0.978116
2011-09-26T13:29:14.861827,3470,-0.479567,0.995474,1.916161,0.009583,0.074769,0.974068
2011-09-26T13:29:14.871827,3480,-0.706471,0.957402,1.928050,0.008858,0.075134,0.970020
2011-09-26T13:29:14.881827,3490,-0.933375,0.919329,1.939938,0.008133,0.075499,0.965971
2011-09-26T13:29:14.891827,3500,-1.160280,0.881256,1.951827,0.007408,0.075864,0.961923
2011-09-26T13:29:14.901827,3510,-1.387184,0.843184,1.963715,0.006683,0.076229,0.957875
2011-09-26T13:29:14.911827,3520,-1.614088,0.805111,1.975604,0.005958,0.076594,0.953826
2011-09-26T13:29:14.921827,3530,-1.391242,0.820309,1.960692,0.005396,0.077862,0.954349
2011-09-26T13:29:14.931827,3540,-1.162015,0.836262,1.945400,0.004837,0.079143,0.954936
2011-09-26T13:29:14.941827,3550,-0.932788,0.852215,1.930109,0.004277,0.080424,0.955523
2011-09-26T13:29:14.951827,3560,-0.703561,0.868169,1.914817,0.003717,0.081705,0.956110
2011-09-26T13:29:14.961827,3570,-0.474334,0.884122,1.899525,0.003158,0.082986,0.956697
2011-09-26T13:29:14.971827,3580,-0.245107,0.900076,1.884233,0.002598,0.084267,0.957284
2011-09-26T13:29:14.981827,3590,-0.015880,0.916029,1.868941,0.002039,0.085548,0.957871
2011-09-26T13:29:14.991827,3600,0.213346,0.931983,1.853650,0.001479,0.086829,0.958458
2011-09-26T13:29:15.001827,3610,0.442573,0.947936,1.838358,0.000919,0.088110,0.959046
2011-09-26T13:29:15.011827,3620,0.671800,0.963890,1.823066,0.000360,0.089391,0.959633
2011-09-26T13:29:15.021827,3630,0.366464,0.791701,1.802230,-0.000801,0.089121,0.955453
2011-09-26T13:29:15.031827,3640,0.052778,0.616573,1.781307,-0.001970,0.088826,0.951198
2011-09-26T13:29:15.041827,3650,-0.260909,0.441445,1.760384,-0.003140,0.088531,0.946944
2011-09-26T13:29:15.051827,3660,-0.574596,0.266318,1.739461,-0.004310,0.088236,0.942689
2011-09-26T13:29:15.061827,3670,-0.888282,0.091190,1.718537,-0.005479,0.087941,0.938435
2011-09-26T13:29:15.071827,3680,-1.201969,-0.083938,1.697614,-0.006649,0.087646,0.934180
2011-09-26T13:29:15.081827,3690,-1.515656,-0.259065,1.676691,-0.007819,0.087351,0.929926
2011-09-26T13:29:15.091827,3700,-1.829342,-0.434193,1.655768,-0.008989,0.087056,0.925671
2011-09-26T13:29:15.101827,3710,-2.143029,-0.609321,1.634845,-0.010158,0.086761,0.921417
2011-09-26T13:29:15.111827,3720,-2.456716,-0.784449,1.613922,-0.011328,0.086466,0.917162
2011-09-26T13:29:15.121827,3730,-2.770402,-0.959576,1.592999,-0.012498,0.086171,0.912908
2011-09-26T13:29:15.131827,3740,-2.798117,-1.111730,1.566763,-0.009788,0.085298,0.928236
2011-09-26T13:29:15.141827,3750,-2.822654,-1.263630,1.540468,-0.007036,0.084418,0.943782
2011-09-26T13:29:15.151827,3760,-2.847192,-1.415529,1.514173,-0.004284,0.083538,0.959328
2011-09-26T13:29:15.161827,3770,-2.871729,-1.567428,1.487877,-0.001532,0.082659,0.974874
2011-09-26T13:29:15.171827,3780,-2.896267,-1.719327,1.461582,0.001221,0.081779,0.990419
2011-09-26T13:29:15.181827,3790,-2.920805,-1.871226,1.435287,0.003973,0.080899,1.005965
2011-09-26T13:29:15.191827,3800,-2.945342,-2.023125,1.408992,0.006725,0.080019,1.021511
2011-09-26T13:29:15.201827,3810,-2.969880,-2.175024,1.382697,0.009477,0.079139,1.037057
2011-09-26T13:29:15.211827,3820,-2.994418,-2.326923,1.356401,0.012230,0.078260,1.052603
2011-09-26T13:29:15.221827,3830,-3.018955,-2.478822,1.330106,0.014982,0.077380,1.068149
2011-09-26T13:29:15.231827,3840,-3.002863,-2.259152,1.312131,0.017147,0.074934,1.070983
2011-09-26T13:29:15.241827,3850,-2.985712,-2.029801,1.294373,0.019297,0.072446,1.073486
2011-09-26T13:29:15.251827,3860,-2.968561,-1.800450,1.276615,0.021446,0.069959,1.075990
2011-09-26T13:29:15.261827,3870,-2.951409,-1.571099,1.258857,0.023596,0.067472,1.078493
2011-09-26T13:29:15.271827,3880,-2.934258,-1.341748,1.241099,0.025746,0.064985,1.080996
2011-09-26T13:29:15.281827,3890,-2.917107,-1.112397,1.223341,0.027896,0.062498,1.083499
2011-09-26T13:29:15.291827,3900,-2.899956,-0.883046,1.205583,0.030045,0.060011,1.086003
2011-09-26T13:29:15.301827,3910,-2.882805,-0.653695,1.187825,0.032195,0.057524,1.088506
2011-09-26T13:29:15.311827,3920,-2.865654,-0.424344,1.170067,0.034345,0.055036,1.091009
2011-09-26T13:29:15.321827,3930,-2.848503,-0.194993,1.152308,0.036495,0.052549,1.093513
2011-09-26T13:29:15.331827,3940,-2.700631,-0.123306,1.150974,0.034125,0.049757,1.081844
2011-09-26T13:29:15.341827,3950,-2.550421,-0.054439,1.149933,0.031674,0.046959,1.069921
2011-09-26T13:29:15.351827,3960,-2.400211,0.014427,1.148892,0.029223,0.044161,1.057999
2011-09-26T13:29:15.361827,3970,-2.250000,0.083293,1.147851,0.026773,0.041363,1.046076
2011-09-26T13:29:15.371827,3980,-2.099790,0.152160,1.146810,0.024322,0.038566,1.034154
2011-09-26T13:29:15.381827,3990,-1.949579,0.221026,1.145769,0.021871,0.035768,1.022231
2011-09-26T13:29:15.391827,4000,-1.799369,0.289892,1.144728,0.019421,0.032970,1.010308
2011-09-26T13:29:15.401827,4010,-1.649159,0.358759,1.143687,0.016970,0.030172,0.998386
2011-09-26T13:29:15.411827,4020,-1.498948,0.427625,1.142646,0.014519,0.027374,0.986463
2011-09-26T13:29:15.421827,4030,-1.348738,0.496491,1.141605,0.012069,0.024576,0.974541
2011-09-26T13:29:15.431827,4040,-1.198528,0.565358,1.140564,0.009618,0.021778,0.962618
2011-09-26T13:29:15.441827,4050,-1.112759,0.437246,1.145707,0.009658,0.021226,0.964924
2011-09-26T13:29:15.451827,4060,-1.028105,0.305728,1.150957,0.009740,0.020713,0.967475
2011-09-26T13:29:15.461827,4070,-0.943451,0.174211,1.156208,0.009823,0.020199,0.970026
2011-09-26T13:29:15.471827,4080,-0.858797,0.042694,1.161458,0.009906,0.019686,0.972577
2011-09-26T13:29:15.481827,4090,-0.774142,-0.088823,1.166708,0.009989,0.019172,0.975128
2011-09-26T13:29:15.491827,4100,-0.689488,-0.220340,1.171959,0.010071,0.018659,0.977679
2011-09-26T13:29:15.501827,4110,-0.604834,-0.351857,1.177209,0.010154,0.018146,0.980231
2011-09-26T13:29:15.511827,4120,-0.520179,-0.483374,1.182459,0.010237,0.017632,0.982782
2011-09-26T13:29:15.521827,4130,-0.435525,-0.614891,1.187710,0.010320,0.017119,0.985333
2011-09-26T13:29:15.531827,4140,-0.350871,-0.746408,1.192960,0.010403,0.016605,0.987884
2011-09-26T13:29:15.541827,4150,-0.392294,-0.850435,1.183404,0.011391,0.018117,0.992475
2011-09-26T13:29:15.551827,4160,-0.436511,-0.953852,1.173519,0.012400,0.019674,0.997111
2011-09-26T13:29:15.561827,4170,-0.480729,-1.057268,1.163635,0.013408,0.021230,1.001748
2011-09-26T13:29:15.571827,4180,-0.524946,-1.160685,1.153751,0.014417,0.022787,1.006384
2011-09-26T13:29:15.581827,4190,-0.569163,-1.264102,1.143866,0.015425,0.024344,1.011020
2011-09-26T13:29:15.591827,4200,-0.613380,-1.367519,1.133982,0.016434,0.025900,1.015656
2011-09-26T13:29:15.601827,4210,-0.657598,-1.470936,1.124098,0.017443,0.027457,1.020293
2011-09-26T13:29:15.611827,4220,-0.701815,-1.574353,1.114213,0.018451,0.029014,1.024929
2011-09-26T13:29:15.621827,4230,-0.746032,-1.677770,1.104329,0.019460,0.030570,1.029565
2011-09-26T13:29:15.631827,4240,-0.790249,-1.781187,1.094445,0.020469,0.032127,1.034201
2011-09-26T13:29:15.641827,4250,-0.819845,-1.709921,1.078836,0.022269,0.031431,1.038093
2011-09-26T13:29:15.651827,4260,-0.849181,-1.635542,1.063125,0.024084,0.030695,1.041971
2011-09-26T13:29:15.661827,4270,-0.878517,-1.561163,1.047415,0.025899,0.029958,1.045849
2011-09-26T13:29:15.671827,4280,-0.907852,-1.486785,1.031704,0.027714,0.029222,1.049727
2011-09-26T13:29:15.681827,4290,-0.937188,-1.412406,1.015994,0.029529,0.028486,1.053605
2011-09-26T13:29:15.691827,4300,-0.966523,-1.338027,1.000283,0.031344,0.027749,1.057483
2011-09-26T13:29:15.701827,4310,-0.995859,-1.263649,0.984573,0.033159,0.027013,1.061361
2011-09-26T13:29:15.711827,4320,-1.025194,-1.189270,0.968862,0.034974,0.026277,1.065239
2011-09-26T13:29:15.721827,4330,-1.054530,-1.114892,0.953152,0.036788,0.025540,1.069117
2011-09-26T13:29:15.731827,4340,-1.083866,-1.040513,0.937441,0.038603,0.024804,1.072995
2011-09-26T13:29:15.741827,4350,-1.113201,-0.966134,0.921731,0.040418,0.024068,1.076873
2011-09-26T13:29:15.751827,4360,-1.148018,-0.755143,0.918967,0.039438,0.025187,1.071899
2011-09-26T13:29:15.761827,4370,-1.183033,-0.539186,0.916674,0.038356,0.026373,1.066603
2011-09-26T13:29:15.771827,4380,-1.218049,-0.323228,0.914382,0.037274,0.027559,1.061307
2011-09-26T13:29:15.781827,4390,-1.253064,-0.107270,0.912089,0.036192,0.028746,1.056011
2011-09-26T13:29:15.791827,4400,-1.288080,0.108688,0.909796,0.035110,0.029932,1.050715
2011-09-26T13:29:15.801827,4410,-1.323096,0.324646,0.907503,0.034028,0.031118,1.045419
2011-09-26T13:29:15.811827,4420,-1.358111,0.540604,0.905211,0.032946,0.032305,1.040123
2011-09-26T13:29:15.821827,4430,-1.393127,0.756562,0.902918,0.031864,0.033491,1.034827
2011-09-26T13:29:15.831827,4440,-1.428143,0.972520,0.900625,0.030782,0.034677,1.029531
2011-09-26T13:29:15.841827,4450,-1.463158,1.188478,0.898332,0.029700,0.035864,1.024235
2011-09-26T13:29:15.851827,4460,-1.443714,1.160468,0.900890,0.028348,0.035053,1.019064
2011-09-26T13:29:15.861827,4470,-1.423130,1.127357,0.903548,0.026991,0.034201,1.013896
2011-09-26T13:29:15.871827,4480,-1.402547,1.094246,0.906207,0.025634,0.033349,1.008727
2011-09-26T13:29:15.881827,4490,-1.381963,1.061135,0.908866,0.024276,0.032496,1.003559
2011-09-26T13:29:15.891827,4500,-1.361380,1.028024,0.911525,0.022919,0.031644,0.998391
2011-09-26T13:29:15.901827,4510,-1.340797,0.994913,0.914183,0.021562,0.030792,0.993222
2011-09-26T13:29:15.911827,4520,-1.320213,0.961802,0.916842,0.020205,0.029939,0.988054
2011-09-26T13:29:15.921827,4530,-1.299630,0.928692,0.919501,0.018848,0.029087,0.982886
2011-09-26T13:29:15.931827,4540,-1.279046,0.895581,0.922159,0.017490,0.028235,0.977717
2011-09-26T13:29:15.941827,4550,-1.258463,0.862470,0.924818,0.016133,0.027383,0.972549
2011-09-26T13:29:15.951827,4560,-1.237880,0.829359,0.927477,0.014776,0.026530,0.967381
2011-09-26T13:29:15.961827,4570,-1.225876,0.763826,0.956315,0.015151,0.026452,0.968316
2011-09-26T13:29:15.971827,4580,-1.214064,0.697568,0.985738,0.015564,0.026390,0.969387
2011-09-26T13:29:15.981827,4590,-1.202251,0.631310,1.015162,0.015978,0.026329,0.970458
2011-09-26T13:29:15.991827,4600,-1.190439,0.565052,1.044585,0.016391,0.026267,0.971530
2011-09-26T13:29:16.001827,4610,-1.178627,0.498794,1.074009,0.016804,0.026206,0.972601
2011-09-26T13:29:16.011827,4620,-1.166815,0.432536,1.103432,0.017218,0.026145,0.973673
2011-09-26T13:29:16.021827,4630,-1.155003,0.366278,1.132855,0.017631,0.026083,0.974744
2011-09-26T13:29:16.031827,4640,-1.143191,0.300020,1.162279,0.018045,0.026022,0.975815
2011-09-26T13:29:16.041827,4650,-1.131379,0.233762,1.191702,0.018458,0.025960,0.976887
2011-09-26T13:29:16.051827,4660,-1.093037,0.255597,1.223758,0.018974,0.025632,0.979135
2011-09-26T13:29:16.061827,4670,-1.053996,0.279755,1.255882,0.019492,0.025296,0.981413
2011-09-26T13:29:16.071827,4680,-1.014955,0.303912,1.288007,0.020011,0.024960,0.983692
2011-09-26T13:29:16.081827,4690,-0.975914,0.328070,1.320132,0.020529,0.024624,0.985970
2011-09-26T13:29:16.091827,4700,-0.936873,0.352227,1.352257,0.021048,0.024289,0.988249
2011-09-26T13:29:16.101827,4710,-0.897831,0.376385,1.384381,0.021566,0.023953,0.990528
2011-09-26T13:29:16.111827,4720,-0.858790,0.400542,1.416506,0.022085,0.023617,0.992806
2011-09-26T13:29:16.121827,4730,-0.819749,0.424700,1.448631,0.022603,0.023282,0.995085
2011-09-26T13:29:16.131827,4740,-0.780708,0.448857,1.480756,0.023122,0.022946,0.997364
2011-09-26T13:29:16.141827,4750,-0.741667,0.473015,1.512880,0.023640,0.022610,0.999642
2011-09-26T13:29:16.151827,4760,-0.702626,0.497172,1.545005,0.024159,0.022274,1.001921
2011-09-26T13:29:16.161827,4770,-0.681690,0.514259,1.555285,0.024233,0.022697,1.000536
2011-09-26T13:29:16.171827,4780,-0.661072,0.531221,1.565180,0.024299,0.023134,0.999086
2011-09-26T13:29:16.181827,4790,-0.640454,0.548183,1.575076,0.024365,0.023570,0.997637
2011-09-26T13:29:16.191827,4800,-0.619836,0.565145,1.584972,0.024431,0.024007,0.996188
2011-09-26T13:29:16.201827,4810,-0.599218,0.582107,1.594867,0.024498,0.024443,0.994738
2011-09-26T13:29:16.211827,4820,-0.578600,0.599069,1.604763,0.024564,0.024880,0.993289
2011-09-26T13:29:16.221827,4830,-0.557982,0.616032,1.614658,0.024630,0.025316,0.991839
2011-09-26T13:29:16.231827,4840,-0.537364,0.632994,1.624554,0.024696,0.025752,0.990390
2011-09-26T13:29:16.241827,4850,-0.516747,0.649956,1.634450,0.024762,0.026189,0.988940
2011-09-26T13:29:16.251827,4860,-0.496129,0.666918,1.644345,0.024829,0.026625,0.987491
2011-09-26T13:29:16.261827,4870,-0.475511,0.683880,1.654241,0.024895,0.027062,0.986042
2011-09-26T13:29:16.271827,4880,-0.432739,0.707388,1.656395,0.024164,0.028184,0.985124
2011-09-26T13:29:16.281827,4890,-0.389177,0.731130,1.658272,0.023405,0.029330,0.984225
2011-09-26T13:29:16.291827,4900,-0.345614,0.754872,1.660150,0.022645,0.030476,0.983326
2011-09-26T13:29:16.301827,4910,-0.302052,0.778614,1.662028,0.021886,0.031622,0.982427
2011-09-26T13:29:16.311827,4920,-0.258489,0.802356,1.663905,0.021126,0.032769,0.981528
2011-09-26T13:29:16.321827,4930,-0.214926,0.826098,1.665783,0.020367,0.033915,0.980630
2011-09-26T13:29:16.331827,4940,-0.171364,0.849840,1.667660,0.019607,0.035061,0.979731
2011-09-26T13:29:16.341827,4950,-0.127801,0.873582,1.669538,0.018848,0.036208,0.978832
2011-09-26T13:29:16.351827,4960,-0.084239,0.897324,1.671416,0.018089,0.037354,0.977933
2011-09-26T13:29:16.361827,4970,-0.040676,0.921066,1.673293,0.017329,0.038500,0.977034
2011-09-26T13:29:16.371827,4980,-0.084517,0.836868,1.657448,0.017119,0.039631,0.975223
2011-09-26T13:29:16.381827,4990,-0.130322,0.750245,1.641204,0.016922,0.040762,0.973392
2011-09-26T13:29:16.391827,5000,-0.176126,0.663622,1.624960,0.016725,0.041893,0.971561
2011-09-26T13:29:16.401827,5010,-0.221930,0.576999,1.608716,0.016528,0.043024,0.969730
2011-09-26T13:29:16.411827,5020,-0.267735,0.490377,1.592473,0.016330,0.044154,0.967899
2011-09-26T13:29:16.421827,5030,-0.313539,0.403754,1.576229,0.016133,0.045285,0.966068
2011-09-26T13:29:16.431827,5040,-0.359344,0.317131,1.559985,0.015936,0.046416,0.964236
2011-09-26T13:29:16.441827,5050,-0.405148,0.230508,1.543741,0.015738,0.047547,0.962405
2011-09-26T13:29:16.451827,5060,-0.450953,0.143885,1.527497,0.015541,0.048678,0.960574
2011-09-26T13:29:16.461827,5070,-0.496757,0.057262,1.511254,0.015344,0.049808,0.958743
2011-09-26T13:29:16.471827,5080,-0.544046,-0.031166,1.486571,0.015637,0.048898,0.961355
2011-09-26T13:29:16.481827,5090,-0.591371,-0.119637,1.461686,0.015943,0.047939,0.964073
2011-09-26T13:29:16.491827,5100,-0.638696,-0.208108,1.436801,0.016249,0.046980,0.966791
2011-09-26T13:29:16.501827,5110,-0.686021,-0.296579,1.411916,0.016554,0.046020,0.969509
2011-09-26T13:29:16.511827,5120,-0.733346,-0.385051,1.387031,0.016860,0.045061,0.972227
2011-09-26T13:29:16.521827,5130,-0.780671,-0.473522,1.362146,0.017165,0.044102,0.974945
2011-09-26T13:29:16.531827,5140,-0.827996,-0.561993,1.337261,0.017471,0.043143,0.977663
2011-09-26T13:29:16.541827,5150,-0.875321,-0.650464,1.312376,0.017776,0.042184,0.980381
2011-09-26T13:29:16.551827,5160,-0.922646,-0.738935,1.287491,0.018082,0.041224,0.983099
2011-09-26T13:29:16.561827,5170,-0.969971,-0.827406,1.262606,0.018387,0.040265,0.985817
2011-09-26T13:29:16.571827,5180,-1.017296,-0.915878,1.237722,0.018693,0.039306,0.988535
2011-09-26T13:29:16.581827,5190,-0.970040,-0.786141,1.206058,0.020167,0.037854,0.994627
2011-09-26T13:29:16.591827,5200,-0.920352,-0.650793,1.174219,0.021672,0.036389,1.000806
2011-09-26T13:29:16.601827,5210,-0.870665,-0.515444,1.142381,0.023176,0.034924,1.006984
2011-09-26T13:29:16.611827,5220,-0.820977,-0.380095,1.110543,0.024681,0.033460,1.013163
2011-09-26T13:29:16.621827,5230,-0.771289,-0.244747,1.078704,0.026185,0.031995,1.019341
2011-09-26T13:29:16.631827,5240,-0.721601,-0.109398,1.046866,0.027690,0.030530,1.025520
2011-09-26T13:29:16.641827,5250,-0.671913,0.025950,1.015028,0.029194,0.029065,1.031699
2011-09-26T13:29:16.651827,5260,-0.622225,0.161299,0.983190,0.030699,0.027600,1.037877
2011-09-26T13:29:16.661827,5270,-0.572537,0.296647,0.951351,0.032203,0.026136,1.044056
2011-09-26T13:29:16.671827,5280,-0.522850,0.431996,0.919513,0.033707,0.024671,1.050234
2011-09-26T13:29:16.681827,5290,-0.463144,0.607788,0.881531,0.032725,0.020725,1.042381
2011-09-26T13:29:16.691827,5300,-0.403190,0.784584,0.843396,0.031681,0.016717,1.034179
2011-09-26T13:29:16.701827,5310,-0.343236,0.961380,0.805261,0.030638,0.012709,1.025978
2011-09-26T13:29:16.711827,5320,-0.283283,1.138175,0.767126,0.029594,0.008702,1.017776
2011-09-26T13:29:16.721827,5330,-0.223329,1.314971,0.728992,0.028550,0.004694,1.009574
2011-09-26T13:29:16.731827,5340,-0.163375,1.491766,0.690857,0.027506,0.000686,1.001373
2011-09-26T13:29:16.741827,5350,-0.103421,1.668562,0.652722,0.026462,-0.003322,0.993171
2011-09-26T13:29:16.751827,5360,-0.043467,1.845357,0.614587,0.025418,-0.007329,0.984970
2011-09-26T13:29:16.761827,5370,0.016486,2.022153,0.576453,0.024374,-0.011337,0.976768
2011-09-26T13:29:16.771827,5380,0.076440,2.198949,0.538318,0.023331,-0.015345,0.968567
2011-09-26T13:29:16.781827,5390,0.086832,2.218919,0.515312,0.022832,-0.011053,0.962066
2011-09-26T13:29:16.791827,5400,0.095202,2.232494,0.492924,0.022355,-0.006423,0.955635
2011-09-26T13:29:16.801827,5410,0.103572,2.246069,0.470535,0.021879,-0.001792,0.949203
2011-09-26T13:29:16.811827,5420,0.111942,2.259645,0.448147,0.021402,0.002838,0.942772
2011-09-26T13:29:16.821827,5430,0.120312,2.273220,0.425758,0.020925,0.007468,0.936340
2011-09-26T13:29:16.831827,5440,0.128683,2.286795,0.403369,0.020449,0.012098,0.929909
2011-09-26T13:29:16.841827,5450,0.137053,2.300370,0.380981,0.019972,0.016728,0.923477
2011-09-26T13:29:16.851827,5460,0.145423,2.313945,0.358592,0.019496,0.021359,0.917046
2011-09-26T13:29:16.861827,5470,0.153793,2.327520,0.336203,0.019019,0.025989,0.910615
2011-09-26T13:29:16.871827,5480,0.162163,2.341095,0.313815,0.018542,0.030619,0.904183
2011-09-26T13:29:16.881827,5490,0.170533,2.354670,0.291426,0.018066,0.035249,0.897752
2011-09-26T13:29:16.891827,5500,0.219223,2.260340,0.264956,0.017910,0.032789,0.903053
2011-09-26T13:29:16.901827,5510,0.268936,2.163268,0.238382,0.017763,0.030148,0.908652
2011-09-26T13:29:16.911827,5520,0.318650,2.066197,0.211808,0.017616,0.027507,0.914252
2011-09-26T13:29:16.921827,5530,0.368364,1.969125,0.185234,0.017469,0.024866,0.919851
2011-09-26T13:29:16.931827,5540,0.418077,1.872053,0.158660,0.017321,0.022226,0.925450
2011-09-26T13:29:16.941827,5550,0.467791,1.774981,0.132086,0.017174,0.019585,0.931049
2011-09-26T13:29:16.951827,5560,0.517505,1.677909,0.105512,0.017027,0.016944,0.936649
2011-09-26T13:29:16.961827,5570,0.567218,1.580838,0.078938,0.016880,0.014304,0.942248
2011-09-26T13:29:16.971827,5580,0.616932,1.483766,0.052364,0.016733,0.011663,0.947847
2011-09-26T13:29:16.981827,5590,0.666646,1.386694,0.025790,0.016585,0.009022,0.953447
2011-09-26T13:29:16.991827,5600,0.713832,1.289888,0.000424,0.016789,0.004927,0.956489
2011-09-26T13:29:17.001827,5610,0.760958,1.193088,-0.024913,0.017002,0.000798,0.959470
2011-09-26T13:29:17.011827,5620,0.808084,1.096287,-0.050250,0.017214,-0.003331,0.962451
2011-09-26T13:29:17.021827,5630,0.855210,0.999487,-0.075587,0.017426,-0.007460,0.965432
2011-09-26T13:29:17.031827,5640,0.902336,0.902687,-0.100924,0.017639,-0.011589,0.968414
2011-09-26T13:29:17.041827,5650,0.949462,0.805887,-0.126261,0.017851,-0.015718,0.971395
2011-09-26T13:29:17.051827,5660,0.996588,0.709086,-0.151598,0.018063,-0.019847,0.974376
2011-09-26T13:29:17.061827,5670,1.043714,0.612286,-0.176935,0.018276,-0.023976,0.977357
2011-09-26T13:29:17.071827,5680,1.090840,0.515486,-0.202272,0.018488,-0.028105,0.980339
2011-09-26T13:29:17.081827,5690,1.137966,0.418686,-0.227609,0.018700,-0.032234,0.983320
2011-09-26T13:29:17.091827,5700,1.097295,0.300662,-0.215141,0.017418,-0.030781,0.984666
2011-09-26T13:29:17.101827,5710,1.054319,0.182082,-0.201681,0.016096,-0.029181,0.985969
2011-09-26T13:29:17.111827,5720,1.011344,0.063501,-0.188220,0.014775,-0.027581,0.987272
2011-09-26T13:29:17.121827,5730,0.968368,-0.055080,-0.174759,0.013453,-0.025981,0.988575
2011-09-26T13:29:17.131827,5740,0.925392,-0.173661,-0.161299,0.012131,-0.024381,0.989878
2011-09-26T13:29:17.141827,5750,0.882416,-0.292241,-0.147838,0.010810,-0.022781,0.991181
2011-09-26T13:29:17.151827,5760,0.839440,-0.410822,-0.134378,0.009488,-0.021180,0.992484
2011-09-26T13:29:17.161827,5770,0.796465,-0.529403,-0.120917,0.008166,-0.019580,0.993787
2011-09-26T13:29:17.171827,5780,0.753489,-0.647984,-0.107456,0.006844,-0.017980,0.995090
2011-09-26T13:29:17.181827,5790,0.710513,-0.766564,-0.093996,0.005523,-0.016380,0.996393
2011-09-26T13:29:17.191827,5800,0.667537,-0.885145,-0.080535,0.004201,-0.014780,0.997696
2011-09-26T13:29:17.201827,5810,0.718897,-1.044837,-0.067115,0.003407,-0.011101,1.001294
2011-09-26T13:29:17.211827,5820,0.773003,-1.205726,-0.053696,0.002628,-0.007361,1.004960
2011-09-26T13:29:17.221827,5830,0.827110,-1.366615,-0.040277,0.001849,-0.003621,1.008625
2011-09-26T13:29:17.231827,5840,0.881217,-1.527504,-0.026858,0.001071,0.000119,1.012291
2011-09-26T13:29:17.241827,5850,0.935324,-1.688394,-0.013439,0.000292,0.003859,1.015956
2011-09-26T13:29:17.251827,5860,0.989430,-1.849283,-0.000020,-0.000487,0.007599,1.019622
2011-09-26T13:29:17.261827,5870,1.043537,-2.010172,0.013399,-0.001266,0.011339,1.023287
2011-09-26T13:29:17.271827,5880,1.097644,-2.171061,0.026818,-0.002045,0.015079,1.026953
2011-09-26T13:29:17.281827,5890,1.151750,-2.331950,0.040238,-0.002823,0.018819,1.030618
2011-09-26T13:29:17.291827,5900,1.205857,-2.492840,0.053657,-0.003602,0.022559,1.034283
2011-09-26T13:29:17.301827,5910,0.978697,-2.418731,0.053571,-0.000612,0.021691,1.037994
2011-09-26T13:29:17.311827,5920,0.736300,-2.331892,0.052753,0.002582,0.020574,1.041707
2011-09-26T13:29:17.321827,5930,0.493902,-2.245052,0.051936,0.005776,0.019456,1.045420
2011-09-26T13:29:17.331827,5940,0.251505,-2.158213,0.051119,0.008970,0.018338,1.049133
2011-09-26T13:29:17.341827,5950,0.009107,-2.071374,0.050301,0.012165,0.017221,1.052846
2011-09-26T13:29:17.351827,5960,-0.233291,-1.984534,0.049484,0.015359,0.016103,1.056559
2011-09-26T13:29:17.361827,5970,-0.475688,-1.897695,0.048666,0.018553,0.014986,1.060272
2011-09-26T13:29:17.371827,5980,-0.718086,-1.810855,0.047849,0.021747,0.013868,1.063985
2011-09-26T13:29:17.381827,5990,-0.960484,-1.724016,0.047032,0.024941,0.012750,1.067698
2011-09-26T13:29:17.391827,6000,-1.202881,-1.637176,0.046214,0.028135,0.011633,1.071411
2011-09-26T13:29:17.401827,6010,-1.445279,-1.550337,0.045397,0.031330,0.010515,1.075125
2011-09-26T13:29:17.411827,6020,-1.531579,-1.374890,0.059728,0.030675,0.010886,1.072509
2011-09-26T13:29:17.421827,6030,-1.614516,-1.197534,0.074386,0.029937,0.011290,1.069757
2011-09-26T13:29:17.431827,6040,-1.697452,-1.020178,0.089044,0.029199,0.011693,1.067005
2011-09-26T13:29:17.441827,6050,-1.780389,-0.842822,0.103703,0.028462,0.012097,1.064253
2011-09-26T13:29:17.451827,6060,-1.863325,-0.665466,0.118361,0.027724,0.012500,1.061501
2011-09-26T13:29:17.461827,6070,-1.946262,-0.488111,0.133019,0.026986,0.012903,1.058749
2011-09-26T13:29:17.471827,6080,-2.029199,-0.310755,0.147677,0.026249,0.013307,1.055997
2011-09-26T13:29:17.481827,6090,-2.112135,-0.133399,0.162335,0.025511,0.013710,1.053244
2011-09-26T13:29:17.491827,6100,-2.195072,0.043957,0.176993,0.024773,0.014114,1.050492
2011-09-26T13:29:17.501827,6110,-2.278008,0.221313,0.191651,0.024035,0.014517,1.047740
2011-09-26T13:29:17.511827,6120,-2.164236,0.310686,0.201823,0.023522,0.016687,1.045671
2011-09-26T13:29:17.521827,6130,-2.044297,0.397301,0.211855,0.023017,0.018911,1.043622
2011-09-26T13:29:17.531827,6140,-1.924358,0.483916,0.221886,0.022511,0.021136,1.041574
2011-09-26T13:29:17.541827,6150,-1.804419,0.570531,0.231918,0.022005,0.023361,1.039526
2011-09-26T13:29:17.551827,6160,-1.684479,0.657146,0.241949,0.021499,0.025586,1.037477
2011-09-26T13:29:17.561827,6170,-1.564540,0.743761,0.251981,0.020993,0.027811,1.035429
2011-09-26T13:29:17.571827,6180,-1.444601,0.830376,0.262012,0.020487,0.030036,1.033381
2011-09-26T13:29:17.581827,6190,-1.324662,0.916991,0.272044,0.019981,0.032261,1.031332
2011-09-26T13:29:17.591827,6200,-1.204723,1.003606,0.282075,0.019475,0.034486,1.029284
2011-09-26T13:29:17.601827,6210,-1.084784,1.090221,0.292107,0.018969,0.036710,1.027235
2011-09-26T13:29:17.611827,6220,-0.924119,1.084692,0.309773,0.019572,0.030710,1.021052
2011-09-26T13:29:17.621827,6230,-0.762334,1.076628,0.327649,0.020205,0.024484,1.014755
2011-09-26T13:29:17.631827,6240,-0.600548,1.068564,0.345524,0.020838,0.018258,1.008458
2011-09-26T13:29:17.641827,6250,-0.438762,1.060500,0.363400,0.021472,0.012031,1.002160
2011-09-26T13:29:17.651827,6260,-0.276977,1.052435,0.381276,0.022105,0.005805,0.995863
2011-09-26T13:29:17.661827,6270,-0.115191,1.044371,0.399152,0.022738,-0.000421,0.989566
2011-09-26T13:29:17.671827,6280,0.046595,1.036307,0.417028,0.023371,-0.006648,0.983269
2011-09-26T13:29:17.681827,6290,0.208380,1.028243,0.434903,0.024004,-0.012874,0.976972
2011-09-26T13:29:17.691827,6300,0.370166,1.020178,0.452779,0.024638,-0.019100,0.970675
2011-09-26T13:29:17.701827,6310,0.531951,1.012114,0.470655,0.025271,-0.025327,0.964377
2011-09-26T13:29:17.711827,6320,0.693737,1.004050,0.488531,0.025904,-0.031553,0.958080
2011-09-26T13:29:17.721827,6330,0.871781,1.021081,0.490143,0.024855,-0.029685,0.960128
2011-09-26T13:29:17.731827,6340,1.050236,1.038746,0.491344,0.023763,-0.027611,0.962388
2011-09-26T13:29:17.741827,6350,1.228692,1.056412,0.492544,0.022671,-0.025538,0.964647
2011-09-26T13:29:17.751827,6360,1.407147,1.074077,0.493745,0.021579,-0.023464,0.966907
2011-09-26T13:29:17.761827,6370,1.585603,1.091743,0.494945,0.020487,-0.021391,0.969166
2011-09-26T13:29:17.771827,6380,1.764058,1.109409,0.496146,0.019395,-0.019317,0.971426
2011-09-26T13:29:17.781827,6390,1.942514,1.127074,0.497347,0.018303,-0.017244,0.973685
2011-09-26T13:29:17.791827,6400,2.120969,1.144740,0.498547,0.017211,-0.015170,0.975945
2011-09-26T13:29:17.801827,6410,2.299425,1.162406,0.499748,0.016119,-0.013097,0.978204
2011-09-26T13:29:17.811827,6420,2.477880,1.180071,0.500949,0.015027,-0.011023,0.980464
2011-09-26T13:29:17.821827,6430,2.491825,1.112391,0.520301,0.015848,-0.009690,0.980303
2011-09-26T13:29:17.831827,6440,2.500578,1.042018,0.540226,0.016729,-0.008380,0.980065
2011-09-26T13:29:17.841827,6450,2.509331,0.971645,0.560151,0.017610,-0.007071,0.979827
2011-09-26T13:29:17.851827,6460,2.518084,0.901271,0.580076,0.018490,-0.005761,0.979590
2011-09-26T13:29:17.861827,6470,2.526837,0.830898,0.600001,0.019371,-0.004451,0.979352
2011-09-26T13:29:17.871827,6480,2.535591,0.760525,0.619926,0.020252,-0.003141,0.979114
2011-09-26T13:29:17.881827,6490,2.544344,0.690152,0.639851,0.021133,-0.001832,0.978876
2011-09-26T13:29:17.891827,6500,2.553097,0.619778,0.659776,0.022014,-0.000522,0.978639
2011-09-26T13:29:17.901827,6510,2.561850,0.549405,0.679701,0.022895,0.000788,0.978401
2011-09-26T13:29:17.911827,6520,2.570603,0.479032,0.699626,0.023776,0.002097,0.978163
2011-09-26T13:29:17.921827,6530,2.466714,0.470909,0.687157,0.024160,0.003950,0.979994
2011-09-26T13:29:17.931827,6540,2.360268,0.464200,0.673952,0.024533,0.005814,0.981872
2011-09-26T13:29:17.941827,6550,2.253822,0.457490,0.660748,0.024906,0.007679,0.983750
2011-09-26T13:29:17.951827,6560,2.147376,0.450780,0.647543,0.025278,0.009544,0.985627
2011-09-26T13:29:17.961827,6570,2.040930,0.444070,0.634338,0.025651,0.011408,0.987505
2011-09-26T13:29:17.971827,6580,1.934484,0.437360,0.621134,0.026024,0.013273,0.989383
2011-09-26T13:29:17.981827,6590,1.828038,0.430651,0.607929,0.026397,0.015138,0.991261
2011-09-26T13:29:17.991827,6600,1.721592,0.423941,0.594725,0.026769,0.017002,0.993138
2011-09-26T13:29:18.001827,6610,1.615146,0.417231,0.581520,0.027142,0.018867,0.995016
2011-09-26T13:29:18.011827,6620,1.508700,0.410521,0.568316,0.027515,0.020731,0.996894
2011-09-26T13:29:18.021827,6630,1.402254,0.403811,0.555111,0.027888,0.022596,0.998772
2011-09-26T13:29:18.031827,6640,1.209952,0.423626,0.541125,0.027140,0.025498,0.995178
2011-09-26T13:29:18.041827,6650,1.014362,0.444457,0.527109,0.026349,0.028439,0.991376
2011-09-26T13:29:18.051827,6660,0.818771,0.465288,0.513093,0.025558,0.031380,0.987573
2011-09-26T13:29:18.061827,6670,0.623181,0.486119,0.499077,0.024767,0.034322,0.983770
2011-09-26T13:29:18.071827,6680,0.427591,0.506949,0.485061,0.023976,0.037263,0.979968
2011-09-26T13:29:18.081827,6690,0.232001,0.527780,0.471045,0.023185,0.040204,0.976165
2011-09-26T13:29:18.091827,6700,0.036410,0.548611,0.457029,0.022394,0.043146,0.972362
2011-09-26T13:29:18.101827,6710,-0.159180,0.569442,0.443013,0.021603,0.046087,0.968559
2011-09-26T13:29:18.111827,6720,-0.354770,0.590272,0.428997,0.020812,0.049028,0.964757
2011-09-26T13:29:18.121827,6730,-0.550361,0.611103,0.414981,0.020021,0.051970,0.960954
2011-09-26T13:29:18.131827,6740,-0.610086,0.452180,0.400283,0.020295,0.047963,0.965385
2011-09-26T13:29:18.141827,6750,-0.665351,0.287355,0.385563,0.020603,0.043727,0.970087
2011-09-26T13:29:18.151827,6760,-0.720616,0.122531,0.370843,0.020912,0.039492,0.974788
2011-09-26T13:29:18.161827,6770,-0.775881,-0.042294,0.356124,0.021221,0.035257,0.979490
2011-09-26T13:29:18.171827,6780,-0.831146,-0.207119,0.341404,0.021529,0.031022,0.984192
2011-09-26T13:29:18.181827,6790,-0.886411,-0.371943,0.326684,0.021838,0.026787,0.988893
2011-09-26T13:29:18.191827,6800,-0.941676,-0.536768,0.311964,0.022147,0.022551,0.993595
2011-09-26T13:29:18.201827,6810,-0.996941,-0.701593,0.297244,0.022455,0.018316,0.998296
2011-09-26T13:29:18.211827,6820,-1.052206,-0.866417,0.282524,0.022764,0.014081,1.002998
2011-09-26T13:29:18.221827,6830,-1.107471,-1.031242,0.267804,0.023073,0.009846,1.007700
2011-09-26T13:29:18.231827,6840,-1.087192,-0.966501,0.250154,0.023880,0.009226,1.011523
2011-09-26T13:29:18.241827,6850,-1.063147,-0.890316,0.232357,0.024712,0.008787,1.015303
2011-09-26T13:29:18.251827,6860,-1.039102,-0.814131,0.214561,0.025543,0.008348,1.019082
2011-09-26T13:29:18.261827,6870,-1.015057,-0.737946,0.196764,0.026375,0.007908,1.022862
2011-09-26T13:29:18.271827,6880,-0.991012,-0.661761,0.178967,0.027207,0.007469,1.026642
2011-09-26T13:29:18.281827,6890,-0.966967,-0.585576,0.161171,0.028039,0.007030,1.030421
2011-09-26T13:29:18.291827,6900,-0.942922,-0.509390,0.143374,0.028871,0.006591,1.034201
2011-09-26T13:29:18.301827,6910,-0.918877,-0.433205,0.125578,0.029703,0.006151,1.037981
2011-09-26T13:29:18.311827,6920,-0.894832,-0.357020,0.107781,0.030535,0.005712,1.041761
2011-09-26T13:29:18.321827,6930,-0.870787,-0.280835,0.089984,0.031366,0.005273,1.045540
2011-09-26T13:29:18.331827,6940,-0.846742,-0.204650,0.072188,0.032198,0.004834,1.049320
2011-09-26T13:29:18.341827,6950,-0.809170,-0.004028,0.058244,0.031160,0.002902,1.043503
2011-09-26T13:29:18.351827,6960,-0.771079,0.201360,0.044448,0.030050,0.000912,1.037318
2011-09-26T13:29:18.361827,6970,-0.732988,0.406748,0.030652,0.028939,-0.001077,1.031133
2011-09-26T13:29:18.371827,6980,-0.694897,0.612136,0.016856,0.027829,-0.003066,1.024948
2011-09-26T13:29:18.381827,6990,-0.656806,0.817524,0.003060,0.026719,-0.005055,1.018763
2011-09-26T13:29:18.391827,7000,-0.618716,1.022912,-0.010735,0.025609,-0.007044,1.012578
2011-09-26T13:29:18.401827,7010,-0.580625,1.228300,-0.024531,0.024499,-0.009033,1.006393
2011-09-26T13:29:18.411827,7020,-0.542534,1.433688,-0.038327,0.023389,-0.011022,1.000208
2011-09-26T13:29:18.421827,7030,-0.504443,1.639076,-0.052123,0.022279,-0.013012,0.994024
2011-09-26T13:29:18.431827,7040,-0.466352,1.844464,-0.065919,0.021168,-0.015001,0.987839
2011-09-26T13:29:18.441827,7050,-0.428046,1.794887,-0.072150,0.020133,-0.013903,0.982121
2011-09-26T13:29:18.451827,7060,-0.389733,1.737536,-0.078151,0.019100,-0.012712,0.976417
2011-09-26T13:29:18.461827,7070,-0.351421,1.680184,-0.084151,0.018067,-0.011520,0.970713
2011-09-26T13:29:18.471827,7080,-0.313108,1.622833,-0.090151,0.017035,-0.010328,0.965009
2011-09-26T13:29:18.481827,7090,-0.274795,1.565481,-0.096152,0.016002,-0.009137,0.959305
2011-09-26T13:29:18.491827,7100,-0.236482,1.508129,-0.102152,0.014969,-0.007945,0.953601
2011-09-26T13:29:18.501827,7110,-0.198169,1.450778,-0.108152,0.013936,-0.006754,0.947897
2011-09-26T13:29:18.511827,7120,-0.159856,1.393426,-0.114152,0.012903,-0.005562,0.942193
2011-09-26T13:29:18.521827,7130,-0.121544,1.336075,-0.120153,0.011870,-0.004370,0.936489
2011-09-26T13:29:18.531827,7140,-0.083231,1.278723,-0.126153,0.010837,-0.003179,0.930785
2011-09-26T13:29:18.541827,7150,-0.044918,1.221371,-0.132153,0.009804,-0.001987,0.925081
2011-09-26T13:29:18.551827,7160,-0.145269,1.079860,-0.151432,0.008773,-0.001490,0.928834
2011-09-26T13:29:18.561827,7170,-0.249347,0.936087,-0.171068,0.007743,-0.001012,0.932841
2011-09-26T13:29:18.571827,7180,-0.353425,0.792313,-0.190704,0.006712,-0.000533,0.936848
2011-09-26T13:29:18.581827,7190,-0.457503,0.648540,-0.210340,0.005681,-0.000055,0.940855
2011-09-26T13:29:18.591827,7200,-0.561581,0.504767,-0.229975,0.004650,0.000423,0.944862
2011-09-26T13:29:18.601827,7210,-0.665660,0.360994,-0.249611,0.003619,0.000901,0.948869
2011-09-26T13:29:18.611827,7220,-0.769738,0.217220,-0.269247,0.002588,0.001380,0.952876
2011-09-26T13:29:18.621827,7230,-0.873816,0.073447,-0.288883,0.001557,0.001858,0.956883
2011-09-26T13:29:18.631827,7240,-0.977894,-0.070326,-0.308518,0.000527,0.002336,0.960890
2011-09-26T13:29:18.641827,7250,-1.081972,-0.214099,-0.328154,-0.000504,0.002815,0.964897
2011-09-26T13:29:18.651827,7260,-1.108484,-0.231763,-0.340819,-0.000434,0.003484,0.970155
2011-09-26T13:29:18.661827,7270,-1.132516,-0.245394,-0.353260,-0.000329,0.004159,0.975452
2011-09-26T13:29:18.671827,7280,-1.156549,-0.259025,-0.365702,-0.000224,0.004835,0.980750
2011-09-26T13:29:18.681827,7290,-1.180581,-0.272656,-0.378143,-0.000119,0.005510,0.986047
2011-09-26T13:29:18.691827,7300,-1.204613,-0.286287,-0.390585,-0.000014,0.006186,0.991345
2011-09-26T13:29:18.701827,7310,-1.228646,-0.299918,-0.403027,0.000091,0.006861,0.996642
2011-09-26T13:29:18.711827,7320,-1.252678,-0.313550,-0.415468,0.000196,0.007537,1.001940
2011-09-26T13:29:18.721827,7330,-1.276710,-0.327181,-0.427910,0.000301,0.008212,1.007237
2011-09-26T13:29:18.731827,7340,-1.300743,-0.340812,-0.440351,0.000406,0.008888,1.012535
2011-09-26T13:29:18.741827,7350,-1.324775,-0.354443,-0.452793,0.000511,0.009563,1.017832
2011-09-26T13:29:18.751827,7360,-1.355932,-0.343764,-0.443820,0.000877,0.006487,1.018529
2011-09-26T13:29:18.761827,7370,-1.387390,-0.332059,-0.433943,0.001255,0.003252,1.019032
2011-09-26T13:29:18.771827,7380,-1.418847,-0.320353,-0.424066,0.001632,0.000017,1.019536
2011-09-26T13:29:18.781827,7390,-1.450305,-0.308648,-0.414188,0.002009,-0.003217,1.020039
2011-09-26T13:29:18.791827,7400,-1.481762,-0.296943,-0.404311,0.002386,-0.006452,1.020542
2011-09-26T13:29:18.801827,7410,-1.513220,-0.285237,-0.394434,0.002764,-0.009687,1.021045
2011-09-26T13:29:18.811827,7420,-1.544678,-0.273532,-0.384557,0.003141,-0.012921,1.021548
2011-09-26T13:29:18.821827,7430,-1.576135,-0.261827,-0.374680,0.003518,-0.016156,1.022051
2011-09-26T13:29:18.831827,7440,-1.607593,-0.250122,-0.364803,0.003895,-0.019391,1.022554
2011-09-26T13:29:18.841827,7450,-1.639050,-0.238416,-0.354925,0.004272,-0.022625,1.023057
2011-09-26T13:29:18.851827,7460,-1.670508,-0.226711,-0.345048,0.004650,-0.025860,1.023560
2011-09-26T13:29:18.861827,7470,-1.558310,-0.163251,-0.338479,0.004208,-0.025508,1.023159
2011-09-26T13:29:18.871827,7480,-1.441612,-0.098170,-0.332013,0.003741,-0.025044,1.022729
2011-09-26T13:29:18.881827,7490,-1.324915,-0.033089,-0.325547,0.003274,-0.024580,1.022299
2011-09-26T13:29:18.891827,7500,-1.208217,0.031993,-0.319081,0.002806,-0.024116,1.021869
2011-09-26T13:29:18.901827,7510,-1.091519,0.097074,-0.312615,0.002339,-0.023651,1.021439
2011-09-26T13:29:18.911827,7520,-0.974821,0.162155,-0.306149,0.001872,-0.023187,1.021009
2011-09-26T13:29:18.921827,7530,-0.858124,0.227236,-0.299683,0.001405,-0.022723,1.020579
2011-09-26T13:29:18.931827,7540,-0.741426,0.292317,-0.293217,0.000938,-0.022259,1.020149
2011-09-26T13:29:18.941827,7550,-0.624728,0.357398,-0.286751,0.000470,-0.021795,1.019720
2011-09-26T13:29:18.951827,7560,-0.508031,0.422480,-0.280285,0.000003,-0.021331,1.019290
2011-09-26T13:29:18.961827,7570,-0.439299,0.468741,-0.270508,-0.000358,-0.021622,1.015342
2011-09-26T13:29:18.971827,7580,-0.372266,0.514336,-0.260615,-0.000715,-0.021940,1.011270
2011-09-26T13:29:18.981827,7590,-0.305232,0.559931,-0.250721,-0.001072,-0.022258,1.007197
2011-09-26T13:29:18.991827,7600,-0.238198,0.605526,-0.240827,-0.001429,-0.022576,1.003125
2011-09-26T13:29:19.001827,7610,-0.171164,0.651121,-0.230934,-0.001786,-0.022894,0.999053
2011-09-26T13:29:19.011827,7620,-0.104130,0.696717,-0.221040,-0.002143,-0.023212,0.994981
2011-09-26T13:29:19.021827,7630,-0.037097,0.742312,-0.211146,-0.002500,-0.023529,0.990909
2011-09-26T13:29:19.031827,7640,0.029937,0.787907,-0.201253,-0.002857,-0.023847,0.986836
2011-09-26T13:29:19.041827,7650,0.096971,0.833502,-0.191359,-0.003214,-0.024165,0.982764
2011-09-26T13:29:19.051827,7660,0.164005,0.879097,-0.181465,-0.003571,-0.024483,0.978692
2011-09-26T13:29:19.061827,7670,0.162186,0.838636,-0.172951,-0.004006,-0.023763,0.978530
2011-09-26T13:29:19.071827,7680,0.157929,0.795127,-0.164486,-0.004444,-0.023005,0.978507
2011-09-26T13:29:19.081827,7690,0.153672,0.751619,-0.156020,-0.004882,-0.022247,0.978483
2011-09-26T13:29:19.091827,7700,0.149415,0.708110,-0.147555,-0.005320,-0.021490,0.978460
2011-09-26T13:29:19.101827,7710,0.145158,0.664601,-0.139089,-0.005758,-0.020732,0.978437
2011-09-26T13:29:19.111827,7720,0.140901,0.621093,-0.130624,-0.006196,-0.019975,0.978413
2011-09-26T13:29:19.121827,7730,0.136644,0.577584,-0.122159,-0.006633,-0.019217,0.978390
2011-09-26T13:29:19.131827,7740,0.132387,0.534075,-0.113693,-0.007071,-0.018460,0.978366
2011-09-26T13:29:19.141827,7750,0.128130,0.490566,-0.105228,-0.007509,-0.017702,0.978343
2011-09-26T13:29:19.151827,7760,0.123873,0.447058,-0.096763,-0.007947,-0.016945,0.978320
2011-09-26T13:29:19.161827,7770,0.119616,0.403549,-0.088297,-0.008385,-0.016187,0.978296
2011-09-26T13:29:19.171827,7780,0.112347,0.371886,-0.076768,-0.008188,-0.016528,0.979053
2011-09-26T13:29:19.181827,7790,0.104987,0.340577,-0.065148,-0.007971,-0.016902,0.979832
2011-09-26T13:29:19.191827,7800,0.097628,0.309268,-0.053527,-0.007755,-0.017276,0.980612
2011-09-26T13:29:19.201827,7810,0.090269,0.277960,-0.041907,-0.007538,-0.017650,0.981391
2011-09-26T13:29:19.211827,7820,0.082909,0.246651,-0.030286,-0.007322,-0.018024,0.982171
2011-09-26T13:29:19.221827,7830,0.075550,0.215343,-0.018666,-0.007106,-0.018398,0.982950
2011-09-26T13:29:19.231827,7840,0.068190,0.184034,-0.007045,-0.006889,-0.018772,0.983730
2011-09-26T13:29:19.241827,7850,0.060831,0.152726,0.004576,-0.006673,-0.019146,0.984509
2011-09-26T13:29:19.251827,7860,0.053472,0.121417,0.016196,-0.006457,-0.019520,0.985289
2011-09-26T13:29:19.261827,7870,0.046112,0.090109,0.027817,-0.006240,-0.019894,0.986068
2011-09-26T13:29:19.271827,7880,0.064083,0.086949,0.029919,-0.006501,-0.019622,0.987986
2011-09-26T13:29:19.281827,7890,0.083389,0.085274,0.031520,-0.006787,-0.019315,0.989963
2011-09-26T13:29:19.291827,7900,0.102695,0.083598,0.033121,-0.007073,-0.019009,0.991941
2011-09-26T13:29:19.301827,7910,0.122001,0.081922,0.034721,-0.007358,-0.018702,0.993918
2011-09-26T13:29:19.311827,7920,0.141307,0.080247,0.036322,-0.007644,-0.018396,0.995895
2011-09-26T13:29:19.321827,7930,0.160613,0.078571,0.037923,-0.007930,-0.018089,0.997873
2011-09-26T13:29:19.331827,7940,0.179919,0.076896,0.039524,-0.008216,-0.017783,0.999850
2011-09-26T13:29:19.341827,7950,0.199226,0.075220,0.041124,-0.008502,-0.017476,1.001828
2011-09-26T13:29:19.351827,7960,0.218532,0.073545,0.042725,-0.008788,-0.017170,1.003805
2011-09-26T13:29:19.361827,7970,0.237838,0.071869,0.044326,-0.009073,-0.016863,1.005782
2011-09-26T13:29:19.371827,7980,0.270768,0.073487,0.058300,-0.008554,-0.017114,1.005388
2011-09-26T13:29:19.381827,7990,0.304145,0.075214,0.072679,-0.008008,-0.017382,1.004916
2011-09-26T13:29:19.391827,8000,0.337521,0.076940,0.087058,-0.007463,-0.017650,1.004444
2011-09-26T13:29:19.401827,8010,0.370897,0.078666,0.101437,-0.006917,-0.017919,1.003972
2011-09-26T13:29:19.411827,8020,0.404274,0.080393,0.115816,-0.006371,-0.018187,1.003500
2011-09-26T13:29:19.421827,8030,0.437650,0.082119,0.130195,-0.005826,-0.018456,1.003028
2011-09-26T13:29:19.431827,8040,0.471026,0.083845,0.144574,-0.005280,-0.018724,1.002557
2011-09-26T13:29:19.441827,8050,0.504403,0.085572,0.158953,-0.004734,-0.018992,1.002085
2011-09-26T13:29:19.451827,8060,0.537779,0.087298,0.173332,-0.004188,-0.019261,1.001613
2011-09-26T13:29:19.461827,8070,0.571156,0.089024,0.187711,-0.003643,-0.019529,1.001141
2011-09-26T13:29:19.471827,8080,0.604532,0.090751,0.202090,-0.003097,-0.019798,1.000669
2011-09-26T13:29:19.481827,8090,0.599835,0.066050,0.215209,-0.003496,-0.018716,1.000068
2011-09-26T13:29:19.491827,8100,0.593758,0.040391,0.228283,-0.003930,-0.017584,0.999462
2011-09-26T13:29:19.501827,8110,0.587681,0.014732,0.241356,-0.004363,-0.016453,0.998856
2011-09-26T13:29:19.511827,8120,0.581603,-0.010927,0.254430,-0.004796,-0.015322,0.998250
2011-09-26T13:29:19.521827,8130,0.575526,-0.036585,0.267504,-0.005230,-0.014191,0.997644
2011-09-26T13:29:19.531827,8140,0.569449,-0.062244,0.280577,-0.005663,-0.013060,0.997038
2011-09-26T13:29:19.541827,8150,0.563372,-0.087903,0.293651,-0.006097,-0.011929,0.996432
2011-09-26T13:29:19.551827,8160,0.557294,-0.113562,0.306725,-0.006530,-0.010798,0.995826
2011-09-26T13:29:19.561827,8170,0.551217,-0.139221,0.319798,-0.006964,-0.009667,0.995220
2011-09-26T13:29:19.571827,8180,0.545140,-0.164880,0.332872,-0.007397,-0.008536,0.994614
2011-09-26T13:29:19.581827,8190,0.520516,-0.152290,0.328915,-0.007260,-0.006449,0.995729
2011-09-26T13:29:19.591827,8200,0.495205,-0.138285,0.324329,-0.007102,-0.004328,0.996908
2011-09-26T13:29:19.601827,8210,0.469895,-0.124279,0.319742,-0.006944,-0.002206,0.998086
2011-09-26T13:29:19.611827,8220,0.444584,-0.110274,0.315155,-0.006785,-0.000084,0.999264
2011-09-26T13:29:19.621827,8230,0.419273,-0.096269,0.310568,-0.006627,0.002038,1.000443
2011-09-26T13:29:19.631827,8240,0.393963,-0.082264,0.305981,-0.006469,0.004159,1.001621
2011-09-26T13:29:19.641827,8250,0.368652,-0.068258,0.301394,-0.006311,0.006281,1.002800
2011-09-26T13:29:19.651827,8260,0.343342,-0.054253,0.296808,-0.006152,0.008403,1.003978
2011-09-26T13:29:19.661827,8270,0.318031,-0.040248,0.292221,-0.005994,0.010525,1.005157
2011-09-26T13:29:19.671827,8280,0.292720,-0.026242,0.287634,-0.005836,0.012646,1.006335
2011-09-26T13:29:19.681827,8290,0.264842,0.006710,0.276657,-0.005838,0.012014,1.004821
2011-09-26T13:29:19.691827,8300,0.236872,0.040340,0.265451,-0.005845,0.011283,1.003210
2011-09-26T13:29:19.701827,8310,0.208901,0.073971,0.254245,-0.005853,0.010552,1.001599
2011-09-26T13:29:19.711827,8320,0.180931,0.107602,0.243039,-0.005861,0.009821,0.999988
2011-09-26T13:29:19.721827,8330,0.152961,0.141233,0.231833,-0.005868,0.009089,0.998377
2011-09-26T13:29:19.731827,8340,0.124990,0.174863,0.220627,-0.005876,0.008358,0.996766
2011-09-26T13:29:19.741827,8350,0.097020,0.208494,0.209421,-0.005884,0.007627,0.995155
2011-09-26T13:29:19.751827,8360,0.069049,0.242125,0.198215,-0.005891,0.006896,0.993544
2011-09-26T13:29:19.761827,8370,0.041079,0.275756,0.187009,-0.005899,0.006165,0.991933
2011-09-26T13:29:19.771827,8380,0.013109,0.309387,0.175803,-0.005906,0.005434,0.990322
2011-09-26T13:29:19.781827,8390,-0.014862,0.343017,0.164597,-0.005914,0.004703,0.988711
2011-09-26T13:29:19.791827,8400,-0.008649,0.335403,0.157917,-0.004871,0.003228,0.989645
2011-09-26T13:29:19.801827,8410,-0.000424,0.325362,0.151503,-0.003767,0.001709,0.990728
2011-09-26T13:29:19.811827,8420,0.007801,0.315320,0.145089,-0.002663,0.000191,0.991811
2011-09-26T13:29:19.821827,8430,0.016026,0.305278,0.138674,-0.001558,-0.001328,0.992895
2011-09-26T13:29:19.831827,8440,0.024252,0.295236,0.132260,-0.000454,-0.002846,0.993978
2011-09-26T13:29:19.841827,8450,0.032477,0.285195,0.125846,0.000651,-0.004365,0.995062
2011-09-26T13:29:19.851827,8460,0.040702,0.275153,0.119432,0.001755,-0.005884,0.996145
2011-09-26T13:29:19.861827,8470,0.048927,0.265111,0.113018,0.002860,-0.007402,0.997228
2011-09-26T13:29:19.871827,8480,0.057152,0.255069,0.106604,0.003964,-0.008921,0.998312
2011-09-26T13:29:19.881827,8490,0.065377,0.245028,0.100190,0.005069,-0.010439,0.999395
2011-09-26T13:29:19.891827,8500,0.024858,0.271408,0.087242,0.004320,-0.011092,0.997518
2011-09-26T13:29:19.901827,8510,-0.017502,0.299164,0.074047,0.003501,-0.011712,0.995530
2011-09-26T13:29:19.911827,8520,-0.059861,0.326920,0.060853,0.002682,-0.012332,0.993541
2011-09-26T13:29:19.921827,8530,-0.102220,0.354676,0.047658,0.001863,-0.012952,0.991552
2011-09-26T13:29:19.931827,8540,-0.144580,0.382431,0.034464,0.001044,-0.013572,0.989563
2011-09-26T13:29:19.941827,8550,-0.186939,0.410187,0.021269,0.000225,-0.014192,0.987575
2011-09-26T13:29:19.951827,8560,-0.229298,0.437943,0.008074,-0.000594,-0.014812,0.985586
2011-09-26T13:29:19.961827,8570,-0.271658,0.465699,-0.005120,-0.001413,-0.015432,0.983597
2011-09-26T13:29:19.971827,8580,-0.314017,0.493455,-0.018315,-0.002232,-0.016052,0.981609
2011-09-26T13:29:19.981827,8590,-0.356376,0.521210,-0.031509,-0.003051,-0.016672,0.979620
2011-09-26T13:29:19.991827,8600,-0.398736,0.548966,-0.044704,-0.003870,-0.017292,0.977631
2011-09-26T13:29:20.001827,8610,-0.308098,0.462722,-0.064801,-0.004116,-0.018695,0.980664
2011-09-26T13:29:20.011827,8620,-0.212111,0.371893,-0.085177,-0.004340,-0.020129,0.983900
2011-09-26T13:29:20.021827,8630,-0.116123,0.281063,-0.105552,-0.004564,-0.021563,0.987135
2011-09-26T13:29:20.031827,8640,-0.020136,0.190233,-0.125927,-0.004788,-0.022997,0.990371
2011-09-26T13:29:20.041827,8650,0.075852,0.099404,-0.146302,-0.005012,-0.024431,0.993606
2011-09-26T13:29:20.051827,8660,0.171839,0.008574,-0.166677,-0.005236,-0.025865,0.996842
2011-09-26T13:29:20.061827,8670,0.267827,-0.082256,-0.187052,-0.005459,-0.027300,1.000077
2011-09-26T13:29:20.071827,8680,0.363814,-0.173085,-0.207428,-0.005683,-0.028734,1.003313
2011-09-26T13:29:20.081827,8690,0.459802,-0.263915,-0.227803,-0.005907,-0.030168,1.006548
2011-09-26T13:29:20.091827,8700,0.555789,-0.354745,-0.248178,-0.006131,-0.031602,1.009784
2011-09-26T13:29:20.101827,8710,0.568245,-0.353728,-0.241526,-0.006236,-0.031608,1.009269
2011-09-26T13:29:20.111827,8720,0.577548,-0.349244,-0.233854,-0.006337,-0.031560,1.008612
2011-09-26T13:29:20.121827,8730,0.586851,-0.344759,-0.226182,-0.006438,-0.031511,1.007956
2011-09-26T13:29:20.131827,8740,0.596153,-0.340275,-0.218510,-0.006538,-0.031463,1.007299
2011-09-26T13:29:20.141827,8750,0.605456,-0.335791,-0.210838,-0.006639,-0.031415,1.006643
2011-09-26T13:29:20.151827,8760,0.614759,-0.331307,-0.203166,-0.006740,-0.031367,1.005986
2011-09-26T13:29:20.161827,8770,0.624061,-0.326822,-0.195493,-0.006840,-0.031319,1.005330
2011-09-26T13:29:20.171827,8780,0.633364,-0.322338,-0.187821,-0.006941,-0.031270,1.004673
2011-09-26T13:29:20.181827,8790,0.642667,-0.317854,-0.180149,-0.007042,-0.031222,1.004017
2011-09-26T13:29:20.191827,8800,0.651969,-0.313369,-0.172477,-0.007143,-0.031174,1.003361
2011-09-26T13:29:20.201827,8810,0.663798,-0.369687,-0.176746,-0.008295,-0.027628,1.003625
2011-09-26T13:29:20.211827,8820,0.675729,-0.428491,-0.181504,-0.009491,-0.023938,1.003927
2011-09-26T13:29:20.221827,8830,0.687661,-0.487296,-0.186261,-0.010686,-0.020249,1.004229
2011-09-26T13:29:20.231827,8840,0.699593,-0.546100,-0.191018,-0.011881,-0.016559,1.004531
2011-09-26T13:29:20.241827,8850,0.711524,-0.604904,-0.195776,-0.013077,-0.012870,1.004833
2011-09-26T13:29:20.251827,8860,0.723456,-0.663708,-0.200533,-0.014272,-0.009181,1.005135
2011-09-26T13:29:20.261827,8870,0.735388,-0.722512,-0.205290,-0.015468,-0.005491,1.005437
2011-09-26T13:29:20.271827,8880,0.747319,-0.781316,-0.210048,-0.016663,-0.001802,1.005739
2011-09-26T13:29:20.281827,8890,0.759251,-0.840120,-0.214805,-0.017859,0.001888,1.006041
2011-09-26T13:29:20.291827,8900,0.771183,-0.898924,-0.219562,-0.019054,0.005577,1.006343
2011-09-26T13:29:20.301827,8910,0.783114,-0.957728,-0.224320,-0.020250,0.009266,1.006645
2011-09-26T13:29:20.311827,8920,0.729895,-0.895629,-0.215915,-0.019403,0.009296,1.010836
2011-09-26T13:29:20.321827,8930,0.673421,-0.827489,-0.206852,-0.018453,0.009142,1.015221
2011-09-26T13:29:20.331827,8940,0.616947,-0.759349,-0.197789,-0.017504,0.008988,1.019606
2011-09-26T13:29:20.341827,8950,0.560474,-0.691209,-0.188726,-0.016555,0.008835,1.023990
2011-09-26T13:29:20.351827,8960,0.504000,-0.623069,-0.179664,-0.015605,0.008681,1.028375
2011-09-26T13:29:20.361827,8970,0.447526,-0.554929,-0.170601,-0.014656,0.008527,1.032760
2011-09-26T13:29:20.371827,8980,0.391052,-0.486790,-0.161538,-0.013707,0.008374,1.037145
2011-09-26T13:29:20.381827,8990,0.334578,-0.418650,-0.152476,-0.012757,0.008220,1.041530
2011-09-26T13:29:20.391827,9000,0.278104,-0.350510,-0.143413,-0.011808,0.008066,1.045915
2011-09-26T13:29:20.401827,9010,0.221630,-0.282370,-0.134350,-0.010859,0.007913,1.050300
2011-09-26T13:29:20.411827,9020,0.133012,-0.182318,-0.139111,-0.011221,0.006369,1.047102
2011-09-26T13:29:20.421827,9030,0.043181,-0.081060,-0.144393,-0.011634,0.004774,1.043618
2011-09-26T13:29:20.431827,9040,-0.046651,0.020197,-0.149676,-0.012046,0.003178,1.040134
2011-09-26T13:29:20.441827,9050,-0.136482,0.121454,-0.154959,-0.012458,0.001582,1.036649
2011-09-26T13:29:20.451827,9060,-0.226313,0.222711,-0.160241,-0.012871,-0.000013,1.033165
2011-09-26T13:29:20.461827,9070,-0.316145,0.323968,-0.165524,-0.013283,-0.001609,1.029681
2011-09-26T13:29:20.471827,9080,-0.405976,0.425226,-0.170806,-0.013695,-0.003204,1.026197
2011-09-26T13:29:20.481827,9090,-0.495808,0.526483,-0.176089,-0.014107,-0.004800,1.022713
2011-09-26T13:29:20.491827,9100,-0.585639,0.627740,-0.181372,-0.014520,-0.006396,1.019229
2011-09-26T13:29:20.501827,9110,-0.675470,0.728997,-0.186654,-0.014932,-0.007991,1.015744
2011-09-26T13:29:20.511827,9120,-0.717508,0.757014,-0.190334,-0.016042,-0.007736,1.011576
2011-09-26T13:29:20.521827,9130,-0.757648,0.782123,-0.193950,-0.017180,-0.007408,1.007380
2011-09-26T13:29:20.531827,9140,-0.797788,0.807232,-0.197565,-0.018318,-0.007079,1.003184
2011-09-26T13:29:20.541827,9150,-0.837929,0.832341,-0.201181,-0.019456,-0.006750,0.998989
2011-09-26T13:29:20.551827,9160,-0.878069,0.857449,-0.204797,-0.020594,-0.006422,0.994793
2011-09-26T13:29:20.561827,9170,-0.918209,0.882558,-0.208413,-0.021732,-0.006093,0.990597
2011-09-26T13:29:20.571827,9180,-0.958349,0.907667,-0.212029,-0.022870,-0.005765,0.986401
2011-09-26T13:29:20.581827,9190,-0.998489,0.932776,-0.215645,-0.024008,-0.005436,0.982206
2011-09-26T13:29:20.591827,9200,-1.038630,0.957885,-0.219261,-0.025146,-0.005107,0.978010
2011-09-26T13:29:20.601827,9210,-1.078770,0.982994,-0.222876,-0.026284,-0.004779,0.973814
2011-09-26T13:29:20.611827,9220,-1.118910,1.008103,-0.226492,-0.027422,-0.004450,0.969618
2011-09-26T13:29:20.621827,9230,-1.112514,0.935062,-0.223982,-0.027519,-0.006070,0.972043
2011-09-26T13:29:20.631827,9240,-1.104194,0.857964,-0.221218,-0.027572,-0.007771,0.974742
2011-09-26T13:29:20.641827,9250,-1.095874,0.780865,-0.218455,-0.027625,-0.009472,0.977440
2011-09-26T13:29:20.651827,9260,-1.087554,0.703767,-0.215691,-0.027679,-0.011173,0.980139
2011-09-26T13:29:20.661827,9270,-1.079235,0.626668,-0.212927,-0.027732,-0.012874,0.982838
2011-09-26T13:29:20.671827,9280,-1.070915,0.549570,-0.210164,-0.027786,-0.014575,0.985536
2011-09-26T13:29:20.681827,9290,-1.062595,0.472472,-0.207400,-0.027839,-0.016275,0.988235
2011-09-26T13:29:20.691827,9300,-1.054275,0.395373,-0.204636,-0.027893,-0.017976,0.990934
2011-09-26T13:29:20.701827,9310,-1.045955,0.318275,-0.201873,-0.027946,-0.019677,0.993632
2011-09-26T13:29:20.711827,9320,-1.037636,0.241177,-0.199109,-0.028000,-0.021378,0.996331
2011-09-26T13:29:20.721827,9330,-1.008723,0.208502,-0.207779,-0.028645,-0.020735,0.995740
2011-09-26T13:29:20.731827,9340,-0.978966,0.177648,-0.216917,-0.029315,-0.019995,0.995014
2011-09-26T13:29:20.741827,9350,-0.949210,0.146795,-0.226056,-0.029984,-0.019256,0.994288
2011-09-26T13:29:20.751827,9360,-0.919453,0.115941,-0.235194,-0.030654,-0.018516,0.993563
2011-09-26T13:29:20.761827,9370,-0.889696,0.085087,-0.244333,-0.031324,-0.017777,0.992837
2011-09-26T13:29:20.771827,9380,-0.859940,0.054234,-0.253472,-0.031993,-0.017038,0.992111
2011-09-26T13:29:20.781827,9390,-0.830183,0.023380,-0.262610,-0.032663,-0.016298,0.991386
2011-09-26T13:29:20.791827,9400,-0.800426,-0.007474,-0.271749,-0.033333,-0.015559,0.990660
2011-09-26T13:29:20.801827,9410,-0.770670,-0.038327,-0.280887,-0.034002,-0.014819,0.989934
2011-09-26T13:29:20.811827,9420,-0.740913,-0.069181,-0.290026,-0.034672,-0.014080,0.989208
2011-09-26T13:29:20.821827,9430,-0.648973,-0.111614,-0.271694,-0.034137,-0.015225,0.991892
2011-09-26T13:29:20.831827,9440,-0.553996,-0.154613,-0.252020,-0.033543,-0.016461,0.994743
2011-09-26T13:29:20.841827,9450,-0.459018,-0.197611,-0.232346,-0.032949,-0.017698,0.997593
2011-09-26T13:29:20.851827,9460,-0.364040,-0.240610,-0.212673,-0.032355,-0.018935,1.000444
2011-09-26T13:29:20.861827,9470,-0.269062,-0.283609,-0.192999,-0.031760,-0.020172,1.003294
2011-09-26T13:29:20.871827,9480,-0.174085,-0.326607,-0.173325,-0.031166,-0.021408,1.006145
2011-09-26T13:29:20.881827,9490,-0.079107,-0.369606,-0.153651,-0.030572,-0.022645,1.008995
2011-09-26T13:29:20.891827,9500,0.015871,-0.412605,-0.133977,-0.029978,-0.023882,1.011846
2011-09-26T13:29:20.901827,9510,0.110849,-0.455604,-0.114303,-0.029384,-0.025118,1.014696
2011-09-26T13:29:20.911827,9520,0.205826,-0.498602,-0.094629,-0.028790,-0.026355,1.017547
2011-09-26T13:29:20.921827,9530,0.300804,-0.541601,-0.074956,-0.028196,-0.027592,1.020397
2011-09-26T13:29:20.931827,9540,0.373603,-0.408876,-0.048280,-0.028034,-0.026730,1.021004
2011-09-26T13:29:20.941827,9550,0.445274,-0.267216,-0.021248,-0.027895,-0.025761,1.021497
2011-09-26T13:29:20.951827,9560,0.516945,-0.125556,0.005783,-0.027755,-0.024792,1.021990
2011-09-26T13:29:20.961827,9570,0.588616,0.016104,0.032815,-0.027616,-0.023823,1.022483
2011-09-26T13:29:20.971827,9580,0.660287,0.157764,0.059847,-0.027476,-0.022854,1.022976
2011-09-26T13:29:20.981827,9590,0.731959,0.299424,0.086878,-0.027336,-0.021885,1.023469
2011-09-26T13:29:20.991827,9600,0.803630,0.441084,0.113910,-0.027197,-0.020917,1.023962
2011-09-26T13:29:21.001827,9610,0.875301,0.582744,0.140942,-0.027057,-0.019948,1.024455
2011-09-26T13:29:21.011827,9620,0.946972,0.724404,0.167973,-0.026917,-0.018979,1.024948
2011-09-26T13:29:21.021827,9630,1.018643,0.866064,0.195005,-0.026778,-0.018010,1.025441
2011-09-26T13:29:21.031827,9640,0.999958,0.879595,0.217149,-0.028055,-0.015584,1.020141
2011-09-26T13:29:21.041827,9650,0.975983,0.885627,0.239007,-0.029416,-0.013072,1.014503
2011-09-26T13:29:21.051827,9660,0.952009,0.891659,0.260866,-0.030776,-0.010561,1.008865
2011-09-26T13:29:21.061827,9670,0.928034,0.897690,0.282724,-0.032136,-0.008049,1.003227
2011-09-26T13:29:21.071827,9680,0.904060,0.903722,0.304582,-0.033497,-0.005538,0.997589
2011-09-26T13:29:21.081827,9690,0.880085,0.909754,0.326440,-0.034857,-0.003027,0.991951
2011-09-26T13:29:21.091827,9700,0.856111,0.915785,0.348298,-0.036218,-0.000515,0.986312
2011-09-26T13:29:21.101827,9710,0.832136,0.921817,0.370157,-0.037578,0.001996,0.980674
2011-09-26T13:29:21.111827,9720,0.808162,0.927849,0.392015,-0.038938,0.004508,0.975036
2011-09-26T13:29:21.121827,9730,0.784187,0.933880,0.413873,-0.040299,0.007019,0.969398
2011-09-26T13:29:21.131827,9740,0.760213,0.939912,0.435731,-0.041659,0.009531,0.963760
2011-09-26T13:29:21.141827,9750,0.781126,0.796268,0.442479,-0.041342,0.010882,0.964171
2011-09-26T13:29:21.151827,9760,0.803729,0.646990,0.448658,-0.040962,0.012189,0.964809
2011-09-26T13:29:21.161827,9770,0.826331,0.497712,0.454836,-0.040582,0.013496,0.965448
2011-09-26T13:29:21.171827,9780,0.848934,0.348434,0.461015,-0.040202,0.014803,0.966086
2011-09-26T13:29:21.181827,9790,0.871537,0.199155,0.467194,-0.039822,0.016110,0.966725
2011-09-26T13:29:21.191827,9800,0.894139,0.049877,0.473373,-0.039441,0.017417,0.967363
2011-09-26T13:29:21.201827,9810,0.916742,-0.099401,0.479551,-0.039061,0.018724,0.968002
2011-09-26T13:29:21.211827,9820,0.939345,-0.248679,0.485730,-0.038681,0.020031,0.968640
2011-09-26T13:29:21.221827,9830,0.961947,-0.397958,0.491909,-0.038301,0.021338,0.969279
2011-09-26T13:29:21.231827,9840,0.984550,-0.547236,0.498087,-0.037921,0.022645,0.969918
2011-09-26T13:29:21.241827,9850,0.938718,-0.523938,0.502238,-0.037527,0.022288,0.975610
2011-09-26T13:29:21.251827,9860,0.888526,-0.489647,0.506260,-0.037133,0.021826,0.981624
2011-09-26T13:29:21.261827,9870,0.838335,-0.455356,0.510282,-0.036738,0.021364,0.987638
2011-09-26T13:29:21.271827,9880,0.788143,-0.421065,0.514304,-0.036343,0.020902,0.993652
2011-09-26T13:29:21.281827,9890,0.737952,-0.386774,0.518326,-0.035949,0.020439,0.999666
2011-09-26T13:29:21.291827,9900,0.687760,-0.352482,0.522348,-0.035554,0.019977,1.005680
2011-09-26T13:29:21.301827,9910,0.637569,-0.318191,0.526370,-0.035159,0.019515,1.011694
2011-09-26T13:29:21.311827,9920,0.587377,-0.283900,0.530391,-0.034765,0.019053,1.017708
2011-09-26T13:29:21.321827,9930,0.537186,-0.249609,0.534413,-0.034370,0.018591,1.023722
2011-09-26T13:29:21.331827,9940,0.486994,-0.215317,0.538435,-0.033976,0.018128,1.029736
2011-09-26T13:29:21.341827,9950,0.473267,-0.178375,0.546378,-0.034048,0.016700,1.026619
2011-09-26T13:29:21.351827,9960,0.461258,-0.141308,0.554505,-0.034142,0.015226,1.023072
2011-09-26T13:29:21.361827,9970,0.449249,-0.104241,0.562632,-0.034236,0.013752,1.019525
2011-09-26T13:29:21.371827,9980,0.437239,-0.067174,0.570760,-0.034331,0.012278,1.015978
2011-09-26T13:29:21.381827,9990,0.425230,-0.030107,0.578887,-0.034425,0.010804,1.012431
2011-09-26T13:29:21.391827,10000,0.413221,0.006960,0.587014,-0.034519,0.009330,1.008884
2011-09-26T13:29:21.401827,10010,0.401211,0.044027,0.595142,-0.034614,0.007856,1.005337
2011-09-26T13:29:21.411827,10020,0.389202,0.081094,0.603269,-0.034708,0.006382,1.001790
2011-09-26T13:29:21.421827,10030,0.377193,0.118161,0.611396,-0.034802,0.004908,0.998243
2011-09-26T13:29:21.431827,10040,0.365183,0.155228,0.619523,-0.034897,0.003434,0.994695
2011-09-26T13:29:21.441827,10050,0.353174,0.192295,0.627651,-0.034991,0.001960,0.991148
2011-09-26T13:29:21.451827,10060,0.375959,0.170132,0.646007,-0.034546,0.004699,0.992267
2011-09-26T13:29:21.461827,10070,0.400066,0.145719,0.664752,-0.034081,0.007598,0.993563
2011-09-26T13:29:21.471827,10080,0.424173,0.121307,0.683498,-0.033616,0.010498,0.994859
2011-09-26T13:29:21.481827,10090,0.448280,0.096894,0.702243,-0.033151,0.013397,0.996155
2011-09-26T13:29:21.491827,10100,0.472387,0.072481,0.720988,-0.032686,0.016297,0.997451
2011-09-26T13:29:21.501827,10110,0.496494,0.048068,0.739733,-0.032221,0.019196,0.998747
2011-09-26T13:29:21.511827,10120,0.520601,0.023655,0.758478,-0.031755,0.022096,1.000043
2011-09-26T13:29:21.521827,10130,0.544708,-0.000758,0.777223,-0.031290,0.024995,1.001339
2011-09-26T13:29:21.531827,10140,0.568815,-0.025171,0.795969,-0.030825,0.027895,1.002635
2011-09-26T13:29:21.541827,10150,0.592922,-0.049583,0.814714,-0.030360,0.030794,1.003932
2011-09-26T13:29:21.551827,10160,0.627221,-0.025562,0.814708,-0.030022,0.031044,1.003885
2011-09-26T13:29:21.561827,10170,0.661991,0.000698,0.813834,-0.029691,0.031172,1.003776
2011-09-26T13:29:21.571827,10180,0.696762,0.026958,0.812961,-0.029360,0.031300,1.003667
2011-09-26T13:29:21.581827,10190,0.731532,0.053219,0.812088,-0.029028,0.031428,1.003559
2011-09-26T13:29:21.591827,10200,0.766302,0.079479,0.811215,-0.028697,0.031555,1.003450
2011-09-26T13:29:21.601827,10210,0.801072,0.105739,0.810342,-0.028365,0.031683,1.003341
2011-09-26T13:29:21.611827,10220,0.835842,0.131999,0.809469,-0.028034,0.031811,1.003232
2011-09-26T13:29:21.621827,10230,0.870612,0.158260,0.808596,-0.027702,0.031939,1.003124
2011-09-26T13:29:21.631827,10240,0.905382,0.184520,0.807723,-0.027371,0.032066,1.003015
2011-09-26T13:29:21.641827,10250,0.940152,0.210780,0.806850,-0.027040,0.032194,1.002906
2011-09-26T13:29:21.651827,10260,0.857874,0.222486,0.805248,-0.027639,0.031306,1.001003
2011-09-26T13:29:21.661827,10270,0.770147,0.233515,0.803613,-0.028282,0.030370,0.999016
2011-09-26T13:29:21.671827,10280,0.682420,0.244543,0.801977,-0.028925,0.029435,0.997029
2011-09-26T13:29:21.681827,10290,0.594693,0.255572,0.800342,-0.029568,0.028499,0.995041
2011-09-26T13:29:21.691827,10300,0.506966,0.266600,0.798706,-0.030211,0.027564,0.993054
2011-09-26T13:29:21.701827,10310,0.419239,0.277628,0.797071,-0.030854,0.026628,0.991067
2011-09-26T13:29:21.711827,10320,0.331512,0.288657,0.795435,-0.031497,0.025692,0.989080
2011-09-26T13:29:21.721827,10330,0.243785,0.299685,0.793800,-0.032140,0.024757,0.987093
2011-09-26T13:29:21.731827,10340,0.156058,0.310714,0.792164,-0.032783,0.023821,0.985106
2011-09-26T13:29:21.741827,10350,0.068331,0.321742,0.790529,-0.033426,0.022886,0.983119
2011-09-26T13:29:21.751827,10360,-0.019396,0.332771,0.788893,-0.034069,0.021950,0.981132
2011-09-26T13:29:21.761827,10370,-0.054070,0.245847,0.786936,-0.033606,0.022193,0.981310
2011-09-26T13:29:21.771827,10380,-0.085687,0.153279,0.784960,-0.033079,0.022504,0.981612
2011-09-26T13:29:21.781827,10390,-0.117303,0.060710,0.782984,-0.032552,0.022814,0.981914
2011-09-26T13:29:21.791827,10400,-0.148920,-0.031859,0.781009,-0.032026,0.023125,0.982217
2011-09-26T13:29:21.801827,10410,-0.180537,-0.124427,0.779033,-0.031499,0.023436,0.982519
2011-09-26T13:29:21.811827,10420,-0.212153,-0.216996,0.777057,-0.030972,0.023747,0.982821
2011-09-26T13:29:21.821827,10430,-0.243770,-0.309564,0.775081,-0.030445,0.024057,0.983124
2011-09-26T13:29:21.831827,10440,-0.275387,-0.402133,0.773105,-0.029918,0.024368,0.983426
2011-09-26T13:29:21.841827,10450,-0.307003,-0.494702,0.771129,-0.029391,0.024679,0.983728
2011-09-26T13:29:21.851827,10460,-0.338620,-0.587270,0.769154,-0.028865,0.024989,0.984031
2011-09-26T13:29:21.861827,10470,-0.386680,-0.544573,0.763222,-0.029185,0.025484,0.987199
2011-09-26T13:29:21.871827,10480,-0.435480,-0.495784,0.757112,-0.029544,0.025987,0.990496
2011-09-26T13:29:21.881827,10490,-0.484280,-0.446996,0.751002,-0.029903,0.026491,0.993794
2011-09-26T13:29:21.891827,10500,-0.533081,-0.398207,0.744892,-0.030262,0.026994,0.997091
2011-09-26T13:29:21.901827,10510,-0.581881,-0.349418,0.738782,-0.030621,0.027497,1.000388
2011-09-26T13:29:21.911827,10520,-0.630681,-0.300630,0.732672,-0.030980,0.028000,1.003685
2011-09-26T13:29:21.921827,10530,-0.679482,-0.251841,0.726562,-0.031339,0.028503,1.006983
2011-09-26T13:29:21.931827,10540,-0.728282,-0.203053,0.720452,-0.031697,0.029007,1.010280
2011-09-26T13:29:21.941827,10550,-0.777082,-0.154264,0.714342,-0.032056,0.029510,1.013577
2011-09-26T13:29:21.951827,10560,-0.825883,-0.105475,0.708232,-0.032415,0.030013,1.016874
2011-09-26T13:29:21.961827,10570,-0.872160,-0.135260,0.687268,-0.032162,0.029579,1.015855
2011-09-26T13:29:21.971827,10580,-0.918329,-0.168400,0.665670,-0.031882,0.029105,1.014652
2011-09-26T13:29:21.981827,10590,-0.964498,-0.201541,0.644071,-0.031602,0.028631,1.013448
2011-09-26T13:29:21.991827,10600,-1.010668,-0.234681,0.622473,-0.031323,0.028157,1.012244
2011-09-26T13:29:22.001827,10610,-1.056837,-0.267822,0.600874,-0.031043,0.027683,1.011041
2011-09-26T13:29:22.011827,10620,-1.103006,-0.300963,0.579275,-0.030763,0.027209,1.009837
2011-09-26T13:29:22.021827,10630,-1.149175,-0.334103,0.557677,-0.030484,0.026734,1.008634
2011-09-26T13:29:22.031827,10640,-1.195345,-0.367244,0.536078,-0.030204,0.026260,1.007430
2011-09-26T13:29:22.041827,10650,-1.241514,-0.400384,0.514480,-0.029924,0.025786,1.006227
2011-09-26T13:29:22.051827,10660,-1.287683,-0.433525,0.492881,-0.029645,0.025312,1.005023
2011-09-26T13:29:22.061827,10670,-1.333852,-0.466666,0.471283,-0.029365,0.024838,1.003819
2011-09-26T13:29:22.071827,10680,-1.297857,-0.510605,0.464451,-0.028665,0.024714,1.005132
2011-09-26T13:29:22.081827,10690,-1.257955,-0.555058,0.458322,-0.027945,0.024606,1.006564
2011-09-26T13:29:22.091827,10700,-1.218053,-0.599511,0.452192,-0.027225,0.024498,1.007996
2011-09-26T13:29:22.101827,10710,-1.178151,-0.643964,0.446063,-0.026506,0.024390,1.009427
2011-09-26T13:29:22.111827,10720,-1.138249,-0.688417,0.439933,-0.025786,0.024282,1.010859
2011-09-26T13:29:22.121827,10730,-1.098347,-0.732871,0.433804,-0.025066,0.024174,1.012291
2011-09-26T13:29:22.131827,10740,-1.058445,-0.777324,0.427674,-0.024346,0.024067,1.013723
2011-09-26T13:29:22.141827,10750,-1.018544,-0.821777,0.421545,-0.023626,0.023959,1.015155
2011-09-26T13:29:22.151827,10760,-0.978642,-0.866230,0.415416,-0.022906,0.023851,1.016587
2011-09-26T13:29:22.161827,10770,-0.938740,-0.910683,0.409286,-0.022187,0.023743,1.018019
2011-09-26T13:29:22.171827,10780,-0.957530,-0.809059,0.387040,-0.021487,0.022712,1.017920
2011-09-26T13:29:22.181827,10790,-0.978804,-0.701252,0.364112,-0.020789,0.021642,1.017756
2011-09-26T13:29:22.191827,10800,-1.000079,-0.593446,0.341184,-0.020090,0.020572,1.017593
2011-09-26T13:29:22.201827,10810,-1.021353,-0.485640,0.318256,-0.019391,0.019502,1.017429
2011-09-26T13:29:22.211827,10820,-1.042627,-0.377834,0.295328,-0.018693,0.018432,1.017265
2011-09-26T13:29:22.221827,10830,-1.063901,-0.270028,0.272400,-0.017994,0.017362,1.017101
2011-09-26T13:29:22.231827,10840,-1.085175,-0.162222,0.249473,-0.017296,0.016292,1.016938
2011-09-26T13:29:22.241827,10850,-1.106449,-0.054416,0.226545,-0.016597,0.015222,1.016774
2011-09-26T13:29:22.251827,10860,-1.127724,0.053390,0.203617,-0.015899,0.014152,1.016610
2011-09-26T13:29:22.261827,10870,-1.148998,0.161196,0.180689,-0.015200,0.013083,1.016446
2011-09-26T13:29:22.271827,10880,-1.119072,0.188357,0.165110,-0.015190,0.011407,1.014151
2011-09-26T13:29:22.281827,10890,-1.085752,0.210171,0.150018,-0.015225,0.009691,1.011713
2011-09-26T13:29:22.291827,10900,-1.052432,0.231985,0.134926,-0.015261,0.007975,1.009276
2011-09-26T13:29:22.301827,10910,-1.019111,0.253799,0.119835,-0.015296,0.006260,1.006839
2011-09-26T13:29:22.311827,10920,-0.985791,0.275613,0.104743,-0.015332,0.004544,1.004402
2011-09-26T13:29:22.321827,10930,-0.952471,0.297426,0.089651,-0.015367,0.002828,1.001964
2011-09-26T13:29:22.331827,10940,-0.919150,0.319240,0.074560,-0.015403,0.001112,0.999527
2011-09-26T13:29:22.341827,10950,-0.885830,0.341054,0.059468,-0.015438,-0.000603,0.997090
2011-09-26T13:29:22.351827,10960,-0.852510,0.362868,0.044376,-0.015474,-0.002319,0.994653
2011-09-26T13:29:22.361827,10970,-0.819190,0.384682,0.029285,-0.015509,-0.004035,0.992216
2011-09-26T13:29:22.371827,10980,-0.785869,0.406496,0.014193,-0.015545,-0.005750,0.989778
2011-09-26T13:29:22.381827,10990,-0.758685,0.351141,-0.016005,-0.016429,-0.005994,0.989973
2011-09-26T13:29:22.391827,11000,-0.731813,0.291863,-0.046971,-0.017356,-0.006162,0.990301
2011-09-26T13:29:22.401827,11010,-0.704941,0.232585,-0.077937,-0.018284,-0.006330,0.990629
2011-09-26T13:29:22.411827,11020,-0.678069,0.173306,-0.108903,-0.019211,-0.006498,0.990958
2011-09-26T13:29:22.421827,11030,-0.651197,0.114028,-0.139869,-0.020138,-0.006667,0.991286
2011-09-26T13:29:22.431827,11040,-0.624325,0.054750,-0.170835,-0.021065,-0.006835,0.991614
2011-09-26T13:29:22.441827,11050,-0.597452,-0.004529,-0.201801,-0.021993,-0.007003,0.991943
2011-09-26T13:29:22.451827,11060,-0.570580,-0.063807,-0.232767,-0.022920,-0.007172,0.992271
2011-09-26T13:29:22.461827,11070,-0.543708,-0.123085,-0.263733,-0.023847,-0.007340,0.992599
2011-09-26T13:29:22.471827,11080,-0.516836,-0.182364,-0.294699,-0.024775,-0.007508,0.992928
2011-09-26T13:29:22.481827,11090,-0.454688,-0.141765,-0.302989,-0.024625,-0.009191,0.993779
2011-09-26T13:29:22.491827,11100,-0.390970,-0.096722,-0.310270,-0.024427,-0.010942,0.994653
2011-09-26T13:29:22.501827,11110,-0.327251,-0.051679,-0.317551,-0.024229,-0.012692,0.995527
2011-09-26T13:29:22.511827,11120,-0.263533,-0.006636,-0.324832,-0.024031,-0.014443,0.996402
2011-09-26T13:29:22.521827,11130,-0.199815,0.038407,-0.332113,-0.023834,-0.016193,0.997276
2011-09-26T13:29:22.531827,11140,-0.136097,0.083450,-0.339394,-0.023636,-0.017944,0.998150
2011-09-26T13:29:22.541827,11150,-0.072379,0.128493,-0.346675,-0.023438,-0.019694,0.999024
2011-09-26T13:29:22.551827,11160,-0.008661,0.173536,-0.353955,-0.023240,-0.021445,0.999899
2011-09-26T13:29:22.561827,11170,0.055057,0.218579,-0.361236,-0.023042,-0.023195,1.000773
2011-09-26T13:29:22.571827,11180,0.118776,0.263622,-0.368517,-0.022844,-0.024946,1.001647
2011-09-26T13:29:22.581827,11190,0.182494,0.308665,-0.375798,-0.022647,-0.026696,1.002521
2011-09-26T13:29:22.591827,11200,0.203690,0.296103,-0.359667,-0.023374,-0.026399,1.001518
2011-09-26T13:29:22.601827,11210,0.222526,0.280344,-0.342236,-0.024153,-0.025988,1.000410
2011-09-26T13:29:22.611827,11220,0.241363,0.264584,-0.324805,-0.024931,-0.025577,0.999302
2011-09-26T13:29:22.621827,11230,0.260199,0.248825,-0.307374,-0.025710,-0.025166,0.998194
2011-09-26T13:29:22.631827,11240,0.279035,0.233066,-0.289943,-0.026489,-0.024755,0.997086
2011-09-26T13:29:22.641827,11250,0.297871,0.217307,-0.272512,-0.027268,-0.024344,0.995978
2011-09-26T13:29:22.651827,11260,0.316707,0.201547,-0.255081,-0.028046,-0.023933,0.994870
2011-09-26T13:29:22.661827,11270,0.335543,0.185788,-0.237650,-0.028825,-0.023522,0.993762
2011-09-26T13:29:22.671827,11280,0.354380,0.170029,-0.220219,-0.029604,-0.023111,0.992654
2011-09-26T13:29:22.681827,11290,0.373216,0.154270,-0.202788,-0.030382,-0.022700,0.991546
2011-09-26T13:29:22.691827,11300,0.391696,0.128858,-0.189435,-0.030500,-0.022320,0.992073
2011-09-26T13:29:22.701827,11310,0.410161,0.103007,-0.176267,-0.030588,-0.021942,0.992676
2011-09-26T13:29:22.711827,11320,0.428625,0.077155,-0.163099,-0.030675,-0.021564,0.993278
2011-09-26T13:29:22.721827,11330,0.447090,0.051304,-0.149931,-0.030763,-0.021186,0.993880
2011-09-26T13:29:22.731827,11340,0.465554,0.025452,-0.136764,-0.030850,-0.020808,0.994482
2011-09-26T13:29:22.741827,11350,0.484018,-0.000399,-0.123596,-0.030938,-0.020430,0.995084
2011-09-26T13:29:22.751827,11360,0.502483,-0.026250,-0.110428,-0.031026,-0.020052,0.995686
2011-09-26T13:29:22.761827,11370,0.520947,-0.052102,-0.097260,-0.031113,-0.019674,0.996288
2011-09-26T13:29:22.771827,11380,0.539412,-0.077953,-0.084092,-0.031201,-0.019296,0.996890
2011-09-26T13:29:22.781827,11390,0.557876,-0.103805,-0.070924,-0.031289,-0.018918,0.997492
2011-09-26T13:29:22.791827,11400,0.508189,-0.070180,-0.063434,-0.031363,-0.018608,0.998396
2011-09-26T13:29:22.801827,11410,0.453821,-0.032469,-0.056334,-0.031436,-0.018303,0.999321
2011-09-26T13:29:22.811827,11420,0.399452,0.005242,-0.049234,-0.031509,-0.017997,1.000246
2011-09-26T13:29:22.821827,11430,0.345084,0.042953,-0.042134,-0.031582,-0.017692,1.001170
2011-09-26T13:29:22.831827,11440,0.290715,0.080664,-0.035034,-0.031655,-0.017386,1.002095
2011-09-26T13:29:22.841827,11450,0.236347,0.118375,-0.027934,-0.031728,-0.017081,1.003019
2011-09-26T13:29:22.851827,11460,0.181978,0.156086,-0.020834,-0.031801,-0.016776,1.003944
2011-09-26T13:29:22.861827,11470,0.127610,0.193798,-0.013734,-0.031874,-0.016470,1.004869
2011-09-26T13:29:22.871827,11480,0.073241,0.231509,-0.006633,-0.031947,-0.016165,1.005793
2011-09-26T13:29:22.881827,11490,0.018873,0.269220,0.000467,-0.032020,-0.015859,1.006718
2011-09-26T13:29:22.891827,11500,-0.035496,0.306931,0.007567,-0.032093,-0.015554,1.007642
2011-09-26T13:29:22.901827,11510,-0.077072,0.378242,0.003902,-0.032431,-0.013960,1.005896
2011-09-26T13:29:22.911827,11520,-0.117935,0.451429,-0.000363,-0.032783,-0.012295,1.004000
2011-09-26T13:29:22.921827,11530,-0.158797,0.524616,-0.004628,-0.033135,-0.010630,1.002105
2011-09-26T13:29:22.931827,11540,-0.199660,0.597803,-0.008894,-0.033487,-0.008965,1.000209
2011-09-26T13:29:22.941827,11550,-0.240522,0.670990,-0.013159,-0.033839,-0.007300,0.998314
2011-09-26T13:29:22.951827,11560,-0.281385,0.744177,-0.017424,-0.034191,-0.005635,0.996418
2011-09-26T13:29:22.961827,11570,-0.322247,0.817364,-0.021690,-0.034544,-0.003969,0.994522
2011-09-26T13:29:22.971827,11580,-0.363110,0.890551,-0.025955,-0.034896,-0.002304,0.992627
2011-09-26T13:29:22.981827,11590,-0.403972,0.963739,-0.030220,-0.035248,-0.000639,0.990731
2011-09-26T13:29:22.991827,11600,-0.444835,1.036926,-0.034486,-0.035600,0.001026,0.988836
2011-09-26T13:29:23.001827,11610,-0.475224,1.015075,-0.035278,-0.036837,0.000964,0.987120
2011-09-26T13:29:23.011827,11620,-0.505017,0.987812,-0.035874,-0.038124,0.000803,0.985414
2011-09-26T13:29:23.021827,11630,-0.534809,0.960549,-0.036469,-0.039411,0.000642,0.983708
2011-09-26T13:29:23.031827,11640,-0.564602,0.933286,-0.037064,-0.040699,0.000482,0.982002
2011-09-26T13:29:23.041827,11650,-0.594395,0.906023,-0.037659,-0.041986,0.000321,0.980297
2011-09-26T13:29:23.051827,11660,-0.624188,0.878760,-0.038254,-0.043273,0.000160,0.978591
2011-09-26T13:29:23.061827,11670,-0.653981,0.851497,-0.038849,-0.044560,-0.000001,0.976885
2011-09-26T13:29:23.071827,11680,-0.683773,0.824234,-0.039444,-0.045848,-0.000161,0.975179
2011-09-26T13:29:23.081827,11690,-0.713566,0.796971,-0.040040,-0.047135,-0.000322,0.973473
2011-09-26T13:29:23.091827,11700,-0.743359,0.769708,-0.040635,-0.048422,-0.000483,0.971768
2011-09-26T13:29:23.101827,11710,-0.759865,0.669894,-0.029287,-0.047583,-0.000790,0.972869
2011-09-26T13:29:23.111827,11720,-0.775610,0.565923,-0.017255,-0.046623,-0.001105,0.974131
2011-09-26T13:29:23.121827,11730,-0.791355,0.461951,-0.005224,-0.045662,-0.001420,0.975393
2011-09-26T13:29:23.131827,11740,-0.807099,0.357980,0.006808,-0.044702,-0.001735,0.976656
2011-09-26T13:29:23.141827,11750,-0.822844,0.254008,0.018840,-0.043741,-0.002051,0.977918
2011-09-26T13:29:23.151827,11760,-0.838589,0.150037,0.030872,-0.042781,-0.002366,0.979180
2011-09-26T13:29:23.161827,11770,-0.854333,0.046065,0.042903,-0.041820,-0.002681,0.980442
2011-09-26T13:29:23.171827,11780,-0.870078,-0.057906,0.054935,-0.040860,-0.002996,0.981704
2011-09-26T13:29:23.181827,11790,-0.885823,-0.161877,0.066967,-0.039899,-0.003311,0.982967
2011-09-26T13:29:23.191827,11800,-0.901568,-0.265849,0.078999,-0.038939,-0.003626,0.984229
2011-09-26T13:29:23.201827,11810,-0.917312,-0.369820,0.091031,-0.037978,-0.003942,0.985491
2011-09-26T13:29:23.211827,11820,-0.898586,-0.424871,0.088053,-0.038182,-0.004772,0.987903
2011-09-26T13:29:23.221827,11830,-0.877904,-0.477146,0.084224,-0.038451,-0.005632,0.990381
2011-09-26T13:29:23.231827,11840,-0.857222,-0.529421,0.080395,-0.038721,-0.006492,0.992859
2011-09-26T13:29:23.241827,11850,-0.836540,-0.581696,0.076565,-0.038991,-0.007352,0.995337
2011-09-26T13:29:23.251827,11860,-0.815858,-0.633971,0.072736,-0.039261,-0.008212,0.997814
2011-09-26T13:29:23.261827,11870,-0.795176,-0.686246,0.068907,-0.039530,-0.009072,1.000292
2011-09-26T13:29:23.271827,11880,-0.774494,-0.738521,0.065078,-0.039800,-0.009932,1.002770
2011-09-26T13:29:23.281827,11890,-0.753812,-0.790796,0.061249,-0.040070,-0.010792,1.005247
2011-09-26T13:29:23.291827,11900,-0.733130,-0.843071,0.057420,-0.040340,-0.011652,1.007725
2011-09-26T13:29:23.301827,11910,-0.712447,-0.895346,0.053590,-0.040609,-0.012512,1.010203
2011-09-26T13:29:23.311827,11920,-0.674628,-0.911000,0.061686,-0.040232,-0.012603,1.012133
2011-09-26T13:29:23.321827,11930,-0.635449,-0.923750,0.070726,-0.039803,-0.012633,1.014019
2011-09-26T13:29:23.331827,11940,-0.596271,-0.936500,0.079767,-0.039374,-0.012663,1.015906
2011-09-26T13:29:23.341827,11950,-0.557092,-0.949249,0.088808,-0.038945,-0.012693,1.017792
2011-09-26T13:29:23.351827,11960,-0.517914,-0.961999,0.097849,-0.038515,-0.012723,1.019679
2011-09-26T13:29:23.361827,11970,-0.478735,-0.974749,0.106890,-0.038086,-0.012753,1.021566
2011-09-26T13:29:23.371827,11980,-0.439556,-0.987498,0.115931,-0.037657,-0.012784,1.023452
2011-09-26T13:29:23.381827,11990,-0.400378,-1.000248,0.124972,-0.037228,-0.012814,1.025339
2011-09-26T13:29:23.391827,12000,-0.361199,-1.012998,0.134013,-0.036799,-0.012844,1.027225
2011-09-26T13:29:23.401827,12010,-0.322021,-1.025747,0.143054,-0.036370,-0.012874,1.029112
2011-09-26T13:29:23.411827,12020,-0.287315,-0.932032,0.154091,-0.037074,-0.013408,1.029099
2011-09-26T13:29:23.421827,12030,-0.252857,-0.832434,0.165239,-0.037839,-0.013971,1.028982
2011-09-26T13:29:23.431827,12040,-0.218398,-0.732835,0.176387,-0.038605,-0.014534,1.028865
2011-09-26T13:29:23.441827,12050,-0.183940,-0.633236,0.187535,-0.039371,-0.015096,1.028747
2011-09-26T13:29:23.451827,12060,-0.149481,-0.533638,0.198683,-0.040137,-0.015659,1.028630
2011-09-26T13:29:23.461827,12070,-0.115023,-0.434039,0.209831,-0.040903,-0.016222,1.028512
2011-09-26T13:29:23.471827,12080,-0.080565,-0.334441,0.220979,-0.041669,-0.016784,1.028395
2011-09-26T13:29:23.481827,12090,-0.046106,-0.234842,0.232127,-0.042435,-0.017347,1.028277
2011-09-26T13:29:23.491827,12100,-0.011648,-0.135243,0.243275,-0.043200,-0.017909,1.028160
2011-09-26T13:29:23.501827,12110,0.022811,-0.035645,0.254423,-0.043966,-0.018472,1.028043
2011-09-26T13:29:23.511827,12120,0.057269,0.063954,0.265571,-0.044732,-0.019035,1.027925
2011-09-26T13:29:23.521827,12130,0.048264,0.060328,0.278397,-0.044947,-0.019031,1.027022
2011-09-26T13:29:23.531827,12140,0.036705,0.050637,0.291323,-0.045130,-0.018993,1.026073
2011-09-26T13:29:23.541827,12150,0.025146,0.040946,0.304248,-0.045313,-0.018956,1.025124
2011-09-26T13:29:23.551827,12160,0.013587,0.031255,0.317174,-0.045495,-0.018919,1.024174
2011-09-26T13:29:23.561827,12170,0.002028,0.021564,0.330099,-0.045678,-0.018882,1.023225
2011-09-26T13:29:23.571827,12180,-0.009531,0.011873,0.343024,-0.045861,-0.018845,1.022276
2011-09-26T13:29:23.581827,12190,-0.021089,0.002182,0.355950,-0.046044,-0.018807,1.021327
2011-09-26T13:29:23.591827,12200,-0.032648,-0.007508,0.368875,-0.046226,-0.018770,1.020377
2011-09-26T13:29:23.601827,12210,-0.044207,-0.017199,0.381801,-0.046409,-0.018733,1.019428
2011-09-26T13:29:23.611827,12220,-0.055766,-0.026890,0.394726,-0.046592,-0.018696,1.018479
2011-09-26T13:29:23.621827,12230,-0.057552,-0.032326,0.385575,-0.046256,-0.019009,1.016157
2011-09-26T13:29:23.631827,12240,-0.058756,-0.037508,0.375108,-0.045889,-0.019343,1.013752
2011-09-26T13:29:23.641827,12250,-0.059959,-0.042689,0.364640,-0.045523,-0.019677,1.011348
2011-09-26T13:29:23.651827,12260,-0.061163,-0.047871,0.354172,-0.045156,-0.020011,1.008944
2011-09-26T13:29:23.661827,12270,-0.062366,-0.053053,0.343704,-0.044789,-0.020345,1.006540
2011-09-26T13:29:23.671827,12280,-0.063570,-0.058235,0.333237,-0.044423,-0.020679,1.004135
2011-09-26T13:29:23.681827,12290,-0.064773,-0.063417,0.322769,-0.044056,-0.021013,1.001731
2011-09-26T13:29:23.691827,12300,-0.065977,-0.068599,0.312301,-0.043689,-0.021347,0.999327
2011-09-26T13:29:23.701827,12310,-0.067180,-0.073780,0.301833,-0.043322,-0.021682,0.996923
2011-09-26T13:29:23.711827,12320,-0.068383,-0.078962,0.291366,-0.042956,-0.022016,0.994519
2011-09-26T13:29:23.721827,12330,-0.066926,-0.092472,0.299983,-0.043948,-0.020716,0.993033
2011-09-26T13:29:23.731827,12340,-0.065321,-0.106442,0.309657,-0.045016,-0.019326,0.991597
2011-09-26T13:29:23.741827,12350,-0.063716,-0.120412,0.319330,-0.046084,-0.017936,0.990162
2011-09-26T13:29:23.751827,12360,-0.062111,-0.134382,0.329003,-0.047151,-0.016546,0.988727
2011-09-26T13:29:23.761827,12370,-0.060506,-0.148352,0.338676,-0.048219,-0.015156,0.987291
2011-09-26T13:29:23.771827,12380,-0.058901,-0.162322,0.348349,-0.049286,-0.013765,0.985856
2011-09-26T13:29:23.781827,12390,-0.057296,-0.176292,0.358022,-0.050354,-0.012375,0.984421
2011-09-26T13:29:23.791827,12400,-0.055691,-0.190262,0.367695,-0.051422,-0.010985,0.982986
2011-09-26T13:29:23.801827,12410,-0.054086,-0.204232,0.377368,-0.052489,-0.009595,0.981550
2011-09-26T13:29:23.811827,12420,-0.052481,-0.218202,0.387041,-0.053557,-0.008205,0.980115
2011-09-26T13:29:23.821827,12430,-0.050876,-0.232172,0.396714,-0.054625,-0.006815,0.978680
2011-09-26T13:29:23.831827,12440,-0.032315,-0.247045,0.398689,-0.053726,-0.006434,0.982423
2011-09-26T13:29:23.841827,12450,-0.012722,-0.261973,0.400195,-0.052708,-0.006114,0.986482
2011-09-26T13:29:23.851827,12460,0.006872,-0.276901,0.401702,-0.051690,-0.005793,0.990541
2011-09-26T13:29:23.861827,12470,0.026465,-0.291829,0.403208,-0.050672,-0.005473,0.994600
2011-09-26T13:29:23.871827,12480,0.046058,-0.306757,0.404714,-0.049654,-0.005153,0.998659
2011-09-26T13:29:23.881827,12490,0.065652,-0.321685,0.406221,-0.048636,-0.004833,1.002718
2011-09-26T13:29:23.891827,12500,0.085245,-0.336613,0.407727,-0.047618,-0.004513,1.006777
2011-09-26T13:29:23.901827,12510,0.104838,-0.351541,0.409233,-0.046599,-0.004193,1.010837
2011-09-26T13:29:23.911827,12520,0.124432,-0.366469,0.410740,-0.045581,-0.003873,1.014896
2011-09-26T13:29:23.921827,12530,0.144025,-0.381397,0.412246,-0.044563,-0.003553,1.018955
2011-09-26T13:29:23.931827,12540,0.142619,-0.350459,0.414262,-0.043996,-0.003116,1.018913
2011-09-26T13:29:23.941827,12550,0.140084,-0.317051,0.416306,-0.043454,-0.002673,1.018650
2011-09-26T13:29:23.951827,12560,0.137548,-0.283644,0.418349,-0.042911,-0.002230,1.018387
2011-09-26T13:29:23.961827,12570,0.135012,-0.250237,0.420393,-0.042369,-0.001787,1.018125
2011-09-26T13:29:23.971827,12580,0.132476,-0.216829,0.422436,-0.041826,-0.001344,1.017862
2011-09-26T13:29:23.981827,12590,0.129941,-0.183422,0.424480,-0.041283,-0.000901,1.017600
2011-09-26T13:29:23.991827,12600,0.127405,-0.150015,0.426523,-0.040741,-0.000458,1.017337
2011-09-26T13:29:24.001827,12610,0.124869,-0.116608,0.428567,-0.040198,-0.000015,1.017074
2011-09-26T13:29:24.011827,12620,0.122333,-0.083200,0.430611,-0.039656,0.000429,1.016812
2011-09-26T13:29:24.021827,12630,0.119797,-0.049793,0.432654,-0.039113,0.000872,1.016549
2011-09-26T13:29:24.031827,12640,0.117262,-0.016386,0.434698,-0.038570,0.001315,1.016287
2011-09-26T13:29:24.041827,12650,0.156640,0.011916,0.438814,-0.039013,0.001318,1.014893
2011-09-26T13:29:24.051827,12660,0.198173,0.039956,0.443037,-0.039507,0.001298,1.013441
2011-09-26T13:29:24.061827,12670,0.239706,0.067995,0.447260,-0.040000,0.001278,1.011989
2011-09-26T13:29:24.071827,12680,0.281239,0.096035,0.451483,-0.040494,0.001259,1.010537
2011-09-26T13:29:24.081827,12690,0.322771,0.124074,0.455706,-0.040987,0.001239,1.009086
2011-09-26T13:29:24.091827,12700,0.364304,0.152113,0.459929,-0.041481,0.001220,1.007634
2011-09-26T13:29:24.101827,12710,0.405837,0.180153,0.464152,-0.041975,0.001200,1.006182
2011-09-26T13:29:24.111827,12720,0.447369,0.208192,0.468375,-0.042468,0.001180,1.004730
2011-09-26T13:29:24.121827,12730,0.488902,0.236232,0.472598,-0.042962,0.001161,1.003279
2011-09-26T13:29:24.131827,12740,0.530435,0.264271,0.476821,-0.043455,0.001141,1.001827
2011-09-26T13:29:24.141827,12750,0.523333,0.300991,0.479695,-0.043610,0.003017,0.997780
2011-09-26T13:29:24.151827,12760,0.513672,0.338169,0.482498,-0.043746,0.004992,0.993596
2011-09-26T13:29:24.161827,12770,0.504012,0.375346,0.485300,-0.043883,0.006968,0.989412
2011-09-26T13:29:24.171827,12780,0.494351,0.412523,0.488103,-0.044020,0.008943,0.985228
2011-09-26T13:29:24.181827,12790,0.484690,0.449700,0.490906,-0.044157,0.010919,0.981044
2011-09-26T13:29:24.191827,12800,0.475029,0.486877,0.493709,-0.044293,0.012894,0.976861
2011-09-26T13:29:24.201827,12810,0.465368,0.524054,0.496512,-0.044430,0.014870,0.972677
2011-09-26T13:29:24.211827,12820,0.455707,0.561231,0.499315,-0.044567,0.016846,0.968493
2011-09-26T13:29:24.221827,12830,0.446046,0.598408,0.502117,-0.044703,0.018821,0.964309
2011-09-26T13:29:24.231827,12840,0.436385,0.635585,0.504920,-0.044840,0.020797,0.960126
2011-09-26T13:29:24.241827,12850,0.435275,0.534671,0.498079,-0.044872,0.019977,0.962354
2011-09-26T13:29:24.251827,12860,0.434746,0.424382,0.490583,-0.044897,0.018967,0.965019
2011-09-26T13:29:24.261827,12870,0.434217,0.314092,0.483088,-0.044922,0.017957,0.967683
2011-09-26T13:29:24.271827,12880,0.433687,0.203803,0.475592,-0.044947,0.016948,0.970347
2011-09-26T13:29:24.281827,12890,0.433158,0.093514,0.468096,-0.044972,0.015938,0.973012
2011-09-26T13:29:24.291827,12900,0.432629,-0.016775,0.460600,-0.044996,0.014928,0.975676
2011-09-26T13:29:24.301827,12910,0.432100,-0.127064,0.453105,-0.045021,0.013919,0.978340
2011-09-26T13:29:24.311827,12920,0.431570,-0.237353,0.445609,-0.045046,0.012909,0.981005
2011-09-26T13:29:24.321827,12930,0.431041,-0.347642,0.438113,-0.045071,0.011899,0.983669
2011-09-26T13:29:24.331827,12940,0.430512,-0.457931,0.430618,-0.045096,0.010890,0.986333
2011-09-26T13:29:24.341827,12950,0.429982,-0.568221,0.423122,-0.045121,0.009880,0.988998
2011-09-26T13:29:24.351827,12960,0.338167,-0.591016,0.425000,-0.043564,0.009895,0.993324
2011-09-26T13:29:24.361827,12970,0.240527,-0.608229,0.427475,-0.041906,0.009976,0.997757
2011-09-26T13:29:24.371827,12980,0.142887,-0.625441,0.429951,-0.040247,0.010057,1.002190
2011-09-26T13:29:24.381827,12990,0.045247,-0.642654,0.432427,-0.038589,0.010139,1.006623
2011-09-26T13:29:24.391827,13000,-0.052393,-0.659867,0.434903,-0.036931,0.010220,1.011056
2011-09-26T13:29:24.401827,13010,-0.150033,-0.677079,0.437379,-0.035273,0.010301,1.015489
2011-09-26T13:29:24.411827,13020,-0.247673,-0.694292,0.439855,-0.033615,0.010382,1.019922
2011-09-26T13:29:24.421827,13030,-0.345313,-0.711504,0.442331,-0.031957,0.010463,1.024354
2011-09-26T13:29:24.431827,13040,-0.442953,-0.728717,0.444807,-0.030298,0.010544,1.028787
2011-09-26T13:29:24.441827,13050,-0.540594,-0.745929,0.447283,-0.028640,0.010625,1.033220
2011-09-26T13:29:24.451827,13060,-0.529276,-0.653048,0.451566,-0.029697,0.009436,1.030579
2011-09-26T13:29:24.461827,13070,-0.511533,-0.553675,0.455956,-0.030913,0.008173,1.027520
2011-09-26T13:29:24.471827,13080,-0.493790,-0.454301,0.460345,-0.032130,0.006910,1.024461
2011-09-26T13:29:24.481827,13090,-0.476046,-0.354927,0.464735,-0.033346,0.005647,1.021403
2011-09-26T13:29:24.491827,13100,-0.458303,-0.255554,0.469125,-0.034563,0.004384,1.018344
2011-09-26T13:29:24.501827,13110,-0.440560,-0.156180,0.473514,-0.035779,0.003121,1.015285
2011-09-26T13:29:24.511827,13120,-0.422817,-0.056806,0.477904,-0.036996,0.001858,1.012226
2011-09-26T13:29:24.521827,13130,-0.405074,0.042568,0.482294,-0.038212,0.000595,1.009168
2011-09-26T13:29:24.531827,13140,-0.387331,0.141941,0.486683,-0.039429,-0.000668,1.006109
2011-09-26T13:29:24.541827,13150,-0.369588,0.241315,0.491073,-0.040645,-0.001931,1.003050
2011-09-26T13:29:24.551827,13160,-0.353248,0.241290,0.485529,-0.040223,-0.002117,1.001524
2011-09-26T13:29:24.561827,13170,-0.336990,0.235548,0.479413,-0.039707,-0.002240,1.000086
2011-09-26T13:29:24.571827,13180,-0.320732,0.229805,0.473298,-0.039190,-0.002363,0.998648
2011-09-26T13:29:24.581827,13190,-0.304474,0.224062,0.467182,-0.038674,-0.002487,0.997210
2011-09-26T13:29:24.591827,13200,-0.288215,0.218320,0.461067,-0.038158,-0.002610,0.995772
2011-09-26T13:29:24.601827,13210,-0.271957,0.212577,0.454951,-0.037641,-0.002733,0.994334
2011-09-26T13:29:24.611827,13220,-0.255699,0.206835,0.448835,-0.037125,-0.002857,0.992896
2011-09-26T13:29:24.621827,13230,-0.239441,0.201092,0.442720,-0.036609,-0.002980,0.991458
2011-09-26T13:29:24.631827,13240,-0.223182,0.195350,0.436604,-0.036092,-0.003103,0.990020
2011-09-26T13:29:24.641827,13250,-0.206924,0.189607,0.430489,-0.035576,-0.003227,0.988582
2011-09-26T13:29:24.651827,13260,-0.190666,0.183865,0.424373,-0.035059,-0.003350,0.987144
2011-09-26T13:29:24.661827,13270,-0.208268,0.177449,0.423822,-0.034073,-0.004569,0.987949
2011-09-26T13:29:24.671827,13280,-0.228012,0.170990,0.423623,-0.033056,-0.005857,0.988896
2011-09-26T13:29:24.681827,13290,-0.247755,0.164532,0.423425,-0.032039,-0.007145,0.989843
2011-09-26T13:29:24.691827,13300,-0.267499,0.158074,0.423226,-0.031023,-0.008433,0.990789
2011-09-26T13:29:24.701827,13310,-0.287242,0.151615,0.423027,-0.030006,-0.009721,0.991736
2011-09-26T13:29:24.711827,13320,-0.306986,0.145157,0.422828,-0.028990,-0.011009,0.992682
2011-09-26T13:29:24.721827,13330,-0.326729,0.138698,0.422629,-0.027973,-0.012297,0.993629
2011-09-26T13:29:24.731827,13340,-0.346473,0.132240,0.422430,-0.026957,-0.013586,0.994576
2011-09-26T13:29:24.741827,13350,-0.366216,0.125782,0.422232,-0.025940,-0.014874,0.995522
2011-09-26T13:29:24.751827,13360,-0.385959,0.119323,0.422033,-0.024923,-0.016162,0.996469
2011-09-26T13:29:24.761827,13370,-0.361781,0.114177,0.423363,-0.026099,-0.014897,0.995973
2011-09-26T13:29:24.771827,13380,-0.334231,0.109131,0.424811,-0.027442,-0.013435,0.995367
2011-09-26T13:29:24.781827,13390,-0.306681,0.104086,0.426258,-0.028786,-0.011974,0.994761
2011-09-26T13:29:24.791827,13400,-0.279130,0.099040,0.427706,-0.030130,-0.010513,0.994154
2011-09-26T13:29:24.801827,13410,-0.251580,0.093995,0.429154,-0.031474,-0.009052,0.993548
2011-09-26T13:29:24.811827,13420,-0.224030,0.088950,0.430602,-0.032817,-0.007591,0.992942
2011-09-26T13:29:24.821827,13430,-0.196480,0.083904,0.432049,-0.034161,-0.006130,0.992336
2011-09-26T13:29:24.831827,13440,-0.168930,0.078859,0.433497,-0.035505,-0.004669,0.991729
2011-09-26T13:29:24.841827,13450,-0.141380,0.073813,0.434945,-0.036848,-0.003207,0.991123
2011-09-26T13:29:24.851827,13460,-0.113830,0.068768,0.436393,-0.038192,-0.001746,0.990517
2011-09-26T13:29:24.861827,13470,-0.118851,0.070345,0.441415,-0.037698,-0.000925,0.990934
2011-09-26T13:29:24.871827,13480,-0.125910,0.072337,0.446662,-0.037089,-0.000143,0.991415
2011-09-26T13:29:24.881827,13490,-0.132969,0.074329,0.451908,-0.036480,0.000638,0.991896
2011-09-26T13:29:24.891827,13500,-0.140028,0.076321,0.457155,-0.035872,0.001420,0.992377
2011-09-26T13:29:24.901827,13510,-0.147087,0.078313,0.462401,-0.035263,0.002201,0.992858
2011-09-26T13:29:24.911827,13520,-0.154146,0.080305,0.467647,-0.034654,0.002983,0.993339
2011-09-26T13:29:24.921827,13530,-0.161205,0.082297,0.472894,-0.034045,0.003765,0.993820
2011-09-26T13:29:24.931827,13540,-0.168264,0.084289,0.478140,-0.033436,0.004546,0.994301
