pc_time,ts_ms,gyroX,gyroY,gyroZ,accelX,accelY,accelZ
2011-09-26T13:21:35.132661,0,0.498080,-0.291175,-0.627878,0.101358,0.018655,0.983594
2011-09-26T13:21:35.142661,10,0.497274,-0.283091,-0.625603,0.101775,0.017675,0.986518
2011-09-26T13:21:35.152661,20,0.496468,-0.275007,-0.623328,0.102192,0.016695,0.989443
2011-09-26T13:21:35.162661,30,0.495661,-0.266923,-0.621053,0.102609,0.015715,0.992367
2011-09-26T13:21:35.172661,40,0.494855,-0.258840,-0.618779,0.103026,0.014735,0.995291
2011-09-26T13:21:35.182661,50,0.494048,-0.250756,-0.616504,0.103443,0.013754,0.998216
2011-09-26T13:21:35.192661,60,0.493242,-0.242672,-0.614229,0.103861,0.012774,1.001140
2011-09-26T13:21:35.202661,70,0.492435,-0.234588,-0.611954,0.104278,0.011794,1.004064
2011-09-26T13:21:35.212661,80,0.491629,-0.226504,-0.609679,0.104695,0.010814,1.006989
2011-09-26T13:21:35.222661,90,0.490822,-0.218421,-0.607405,0.105112,0.009834,1.009913
2011-09-26T13:21:35.232661,100,0.490016,-0.210337,-0.605130,0.105529,0.008854,1.012837
2011-09-26T13:21:35.242661,110,0.489209,-0.202253,-0.602855,0.105946,0.007873,1.015762
2011-09-26T13:21:35.252661,120,0.511021,-0.128157,-0.604496,0.105415,0.008391,1.016295
2011-09-26T13:21:35.262661,130,0.533315,-0.052652,-0.606222,0.104863,0.008941,1.016778
2011-09-26T13:21:35.272661,140,0.555610,0.022853,-0.607947,0.104312,0.009491,1.017260
2011-09-26T13:21:35.282661,150,0.577904,0.098358,-0.609672,0.103760,0.010041,1.017742
2011-09-26T13:21:35.292661,160,0.600198,0.173863,-0.611397,0.103208,0.010590,1.018225
2011-09-26T13:21:35.302661,170,0.622493,0.249368,-0.613122,0.102657,0.011140,1.018707
2011-09-26T13:21:35.312661,180,0.644787,0.324873,-0.614847,0.102105,0.011690,1.019190
2011-09-26T13:21:35.322661,190,0.667081,0.400378,-0.616572,0.101553,0.012240,1.019672
2011-09-26T13:21:35.332661,200,0.689376,0.475883,-0.618297,0.101002,0.012789,1.020154
2011-09-26T13:21:35.342661,210,0.711670,0.551388,-0.620023,0.100450,0.013339,1.020637
2011-09-26T13:21:35.352661,220,0.692203,0.559888,-0.605249,0.099646,0.012958,1.016877
2011-09-26T13:21:35.362661,230,0.672623,0.568208,-0.590430,0.098841,0.012575,1.013106
2011-09-26T13:21:35.372661,240,0.653043,0.576528,-0.575612,0.098036,0.012192,1.009334
2011-09-26T13:21:35.382661,250,0.633463,0.584847,-0.560793,0.097231,0.011809,1.005563
2011-09-26T13:21:35.392661,260,0.613884,0.593167,-0.545975,0.096426,0.011425,1.001791
2011-09-26T13:21:35.402661,270,0.594304,0.601487,-0.531157,0.095620,0.011042,0.998020
2011-09-26T13:21:35.412661,280,0.574724,0.609806,-0.516338,0.094815,0.010659,0.994249
2011-09-26T13:21:35.422661,290,0.555144,0.618126,-0.501520,0.094010,0.010276,0.990477
2011-09-26T13:21:35.432661,300,0.535564,0.626446,-0.486702,0.093205,0.009892,0.986706
2011-09-26T13:21:35.442661,310,0.515985,0.634765,-0.471883,0.092400,0.009509,0.982935
2011-09-26T13:21:35.452661,320,0.519358,0.613589,-0.456353,0.092007,0.010463,0.982471
2011-09-26T13:21:35.462661,330,0.522783,0.592345,-0.440821,0.091614,0.011420,0.982016
2011-09-26T13:21:35.472661,340,0.526208,0.571102,-0.425288,0.091221,0.012378,0.981560
2011-09-26T13:21:35.482661,350,0.529634,0.549858,-0.409756,0.090828,0.013335,0.981104
2011-09-26T13:21:35.492661,360,0.533059,0.528615,-0.394224,0.090435,0.014292,0.980648
2011-09-26T13:21:35.502661,370,0.536485,0.507371,-0.378692,0.090043,0.015249,0.980193
2011-09-26T13:21:35.512661,380,0.539910,0.486128,-0.363160,0.089650,0.016206,0.979737
2011-09-26T13:21:35.522661,390,0.543335,0.464884,-0.347628,0.089257,0.017163,0.979281
2011-09-26T13:21:35.532661,400,0.546761,0.443641,-0.332096,0.088864,0.018121,0.978825
2011-09-26T13:21:35.542661,410,0.550186,0.422397,-0.316564,0.088471,0.019078,0.978370
2011-09-26T13:21:35.552661,420,0.553611,0.401154,-0.301032,0.088078,0.020035,0.977914
2011-09-26T13:21:35.562661,430,0.532821,0.327923,-0.293996,0.088460,0.020545,0.979595
2011-09-26T13:21:35.572661,440,0.511905,0.254423,-0.287005,0.088846,0.021053,0.981288
2011-09-26T13:21:35.582661,450,0.490988,0.180922,-0.280013,0.089231,0.021561,0.982981
2011-09-26T13:21:35.592661,460,0.470072,0.107421,-0.273022,0.089617,0.022069,0.984674
2011-09-26T13:21:35.602661,470,0.449156,0.033921,-0.266030,0.090003,0.022576,0.986367
2011-09-26T13:21:35.612661,480,0.428239,-0.039580,-0.259039,0.090388,0.023084,0.988059
2011-09-26T13:21:35.622661,490,0.407323,-0.113081,-0.252048,0.090774,0.023592,0.989752
2011-09-26T13:21:35.632661,500,0.386406,-0.186582,-0.245056,0.091160,0.024100,0.991445
2011-09-26T13:21:35.642661,510,0.365490,-0.260082,-0.238065,0.091545,0.024608,0.993138
2011-09-26T13:21:35.652661,520,0.344574,-0.333583,-0.231073,0.091931,0.025116,0.994830
2011-09-26T13:21:35.662661,530,0.277774,-0.346821,-0.235401,0.091683,0.025872,0.994788
2011-09-26T13:21:35.672661,540,0.210646,-0.359630,-0.239809,0.091430,0.026630,0.994734
2011-09-26T13:21:35.682661,550,0.143519,-0.372438,-0.244216,0.091177,0.027388,0.994679
2011-09-26T13:21:35.692661,560,0.076392,-0.385247,-0.248624,0.090923,0.028146,0.994625
2011-09-26T13:21:35.702661,570,0.009265,-0.398055,-0.253032,0.090670,0.028903,0.994570
2011-09-26T13:21:35.712661,580,-0.057862,-0.410864,-0.257440,0.090417,0.029661,0.994516
2011-09-26T13:21:35.722661,590,-0.124990,-0.423672,-0.261848,0.090164,0.030419,0.994461
2011-09-26T13:21:35.732661,600,-0.192117,-0.436481,-0.266256,0.089911,0.031177,0.994407
2011-09-26T13:21:35.742661,610,-0.259244,-0.449289,-0.270664,0.089658,0.031935,0.994353
2011-09-26T13:21:35.752661,620,-0.326371,-0.462098,-0.275072,0.089405,0.032693,0.994298
2011-09-26T13:21:35.762661,630,-0.393498,-0.474906,-0.279480,0.089152,0.033451,0.994244
2011-09-26T13:21:35.772661,640,-0.425797,-0.518529,-0.279416,0.089340,0.032488,0.995665
2011-09-26T13:21:35.782661,650,-0.457699,-0.562503,-0.279301,0.089532,0.031506,0.997104
2011-09-26T13:21:35.792661,660,-0.489600,-0.606477,-0.279186,0.089725,0.030523,0.998543
2011-09-26T13:21:35.802661,670,-0.521502,-0.650451,-0.279070,0.089918,0.029540,0.999981
2011-09-26T13:21:35.812661,680,-0.553403,-0.694425,-0.278955,0.090110,0.028558,1.001420
2011-09-26T13:21:35.822661,690,-0.585305,-0.738399,-0.278840,0.090303,0.027575,1.002858
2011-09-26T13:21:35.832661,700,-0.617206,-0.782373,-0.278725,0.090496,0.026593,1.004297
2011-09-26T13:21:35.842661,710,-0.649108,-0.826347,-0.278610,0.090688,0.025610,1.005736
2011-09-26T13:21:35.852661,720,-0.681009,-0.870321,-0.278495,0.090881,0.024628,1.007174
2011-09-26T13:21:35.862661,730,-0.712911,-0.914295,-0.278380,0.091074,0.023645,1.008613
2011-09-26T13:21:35.872661,740,-0.754384,-0.918572,-0.261088,0.091971,0.023923,1.009636
2011-09-26T13:21:35.882661,750,-0.795899,-0.922678,-0.243721,0.092871,0.024206,1.010657
2011-09-26T13:21:35.892661,760,-0.837414,-0.926783,-0.226355,0.093771,0.024489,1.011678
2011-09-26T13:21:35.902661,770,-0.878929,-0.930889,-0.208989,0.094671,0.024771,1.012700
2011-09-26T13:21:35.912661,780,-0.920444,-0.934994,-0.191623,0.095571,0.025054,1.013721
2011-09-26T13:21:35.922661,790,-0.961959,-0.939100,-0.174257,0.096472,0.025337,1.014742
2011-09-26T13:21:35.932661,800,-1.003473,-0.943205,-0.156891,0.097372,0.025620,1.015763
2011-09-26T13:21:35.942661,810,-1.044988,-0.947311,-0.139524,0.098272,0.025903,1.016785
2011-09-26T13:21:35.952661,820,-1.086503,-0.951417,-0.122158,0.099172,0.026186,1.017806
2011-09-26T13:21:35.962661,830,-1.128018,-0.955522,-0.104792,0.100072,0.026469,1.018827
2011-09-26T13:21:35.972661,840,-1.073896,-0.880157,-0.062385,0.099942,0.026417,1.019928
2011-09-26T13:21:35.982661,850,-1.019373,-0.804459,-0.019872,0.099808,0.026364,1.021029
2011-09-26T13:21:35.992661,860,-0.964849,-0.728761,0.022640,0.099674,0.026311,1.022130
2011-09-26T13:21:36.002661,870,-0.910326,-0.653062,0.065153,0.099540,0.026258,1.023230
2011-09-26T13:21:36.012661,880,-0.855803,-0.577364,0.107665,0.099406,0.026205,1.024331
2011-09-26T13:21:36.022661,890,-0.801280,-0.501666,0.150177,0.099272,0.026152,1.025432
2011-09-26T13:21:36.032661,900,-0.746756,-0.425967,0.192690,0.099138,0.026099,1.026533
2011-09-26T13:21:36.042661,910,-0.692233,-0.350269,0.235202,0.099004,0.026046,1.027634
2011-09-26T13:21:36.052661,920,-0.637710,-0.274571,0.277715,0.098870,0.025993,1.028735
2011-09-26T13:21:36.062661,930,-0.583187,-0.198873,0.320227,0.098736,0.025939,1.029836
2011-09-26T13:21:36.072661,940,-0.587667,-0.210887,0.332048,0.098367,0.027132,1.028066
2011-09-26T13:21:36.082661,950,-0.592389,-0.223261,0.343742,0.097997,0.028330,1.026284
2011-09-26T13:21:36.092661,960,-0.597111,-0.235635,0.355437,0.097628,0.029528,1.024503
2011-09-26T13:21:36.102661,970,-0.601833,-0.248009,0.367132,0.097258,0.030726,1.022721
2011-09-26T13:21:36.112661,980,-0.606555,-0.260383,0.378827,0.096888,0.031924,1.020939
2011-09-26T13:21:36.122661,990,-0.611277,-0.272757,0.390522,0.096519,0.033121,1.019157
2011-09-26T13:21:36.132661,1000,-0.615999,-0.285130,0.402217,0.096149,0.034319,1.017376
2011-09-26T13:21:36.142661,1010,-0.620721,-0.297504,0.413912,0.095780,0.035517,1.015594
2011-09-26T13:21:36.152661,1020,-0.625443,-0.309878,0.425607,0.095410,0.036715,1.013812
2011-09-26T13:21:36.162661,1030,-0.630165,-0.322252,0.437302,0.095040,0.037913,1.012030
2011-09-26T13:21:36.172661,1040,-0.634887,-0.334626,0.448997,0.094671,0.039111,1.010249
2011-09-26T13:21:36.182661,1050,-0.624826,-0.363151,0.436563,0.095432,0.038498,1.009414
2011-09-26T13:21:36.192661,1060,-0.614694,-0.391754,0.424013,0.096200,0.037876,1.008584
2011-09-26T13:21:36.202661,1070,-0.604562,-0.420358,0.411463,0.096967,0.037254,1.007754
2011-09-26T13:21:36.212661,1080,-0.594431,-0.448961,0.398913,0.097734,0.036632,1.006924
2011-09-26T13:21:36.222661,1090,-0.584299,-0.477564,0.386363,0.098501,0.036011,1.006094
2011-09-26T13:21:36.232661,1100,-0.574167,-0.506168,0.373813,0.099269,0.035389,1.005264
2011-09-26T13:21:36.242661,1110,-0.564035,-0.534771,0.361263,0.100036,0.034767,1.004434
2011-09-26T13:21:36.252661,1120,-0.553904,-0.563374,0.348713,0.100803,0.034145,1.003604
2011-09-26T13:21:36.262661,1130,-0.543772,-0.591977,0.336163,0.101570,0.033523,1.002774
2011-09-26T13:21:36.272661,1140,-0.533640,-0.620581,0.323613,0.102338,0.032902,1.001944
2011-09-26T13:21:36.282661,1150,-0.498502,-0.566664,0.334636,0.103049,0.032840,1.002787
2011-09-26T13:21:36.292661,1160,-0.463183,-0.512151,0.345830,0.103760,0.032781,1.003643
2011-09-26T13:21:36.302661,1170,-0.427864,-0.457638,0.357024,0.104471,0.032723,1.004499
2011-09-26T13:21:36.312661,1180,-0.392545,-0.403124,0.368218,0.105183,0.032665,1.005355
2011-09-26T13:21:36.322661,1190,-0.357226,-0.348611,0.379411,0.105894,0.032607,1.006211
2011-09-26T13:21:36.332661,1200,-0.321907,-0.294098,0.390605,0.106605,0.032549,1.007067
2011-09-26T13:21:36.342661,1210,-0.286588,-0.239585,0.401799,0.107316,0.032491,1.007923
2011-09-26T13:21:36.352661,1220,-0.251269,-0.185072,0.412993,0.108027,0.032433,1.008779
2011-09-26T13:21:36.362661,1230,-0.215950,-0.130559,0.424187,0.108738,0.032375,1.009634
2011-09-26T13:21:36.372661,1240,-0.180631,-0.076045,0.435381,0.109449,0.032316,1.010490
2011-09-26T13:21:36.382661,1250,-0.145312,-0.021532,0.446575,0.110161,0.032258,1.011346
2011-09-26T13:21:36.392661,1260,-0.149388,0.001016,0.439779,0.110497,0.031604,1.011450
2011-09-26T13:21:36.402661,1270,-0.153795,0.023296,0.432833,0.110831,0.030945,1.011548
2011-09-26T13:21:36.412661,1280,-0.158201,0.045577,0.425887,0.111164,0.030285,1.011646
2011-09-26T13:21:36.422661,1290,-0.162608,0.067857,0.418941,0.111498,0.029626,1.011743
2011-09-26T13:21:36.432661,1300,-0.167014,0.090138,0.411995,0.111831,0.028967,1.011841
2011-09-26T13:21:36.442661,1310,-0.171421,0.112418,0.405049,0.112165,0.028307,1.011939
2011-09-26T13:21:36.452661,1320,-0.175827,0.134699,0.398103,0.112498,0.027648,1.012037
2011-09-26T13:21:36.462661,1330,-0.180234,0.156980,0.391157,0.112832,0.026989,1.012134
2011-09-26T13:21:36.472661,1340,-0.184640,0.179260,0.384211,0.113165,0.026329,1.012232
2011-09-26T13:21:36.482661,1350,-0.189047,0.201541,0.377265,0.113499,0.025670,1.012330
2011-09-26T13:21:36.492661,1360,-0.144803,0.193837,0.368609,0.113154,0.025789,1.009211
2011-09-26T13:21:36.502661,1370,-0.100272,0.185956,0.359942,0.112805,0.025914,1.006074
2011-09-26T13:21:36.512661,1380,-0.055740,0.178075,0.351276,0.112456,0.026038,1.002936
2011-09-26T13:21:36.522661,1390,-0.011209,0.170193,0.342610,0.112108,0.026162,0.999799
2011-09-26T13:21:36.532661,1400,0.033323,0.162312,0.333944,0.111759,0.026286,0.996661
2011-09-26T13:21:36.542661,1410,0.077854,0.154431,0.325278,0.111410,0.026410,0.993524
2011-09-26T13:21:36.552661,1420,0.122386,0.146550,0.316612,0.111061,0.026535,0.990386
2011-09-26T13:21:36.562661,1430,0.166917,0.138669,0.307945,0.110712,0.026659,0.987249
2011-09-26T13:21:36.572661,1440,0.211449,0.130788,0.299279,0.110363,0.026783,0.984111
2011-09-26T13:21:36.582661,1450,0.255980,0.122906,0.290613,0.110015,0.026907,0.980974
2011-09-26T13:21:36.592661,1460,0.268424,0.111495,0.295447,0.109845,0.026132,0.982124
2011-09-26T13:21:36.602661,1470,0.280534,0.100046,0.300421,0.109677,0.025347,0.983319
2011-09-26T13:21:36.612661,1480,0.292645,0.088598,0.305395,0.109509,0.024562,0.984514
2011-09-26T13:21:36.622661,1490,0.304755,0.077150,0.310369,0.109342,0.023777,0.985709
2011-09-26T13:21:36.632661,1500,0.316865,0.065701,0.315343,0.109174,0.022992,0.986903
2011-09-26T13:21:36.642661,1510,0.328975,0.054253,0.320318,0.109006,0.022207,0.988098
2011-09-26T13:21:36.652661,1520,0.341086,0.042805,0.325292,0.108838,0.021422,0.989293
2011-09-26T13:21:36.662661,1530,0.353196,0.031356,0.330266,0.108670,0.020637,0.990488
2011-09-26T13:21:36.672661,1540,0.365306,0.019908,0.335240,0.108502,0.019852,0.991682
2011-09-26T13:21:36.682661,1550,0.377417,0.008460,0.340214,0.108335,0.019067,0.992877
2011-09-26T13:21:36.692661,1560,0.389527,-0.002989,0.345188,0.108167,0.018282,0.994072
2011-09-26T13:21:36.702661,1570,0.428623,0.008961,0.337526,0.108024,0.019602,0.994618
2011-09-26T13:21:36.712661,1580,0.467964,0.021124,0.329750,0.107881,0.020940,0.995157
2011-09-26T13:21:36.722661,1590,0.507305,0.033286,0.321974,0.107738,0.022278,0.995697
2011-09-26T13:21:36.732661,1600,0.546646,0.045448,0.314198,0.107595,0.023617,0.996237
2011-09-26T13:21:36.742661,1610,0.585987,0.057611,0.306421,0.107452,0.024955,0.996776
2011-09-26T13:21:36.752661,1620,0.625328,0.069773,0.298645,0.107309,0.026294,0.997316
2011-09-26T13:21:36.762661,1630,0.664669,0.081935,0.290869,0.107166,0.027632,0.997856
2011-09-26T13:21:36.772661,1640,0.704010,0.094098,0.283092,0.107023,0.028971,0.998396
2011-09-26T13:21:36.782661,1650,0.743351,0.106260,0.275316,0.106880,0.030309,0.998935
2011-09-26T13:21:36.792661,1660,0.782691,0.118422,0.267540,0.106737,0.031647,0.999475
2011-09-26T13:21:36.802661,1670,0.805021,0.126649,0.267011,0.107054,0.030901,0.999978
2011-09-26T13:21:36.812661,1680,0.827101,0.134818,0.266588,0.107377,0.030124,1.000480
2011-09-26T13:21:36.822661,1690,0.849181,0.142987,0.266165,0.107701,0.029346,1.000982
2011-09-26T13:21:36.832661,1700,0.871261,0.151156,0.265742,0.108024,0.028569,1.001484
2011-09-26T13:21:36.842661,1710,0.893341,0.159325,0.265320,0.108347,0.027792,1.001986
2011-09-26T13:21:36.852661,1720,0.915421,0.167494,0.264897,0.108670,0.027014,1.002489
2011-09-26T13:21:36.862661,1730,0.937501,0.175662,0.264474,0.108994,0.026237,1.002991
2011-09-26T13:21:36.872661,1740,0.959581,0.183831,0.264051,0.109317,0.025460,1.003493
2011-09-26T13:21:36.882661,1750,0.981661,0.192000,0.263629,0.109640,0.024683,1.003995
2011-09-26T13:21:36.892661,1760,1.003741,0.200169,0.263206,0.109964,0.023905,1.004497
2011-09-26T13:21:36.902661,1770,0.995791,0.211917,0.267521,0.109713,0.024692,1.003572
2011-09-26T13:21:36.912661,1780,0.987650,0.223688,0.271866,0.109460,0.025488,1.002638
2011-09-26T13:21:36.922661,1790,0.979509,0.235459,0.276211,0.109206,0.026284,1.001705
2011-09-26T13:21:36.932661,1800,0.971368,0.247230,0.280556,0.108952,0.027080,1.000771
2011-09-26T13:21:36.942661,1810,0.963227,0.259000,0.284902,0.108698,0.027876,0.999837
2011-09-26T13:21:36.952661,1820,0.955087,0.270771,0.289247,0.108444,0.028672,0.998903
2011-09-26T13:21:36.962661,1830,0.946946,0.282542,0.293592,0.108190,0.029468,0.997969
2011-09-26T13:21:36.972661,1840,0.938805,0.294313,0.297937,0.107936,0.030264,0.997035
2011-09-26T13:21:36.982661,1850,0.930664,0.306083,0.302282,0.107682,0.031060,0.996101
2011-09-26T13:21:36.992661,1860,0.922523,0.317854,0.306627,0.107428,0.031856,0.995167
2011-09-26T13:21:37.002661,1870,0.914383,0.329625,0.310972,0.107175,0.032652,0.994233
2011-09-26T13:21:37.012661,1880,0.916367,0.321561,0.303317,0.107230,0.033232,0.993915
2011-09-26T13:21:37.022661,1890,0.918410,0.313383,0.295592,0.107287,0.033811,0.993600
2011-09-26T13:21:37.032661,1900,0.920453,0.305206,0.287868,0.107344,0.034390,0.993286
2011-09-26T13:21:37.042661,1910,0.922496,0.297028,0.280143,0.107401,0.034968,0.992971
2011-09-26T13:21:37.052661,1920,0.924539,0.288851,0.272419,0.107458,0.035547,0.992657
2011-09-26T13:21:37.062661,1930,0.926581,0.280673,0.264694,0.107515,0.036125,0.992342
2011-09-26T13:21:37.072661,1940,0.928624,0.272495,0.256970,0.107572,0.036704,0.992028
2011-09-26T13:21:37.082661,1950,0.930667,0.264318,0.249245,0.107630,0.037283,0.991713
2011-09-26T13:21:37.092661,1960,0.932710,0.256140,0.241521,0.107687,0.037861,0.991399
2011-09-26T13:21:37.102661,1970,0.934752,0.247963,0.233796,0.107744,0.038440,0.991084
2011-09-26T13:21:37.112661,1980,0.882001,0.246729,0.219738,0.108093,0.038887,0.990486
2011-09-26T13:21:37.122661,1990,0.828415,0.245600,0.205584,0.108448,0.039332,0.989884
2011-09-26T13:21:37.132661,2000,0.774829,0.244472,0.191429,0.108802,0.039777,0.989281
2011-09-26T13:21:37.142661,2010,0.721244,0.243343,0.177275,0.109156,0.040222,0.988679
2011-09-26T13:21:37.152661,2020,0.667658,0.242215,0.163120,0.109510,0.040667,0.988077
2011-09-26T13:21:37.162661,2030,0.614072,0.241087,0.148966,0.109864,0.041112,0.987474
2011-09-26T13:21:37.172661,2040,0.560487,0.239958,0.134811,0.110219,0.041557,0.986872
2011-09-26T13:21:37.182661,2050,0.506901,0.238830,0.120657,0.110573,0.042002,0.986269
2011-09-26T13:21:37.192661,2060,0.453315,0.237701,0.106503,0.110927,0.042447,0.985667
2011-09-26T13:21:37.202661,2070,0.399730,0.236573,0.092348,0.111281,0.042892,0.985064
2011-09-26T13:21:37.212661,2080,0.399608,0.224680,0.080138,0.110912,0.041911,0.985522
2011-09-26T13:21:37.222661,2090,0.401107,0.212460,0.067986,0.110521,0.040887,0.986012
2011-09-26T13:21:37.232661,2100,0.402605,0.200241,0.055834,0.110129,0.039863,0.986501
2011-09-26T13:21:37.242661,2110,0.404103,0.188022,0.043683,0.109738,0.038839,0.986991
2011-09-26T13:21:37.252661,2120,0.405601,0.175803,0.031531,0.109347,0.037815,0.987481
2011-09-26T13:21:37.262661,2130,0.407099,0.163583,0.019379,0.108956,0.036791,0.987970
2011-09-26T13:21:37.272661,2140,0.408597,0.151364,0.007228,0.108564,0.035767,0.988460
2011-09-26T13:21:37.282661,2150,0.410095,0.139145,-0.004924,0.108173,0.034743,0.988950
2011-09-26T13:21:37.292661,2160,0.411593,0.126926,-0.017076,0.107782,0.033719,0.989439
2011-09-26T13:21:37.302661,2170,0.413091,0.114706,-0.029227,0.107391,0.032695,0.989929
2011-09-26T13:21:37.312661,2180,0.414589,0.102487,-0.041379,0.106999,0.031671,0.990419
2011-09-26T13:21:37.322661,2190,0.419382,0.069428,-0.032409,0.107765,0.032479,0.992030
2011-09-26T13:21:37.332661,2200,0.424216,0.036110,-0.023176,0.108545,0.033309,0.993655
2011-09-26T13:21:37.342661,2210,0.429050,0.002792,-0.013944,0.109325,0.034140,0.995280
2011-09-26T13:21:37.352661,2220,0.433883,-0.030526,-0.004711,0.110105,0.034970,0.996905
2011-09-26T13:21:37.362661,2230,0.438717,-0.063844,0.004521,0.110885,0.035800,0.998530
2011-09-26T13:21:37.372661,2240,0.443551,-0.097162,0.013754,0.111666,0.036631,1.000155
2011-09-26T13:21:37.382661,2250,0.448385,-0.130480,0.022986,0.112446,0.037461,1.001781
2011-09-26T13:21:37.392661,2260,0.453219,-0.163799,0.032219,0.113226,0.038292,1.003406
2011-09-26T13:21:37.402661,2270,0.458052,-0.197117,0.041451,0.114006,0.039122,1.005031
2011-09-26T13:21:37.412661,2280,0.462886,-0.230435,0.050684,0.114786,0.039952,1.006656
2011-09-26T13:21:37.422661,2290,0.424076,-0.232592,0.048531,0.114997,0.038977,1.006631
2011-09-26T13:21:37.432661,2300,0.384786,-0.234406,0.046252,0.115201,0.037983,1.006587
2011-09-26T13:21:37.442661,2310,0.345495,-0.236221,0.043974,0.115406,0.036988,1.006544
2011-09-26T13:21:37.452661,2320,0.306204,-0.238035,0.041695,0.115611,0.035993,1.006501
2011-09-26T13:21:37.462661,2330,0.266914,-0.239849,0.039417,0.115815,0.034998,1.006457
2011-09-26T13:21:37.472661,2340,0.227623,-0.241664,0.037139,0.116020,0.034003,1.006414
2011-09-26T13:21:37.482661,2350,0.188332,-0.243478,0.034860,0.116225,0.033008,1.006371
2011-09-26T13:21:37.492661,2360,0.149042,-0.245292,0.032582,0.116429,0.032013,1.006327
2011-09-26T13:21:37.502661,2370,0.109751,-0.247107,0.030303,0.116634,0.031018,1.006284
2011-09-26T13:21:37.512661,2380,0.070461,-0.248921,0.028025,0.116838,0.030024,1.006241
2011-09-26T13:21:37.522661,2390,0.067054,-0.232359,0.023515,0.116314,0.029626,1.005488
2011-09-26T13:21:37.532661,2400,0.064115,-0.215556,0.018977,0.115780,0.029235,1.004726
2011-09-26T13:21:37.542661,2410,0.061177,-0.198754,0.014438,0.115245,0.028845,1.003965
2011-09-26T13:21:37.552661,2420,0.058239,-0.181951,0.009899,0.114711,0.028455,1.003203
2011-09-26T13:21:37.562661,2430,0.055301,-0.165149,0.005360,0.114177,0.028065,1.002441
2011-09-26T13:21:37.572661,2440,0.052362,-0.148346,0.000822,0.113643,0.027675,1.001680
2011-09-26T13:21:37.582661,2450,0.049424,-0.131544,-0.003717,0.113109,0.027285,1.000918
2011-09-26T13:21:37.592661,2460,0.046486,-0.114741,-0.008256,0.112575,0.026894,1.000156
2011-09-26T13:21:37.602661,2470,0.043547,-0.097939,-0.012795,0.112040,0.026504,0.999395
2011-09-26T13:21:37.612661,2480,0.040609,-0.081137,-0.017333,0.111506,0.026114,0.998633
2011-09-26T13:21:37.622661,2490,0.037671,-0.064334,-0.021872,0.110972,0.025724,0.997871
2011-09-26T13:21:37.632661,2500,0.045290,-0.035567,-0.024668,0.111709,0.027752,0.997244
2011-09-26T13:21:37.642661,2510,0.053070,-0.006617,-0.027438,0.112466,0.029816,0.996619
2011-09-26T13:21:37.652661,2520,0.060851,0.022334,-0.030208,0.113223,0.031881,0.995993
2011-09-26T13:21:37.662661,2530,0.068631,0.051284,-0.032977,0.113980,0.033946,0.995368
2011-09-26T13:21:37.672661,2540,0.076412,0.080235,-0.035747,0.114736,0.036011,0.994743
2011-09-26T13:21:37.682661,2550,0.084192,0.109185,-0.038517,0.115493,0.038075,0.994117
2011-09-26T13:21:37.692661,2560,0.091973,0.138136,-0.041287,0.116250,0.040140,0.993492
2011-09-26T13:21:37.702661,2570,0.099753,0.167086,-0.044056,0.117007,0.042205,0.992867
2011-09-26T13:21:37.712661,2580,0.107534,0.196036,-0.046826,0.117763,0.044269,0.992241
2011-09-26T13:21:37.722661,2590,0.115314,0.224987,-0.049596,0.118520,0.046334,0.991616
2011-09-26T13:21:37.732661,2600,0.081711,0.215557,-0.056703,0.118186,0.044049,0.992807
2011-09-26T13:21:37.742661,2610,0.047385,0.205457,-0.063887,0.117833,0.041687,0.994029
2011-09-26T13:21:37.752661,2620,0.013058,0.195356,-0.071070,0.117480,0.039325,0.995251
2011-09-26T13:21:37.762661,2630,-0.021269,0.185255,-0.078254,0.117127,0.036963,0.996473
2011-09-26T13:21:37.772661,2640,-0.055596,0.175155,-0.085437,0.116774,0.034601,0.997695
2011-09-26T13:21:37.782661,2650,-0.089922,0.165054,-0.092621,0.116421,0.032240,0.998918
2011-09-26T13:21:37.792661,2660,-0.124249,0.154954,-0.099804,0.116068,0.029878,1.000140
2011-09-26T13:21:37.802661,2670,-0.158576,0.144853,-0.106988,0.115715,0.027516,1.001362
2011-09-26T13:21:37.812661,2680,-0.192903,0.134752,-0.114171,0.115362,0.025154,1.002584
2011-09-26T13:21:37.822661,2690,-0.227230,0.124652,-0.121355,0.115009,0.022793,1.003806
2011-09-26T13:21:37.832661,2700,-0.261556,0.114551,-0.128538,0.114656,0.020431,1.005028
2011-09-26T13:21:37.842661,2710,-0.212497,0.118416,-0.139487,0.114431,0.020731,1.004538
2011-09-26T13:21:37.852661,2720,-0.162084,0.122507,-0.150496,0.114208,0.021075,1.004019
2011-09-26T13:21:37.862661,2730,-0.111671,0.126598,-0.161506,0.113985,0.021418,1.003501
2011-09-26T13:21:37.872661,2740,-0.061258,0.130689,-0.172515,0.113762,0.021761,1.002982
2011-09-26T13:21:37.882661,2750,-0.010846,0.134780,-0.183525,0.113539,0.022105,1.002464
2011-09-26T13:21:37.892661,2760,0.039567,0.138871,-0.194534,0.113316,0.022448,1.001945
2011-09-26T13:21:37.902661,2770,0.089980,0.142962,-0.205544,0.113093,0.022792,1.001426
2011-09-26T13:21:37.912661,2780,0.140393,0.147053,-0.216553,0.112870,0.023135,1.000908
2011-09-26T13:21:37.922661,2790,0.190806,0.151144,-0.227563,0.112647,0.023479,1.000389
2011-09-26T13:21:37.932661,2800,0.241218,0.155235,-0.238572,0.112424,0.023822,0.999871
2011-09-26T13:21:37.942661,2810,0.232754,0.174080,-0.250527,0.112521,0.023783,0.999052
2011-09-26T13:21:37.952661,2820,0.223442,0.193137,-0.262496,0.112623,0.023739,0.998229
2011-09-26T13:21:37.962661,2830,0.214130,0.212194,-0.274464,0.112724,0.023694,0.997406
2011-09-26T13:21:37.972661,2840,0.204818,0.231251,-0.286433,0.112826,0.023650,0.996583
2011-09-26T13:21:37.982661,2850,0.195506,0.250308,-0.298401,0.112928,0.023605,0.995760
2011-09-26T13:21:37.992661,2860,0.186194,0.269365,-0.310370,0.113030,0.023561,0.994937
2011-09-26T13:21:38.002661,2870,0.176882,0.288421,-0.322338,0.113132,0.023516,0.994115
2011-09-26T13:21:38.012661,2880,0.167570,0.307478,-0.334306,0.113234,0.023472,0.993292
2011-09-26T13:21:38.022661,2890,0.158258,0.326535,-0.346275,0.113336,0.023427,0.992469
2011-09-26T13:21:38.032661,2900,0.148947,0.345592,-0.358243,0.113438,0.023383,0.991646
2011-09-26T13:21:38.042661,2910,0.184436,0.350666,-0.347211,0.112832,0.023379,0.991920
2011-09-26T13:21:38.052661,2920,0.220456,0.355574,-0.335907,0.112218,0.023375,0.992207
2011-09-26T13:21:38.062661,2930,0.256476,0.360482,-0.324603,0.111605,0.023370,0.992495
2011-09-26T13:21:38.072661,2940,0.292496,0.365390,-0.313299,0.110991,0.023366,0.992782
2011-09-26T13:21:38.082661,2950,0.328515,0.370298,-0.301995,0.110377,0.023362,0.993069
2011-09-26T13:21:38.092661,2960,0.364535,0.375206,-0.290691,0.109763,0.023358,0.993357
2011-09-26T13:21:38.102661,2970,0.400555,0.380114,-0.279387,0.109150,0.023354,0.993644
2011-09-26T13:21:38.112661,2980,0.436575,0.385022,-0.268083,0.108536,0.023350,0.993931
2011-09-26T13:21:38.122661,2990,0.472595,0.389930,-0.256779,0.107922,0.023346,0.994219
2011-09-26T13:21:38.132661,3000,0.508614,0.394839,-0.245474,0.107309,0.023342,0.994506
2011-09-26T13:21:38.142661,3010,0.544634,0.399747,-0.234170,0.106695,0.023338,0.994793
2011-09-26T13:21:38.152661,3020,0.550808,0.365595,-0.239177,0.106274,0.022472,0.995343
2011-09-26T13:21:38.162661,3030,0.556598,0.330943,-0.244393,0.105857,0.021596,0.995897
2011-09-26T13:21:38.172661,3040,0.562389,0.296290,-0.249610,0.105439,0.020719,0.996451
2011-09-26T13:21:38.182661,3050,0.568179,0.261638,-0.254826,0.105021,0.019842,0.997005
2011-09-26T13:21:38.192661,3060,0.573970,0.226986,-0.260042,0.104603,0.018965,0.997558
2011-09-26T13:21:38.202661,3070,0.579760,0.192333,-0.265258,0.104185,0.018088,0.998112
2011-09-26T13:21:38.212661,3080,0.585551,0.157681,-0.270474,0.103768,0.017212,0.998666
2011-09-26T13:21:38.222661,3090,0.591341,0.123028,-0.275691,0.103350,0.016335,0.999219
2011-09-26T13:21:38.232661,3100,0.597132,0.088376,-0.280907,0.102932,0.015458,0.999773
2011-09-26T13:21:38.242661,3110,0.602922,0.053723,-0.286123,0.102514,0.014581,1.000327
2011-09-26T13:21:38.252661,3120,0.598476,0.017320,-0.275983,0.100331,0.015892,1.000986
2011-09-26T13:21:38.262661,3130,0.593745,-0.019133,-0.265416,0.098100,0.017264,1.001647
2011-09-26T13:21:38.272661,3140,0.589013,-0.055585,-0.254848,0.095868,0.018636,1.002309
2011-09-26T13:21:38.282661,3150,0.584282,-0.092038,-0.244281,0.093636,0.020007,1.002971
2011-09-26T13:21:38.292661,3160,0.579551,-0.128490,-0.233714,0.091404,0.021379,1.003633
2011-09-26T13:21:38.302661,3170,0.574819,-0.164942,-0.223146,0.089172,0.022751,1.004294
2011-09-26T13:21:38.312661,3180,0.570088,-0.201395,-0.212579,0.086940,0.024123,1.004956
2011-09-26T13:21:38.322661,3190,0.565356,-0.237847,-0.202011,0.084709,0.025494,1.005618
2011-09-26T13:21:38.332661,3200,0.560625,-0.274300,-0.191444,0.082477,0.026866,1.006280
2011-09-26T13:21:38.342661,3210,0.555894,-0.310752,-0.180876,0.080245,0.028238,1.006942
2011-09-26T13:21:38.352661,3220,0.550272,-0.295231,-0.170133,0.079502,0.028733,1.006771
2011-09-26T13:21:38.362661,3230,0.544638,-0.278987,-0.159387,0.078780,0.029216,1.006588
2011-09-26T13:21:38.372661,3240,0.539004,-0.262744,-0.148641,0.078058,0.029699,1.006406
2011-09-26T13:21:38.382661,3250,0.533370,-0.246501,-0.137895,0.077336,0.030182,1.006224
2011-09-26T13:21:38.392661,3260,0.527736,-0.230258,-0.127149,0.076613,0.030664,1.006041
2011-09-26T13:21:38.402661,3270,0.522102,-0.214015,-0.116403,0.075891,0.031147,1.005859
2011-09-26T13:21:38.412661,3280,0.516467,-0.197772,-0.105657,0.075169,0.031630,1.005677
2011-09-26T13:21:38.422661,3290,0.510833,-0.181528,-0.094911,0.074447,0.032113,1.005494
2011-09-26T13:21:38.432661,3300,0.505199,-0.165285,-0.084165,0.073725,0.032596,1.005312
2011-09-26T13:21:38.442661,3310,0.499565,-0.149042,-0.073419,0.073003,0.033079,1.005129
2011-09-26T13:21:38.452661,3320,0.493931,-0.132799,-0.062672,0.072280,0.033561,1.004947
2011-09-26T13:21:38.462661,3330,0.438833,-0.088557,-0.043832,0.070557,0.034640,1.005455
2011-09-26T13:21:38.472661,3340,0.383174,-0.043997,-0.024900,0.068823,0.035726,1.005972
2011-09-26T13:21:38.482661,3350,0.327515,0.000563,-0.005967,0.067088,0.036812,1.006488
2011-09-26T13:21:38.492661,3360,0.271856,0.045122,0.012965,0.065354,0.037897,1.007004
2011-09-26T13:21:38.502661,3370,0.216198,0.089682,0.031897,0.063620,0.038983,1.007520
2011-09-26T13:21:38.512661,3380,0.160539,0.134242,0.050829,0.061885,0.040068,1.008037
2011-09-26T13:21:38.522661,3390,0.104880,0.178801,0.069762,0.060151,0.041154,1.008553
2011-09-26T13:21:38.532661,3400,0.049221,0.223361,0.088694,0.058416,0.042240,1.009069
2011-09-26T13:21:38.542661,3410,-0.006437,0.267920,0.107626,0.056682,0.043325,1.009585
2011-09-26T13:21:38.552661,3420,-0.062096,0.312480,0.126558,0.054948,0.044411,1.010102
2011-09-26T13:21:38.562661,3430,-0.055716,0.339025,0.120888,0.053951,0.045271,1.010739
2011-09-26T13:21:38.572661,3440,-0.048718,0.365391,0.114972,0.052961,0.046129,1.011377
2011-09-26T13:21:38.582661,3450,-0.041720,0.391757,0.109057,0.051971,0.046988,1.012016
2011-09-26T13:21:38.592661,3460,-0.034722,0.418123,0.103141,0.050982,0.047846,1.012654
2011-09-26T13:21:38.602661,3470,-0.027725,0.444489,0.097225,0.049992,0.048704,1.013293
2011-09-26T13:21:38.612661,3480,-0.020727,0.470855,0.091310,0.049002,0.049562,1.013931
2011-09-26T13:21:38.622661,3490,-0.013729,0.497220,0.085394,0.048013,0.050420,1.014570
2011-09-26T13:21:38.632661,3500,-0.006731,0.523586,0.079478,0.047023,0.051278,1.015208
2011-09-26T13:21:38.642661,3510,0.000267,0.549952,0.073563,0.046034,0.052136,1.015847
2011-09-26T13:21:38.652661,3520,0.007265,0.576318,0.067647,0.045044,0.052995,1.016485
2011-09-26T13:21:38.662661,3530,-0.031512,0.594859,0.063808,0.044673,0.052170,1.014123
2011-09-26T13:21:38.672661,3540,-0.070953,0.613287,0.059999,0.044311,0.051321,1.011718
2011-09-26T13:21:38.682661,3550,-0.110393,0.631715,0.056190,0.043949,0.050472,1.009312
2011-09-26T13:21:38.692661,3560,-0.149834,0.650143,0.052381,0.043587,0.049622,1.006907
2011-09-26T13:21:38.702661,3570,-0.189274,0.668570,0.048572,0.043225,0.048773,1.004501
2011-09-26T13:21:38.712661,3580,-0.228715,0.686998,0.044763,0.042863,0.047924,1.002096
2011-09-26T13:21:38.722661,3590,-0.268155,0.705426,0.040954,0.042501,0.047075,0.999690
2011-09-26T13:21:38.732661,3600,-0.307596,0.723854,0.037145,0.042139,0.046226,0.997285
2011-09-26T13:21:38.742661,3610,-0.347036,0.742282,0.033336,0.041777,0.045377,0.994879
2011-09-26T13:21:38.752661,3620,-0.386477,0.760710,0.029527,0.041415,0.044528,0.992474
2011-09-26T13:21:38.762661,3630,-0.425917,0.779138,0.025718,0.041054,0.043679,0.990068
2011-09-26T13:21:38.772661,3640,-0.448563,0.755826,0.029437,0.041054,0.043098,0.987998
2011-09-26T13:21:38.782661,3650,-0.470820,0.731546,0.033331,0.041063,0.042523,0.985936
2011-09-26T13:21:38.792661,3660,-0.493077,0.707265,0.037224,0.041072,0.041948,0.983874
2011-09-26T13:21:38.802661,3670,-0.515333,0.682985,0.041118,0.041081,0.041373,0.981812
2011-09-26T13:21:38.812661,3680,-0.537590,0.658705,0.045011,0.041090,0.040799,0.979749
2011-09-26T13:21:38.822661,3690,-0.559847,0.634424,0.048905,0.041099,0.040224,0.977687
2011-09-26T13:21:38.832661,3700,-0.582103,0.610144,0.052798,0.041108,0.039649,0.975625
2011-09-26T13:21:38.842661,3710,-0.604360,0.585864,0.056692,0.041117,0.039074,0.973563
2011-09-26T13:21:38.852661,3720,-0.626617,0.561583,0.060585,0.041126,0.038499,0.971501
2011-09-26T13:21:38.862661,3730,-0.648873,0.537303,0.064479,0.041136,0.037925,0.969439
2011-09-26T13:21:38.872661,3740,-0.616513,0.506952,0.072760,0.042056,0.037679,0.971069
2011-09-26T13:21:38.882661,3750,-0.583653,0.476545,0.081081,0.042984,0.037436,0.972733
2011-09-26T13:21:38.892661,3760,-0.550792,0.446138,0.089402,0.043912,0.037193,0.974397
2011-09-26T13:21:38.902661,3770,-0.517931,0.415731,0.097723,0.044841,0.036950,0.976061
2011-09-26T13:21:38.912661,3780,-0.485071,0.385325,0.106044,0.045769,0.036707,0.977725
2011-09-26T13:21:38.922661,3790,-0.452210,0.354918,0.114365,0.046698,0.036464,0.979389
2011-09-26T13:21:38.932661,3800,-0.419349,0.324511,0.122686,0.047626,0.036221,0.981054
2011-09-26T13:21:38.942661,3810,-0.386489,0.294104,0.131007,0.048554,0.035978,0.982718
2011-09-26T13:21:38.952661,3820,-0.353628,0.263697,0.139328,0.049483,0.035735,0.984382
2011-09-26T13:21:38.962661,3830,-0.320767,0.233290,0.147649,0.050411,0.035493,0.986046
2011-09-26T13:21:38.972661,3840,-0.287907,0.202884,0.155970,0.051340,0.035250,0.987710
2011-09-26T13:21:38.982661,3850,-0.338334,0.129912,0.153890,0.052067,0.035921,0.987082
2011-09-26T13:21:38.992661,3860,-0.390279,0.056166,0.151621,0.052790,0.036608,0.986412
2011-09-26T13:21:39.002661,3870,-0.442224,-0.017581,0.149351,0.053514,0.037296,0.985742
2011-09-26T13:21:39.012661,3880,-0.494169,-0.091328,0.147082,0.054237,0.037984,0.985072
2011-09-26T13:21:39.022661,3890,-0.546114,-0.165074,0.144813,0.054961,0.038671,0.984402
2011-09-26T13:21:39.032661,3900,-0.598058,-0.238821,0.142544,0.055684,0.039359,0.983733
2011-09-26T13:21:39.042661,3910,-0.650003,-0.312568,0.140274,0.056408,0.040047,0.983063
2011-09-26T13:21:39.052661,3920,-0.701948,-0.386315,0.138005,0.057131,0.040734,0.982393
2011-09-26T13:21:39.062661,3930,-0.753893,-0.460061,0.135736,0.057855,0.041422,0.981723
2011-09-26T13:21:39.072661,3940,-0.805838,-0.533808,0.133467,0.058578,0.042110,0.981053
2011-09-26T13:21:39.082661,3950,-0.805706,-0.612668,0.134649,0.059389,0.041578,0.983994
2011-09-26T13:21:39.092661,3960,-0.804527,-0.691631,0.135900,0.060202,0.041022,0.987007
2011-09-26T13:21:39.102661,3970,-0.803348,-0.770594,0.137152,0.061015,0.040465,0.990020
2011-09-26T13:21:39.112661,3980,-0.802169,-0.849557,0.138403,0.061827,0.039909,0.993034
2011-09-26T13:21:39.122661,3990,-0.800990,-0.928520,0.139655,0.062640,0.039353,0.996047
2011-09-26T13:21:39.132661,4000,-0.799811,-1.007483,0.140906,0.063453,0.038796,0.999060
2011-09-26T13:21:39.142661,4010,-0.798632,-1.086446,0.142158,0.064265,0.038240,1.002074
2011-09-26T13:21:39.152661,4020,-0.797453,-1.165409,0.143409,0.065078,0.037683,1.005087
2011-09-26T13:21:39.162661,4030,-0.796274,-1.244372,0.144661,0.065891,0.037127,1.008100
2011-09-26T13:21:39.172661,4040,-0.795095,-1.323335,0.145912,0.066703,0.036571,1.011114
2011-09-26T13:21:39.182661,4050,-0.779389,-1.260518,0.137247,0.068000,0.036872,1.012664
2011-09-26T13:21:39.192661,4060,-0.763429,-1.195236,0.128409,0.069305,0.037188,1.014189
2011-09-26T13:21:39.202661,4070,-0.747470,-1.129954,0.119571,0.070611,0.037504,1.015715
2011-09-26T13:21:39.212661,4080,-0.731511,-1.064672,0.110732,0.071916,0.037821,1.017240
2011-09-26T13:21:39.222661,4090,-0.715551,-0.999390,0.101894,0.073221,0.038137,1.018765
2011-09-26T13:21:39.232661,4100,-0.699592,-0.934107,0.093056,0.074527,0.038453,1.020291
2011-09-26T13:21:39.242661,4110,-0.683633,-0.868825,0.084218,0.075832,0.038769,1.021816
2011-09-26T13:21:39.252661,4120,-0.667673,-0.803543,0.075380,0.077137,0.039085,1.023341
2011-09-26T13:21:39.262661,4130,-0.651714,-0.738261,0.066542,0.078442,0.039402,1.024866
2011-09-26T13:21:39.272661,4140,-0.635755,-0.672979,0.057704,0.079748,0.039718,1.026392
2011-09-26T13:21:39.282661,4150,-0.619796,-0.607697,0.048866,0.081053,0.040034,1.027917
2011-09-26T13:21:39.292661,4160,-0.634640,-0.510090,0.042983,0.080748,0.037894,1.027119
2011-09-26T13:21:39.302661,4170,-0.650131,-0.411804,0.037163,0.080408,0.035702,1.026273
2011-09-26T13:21:39.312661,4180,-0.665623,-0.313518,0.031343,0.080069,0.033511,1.025427
2011-09-26T13:21:39.322661,4190,-0.681114,-0.215231,0.025522,0.079730,0.031319,1.024581
2011-09-26T13:21:39.332661,4200,-0.696605,-0.116945,0.019702,0.079391,0.029128,1.023735
2011-09-26T13:21:39.342661,4210,-0.712097,-0.018659,0.013881,0.079052,0.026936,1.022888
2011-09-26T13:21:39.352661,4220,-0.727588,0.079627,0.008061,0.078713,0.024745,1.022042
2011-09-26T13:21:39.362661,4230,-0.743080,0.177914,0.002241,0.078373,0.022553,1.021196
2011-09-26T13:21:39.372661,4240,-0.758571,0.276200,-0.003580,0.078034,0.020362,1.020350
2011-09-26T13:21:39.382661,4250,-0.774063,0.374486,-0.009400,0.077695,0.018170,1.019503
2011-09-26T13:21:39.392661,4260,-0.723510,0.373790,-0.016379,0.076833,0.018300,1.016019
2011-09-26T13:21:39.402661,4270,-0.671444,0.370827,-0.023385,0.075959,0.018483,1.012475
2011-09-26T13:21:39.412661,4280,-0.619379,0.367864,-0.030391,0.075085,0.018666,1.008931
2011-09-26T13:21:39.422661,4290,-0.567314,0.364901,-0.037396,0.074211,0.018850,1.005386
2011-09-26T13:21:39.432661,4300,-0.515248,0.361938,-0.044402,0.073337,0.019033,1.001842
2011-09-26T13:21:39.442661,4310,-0.463183,0.358975,-0.051408,0.072463,0.019216,0.998298
2011-09-26T13:21:39.452661,4320,-0.411118,0.356012,-0.058414,0.071588,0.019399,0.994753
2011-09-26T13:21:39.462661,4330,-0.359052,0.353049,-0.065419,0.070714,0.019582,0.991209
2011-09-26T13:21:39.472661,4340,-0.306987,0.350086,-0.072425,0.069840,0.019765,0.987665
2011-09-26T13:21:39.482661,4350,-0.254922,0.347123,-0.079431,0.068966,0.019949,0.984120
2011-09-26T13:21:39.492661,4360,-0.248731,0.295844,-0.085247,0.069314,0.020455,0.984703
2011-09-26T13:21:39.502661,4370,-0.243347,0.243715,-0.091042,0.069684,0.020967,0.985358
2011-09-26T13:21:39.512661,4380,-0.237963,0.191586,-0.096837,0.070054,0.021478,0.986013
2011-09-26T13:21:39.522661,4390,-0.232579,0.139458,-0.102632,0.070423,0.021990,0.986668
2011-09-26T13:21:39.532661,4400,-0.227195,0.087329,-0.108427,0.070793,0.022502,0.987323
2011-09-26T13:21:39.542661,4410,-0.221811,0.035200,-0.114222,0.071163,0.023014,0.987978
2011-09-26T13:21:39.552661,4420,-0.216427,-0.016929,-0.120017,0.071532,0.023525,0.988633
2011-09-26T13:21:39.562661,4430,-0.211043,-0.069058,-0.125812,0.071902,0.024037,0.989288
2011-09-26T13:21:39.572661,4440,-0.205659,-0.121187,-0.131607,0.072272,0.024549,0.989943
2011-09-26T13:21:39.582661,4450,-0.200275,-0.173316,-0.137402,0.072642,0.025061,0.990598
2011-09-26T13:21:39.592661,4460,-0.194892,-0.225445,-0.143197,0.073011,0.025573,0.991253
2011-09-26T13:21:39.602661,4470,-0.219478,-0.231428,-0.158127,0.073232,0.025811,0.993284
2011-09-26T13:21:39.612661,4480,-0.244640,-0.236523,-0.173233,0.073450,0.026045,0.995342
2011-09-26T13:21:39.622661,4490,-0.269803,-0.241619,-0.188340,0.073667,0.026278,0.997399
2011-09-26T13:21:39.632661,4500,-0.294965,-0.246714,-0.203446,0.073885,0.026512,0.999457
2011-09-26T13:21:39.642661,4510,-0.320128,-0.251810,-0.218552,0.074103,0.026745,1.001514
2011-09-26T13:21:39.652661,4520,-0.345290,-0.256905,-0.233658,0.074321,0.026979,1.003572
2011-09-26T13:21:39.662661,4530,-0.370453,-0.262001,-0.248765,0.074539,0.027213,1.005630
2011-09-26T13:21:39.672661,4540,-0.395615,-0.267096,-0.263871,0.074756,0.027446,1.007687
2011-09-26T13:21:39.682661,4550,-0.420778,-0.272192,-0.278977,0.074974,0.027680,1.009745
2011-09-26T13:21:39.692661,4560,-0.445940,-0.277287,-0.294083,0.075192,0.027913,1.011802
2011-09-26T13:21:39.702661,4570,-0.441941,-0.247812,-0.298911,0.074611,0.027808,1.010749
2011-09-26T13:21:39.712661,4580,-0.437325,-0.217607,-0.303521,0.074013,0.027697,1.009630
2011-09-26T13:21:39.722661,4590,-0.432710,-0.187402,-0.308131,0.073415,0.027585,1.008511
2011-09-26T13:21:39.732661,4600,-0.428095,-0.157197,-0.312741,0.072817,0.027473,1.007393
2011-09-26T13:21:39.742661,4610,-0.423479,-0.126992,-0.317352,0.072219,0.027361,1.006274
2011-09-26T13:21:39.752661,4620,-0.418864,-0.096786,-0.321962,0.071621,0.027249,1.005155
2011-09-26T13:21:39.762661,4630,-0.414249,-0.066581,-0.326572,0.071023,0.027137,1.004037
2011-09-26T13:21:39.772661,4640,-0.409634,-0.036376,-0.331183,0.070425,0.027026,1.002918
2011-09-26T13:21:39.782661,4650,-0.405018,-0.006171,-0.335793,0.069827,0.026914,1.001799
2011-09-26T13:21:39.792661,4660,-0.400403,0.024034,-0.340403,0.069229,0.026802,1.000680
2011-09-26T13:21:39.802661,4670,-0.395788,0.054240,-0.345014,0.068631,0.026690,0.999562
2011-09-26T13:21:39.812661,4680,-0.399626,0.068585,-0.346942,0.067047,0.026387,0.999259
2011-09-26T13:21:39.822661,4690,-0.403666,0.082553,-0.348807,0.065439,0.026078,0.998977
2011-09-26T13:21:39.832661,4700,-0.407707,0.096520,-0.350671,0.063832,0.025770,0.998694
2011-09-26T13:21:39.842661,4710,-0.411747,0.110487,-0.352536,0.062225,0.025462,0.998412
2011-09-26T13:21:39.852661,4720,-0.415787,0.124455,-0.354401,0.060617,0.025154,0.998129
2011-09-26T13:21:39.862661,4730,-0.419827,0.138422,-0.356265,0.059010,0.024846,0.997846
2011-09-26T13:21:39.872661,4740,-0.423867,0.152389,-0.358130,0.057403,0.024538,0.997564
2011-09-26T13:21:39.882661,4750,-0.427907,0.166357,-0.359994,0.055795,0.024230,0.997281
2011-09-26T13:21:39.892661,4760,-0.431947,0.180324,-0.361859,0.054188,0.023922,0.996999
2011-09-26T13:21:39.902661,4770,-0.435987,0.194291,-0.363724,0.052580,0.023614,0.996716
2011-09-26T13:21:39.912661,4780,-0.425705,0.155320,-0.357292,0.053392,0.022649,0.996378
2011-09-26T13:21:39.922661,4790,-0.415124,0.115241,-0.350687,0.054255,0.021672,0.996038
2011-09-26T13:21:39.932661,4800,-0.404542,0.075162,-0.344083,0.055118,0.020694,0.995698
2011-09-26T13:21:39.942661,4810,-0.393961,0.035083,-0.337478,0.055981,0.019716,0.995359
2011-09-26T13:21:39.952661,4820,-0.383379,-0.004996,-0.330873,0.056843,0.018738,0.995019
2011-09-26T13:21:39.962661,4830,-0.372798,-0.045075,-0.324268,0.057706,0.017760,0.994680
2011-09-26T13:21:39.972661,4840,-0.362216,-0.085154,-0.317663,0.058569,0.016782,0.994340
2011-09-26T13:21:39.982661,4850,-0.351635,-0.125233,-0.311058,0.059431,0.015804,0.994000
2011-09-26T13:21:39.992661,4860,-0.341053,-0.165312,-0.304453,0.060294,0.014827,0.993661
2011-09-26T13:21:40.002661,4870,-0.330472,-0.205391,-0.297849,0.061157,0.013849,0.993321
2011-09-26T13:21:40.012661,4880,-0.309517,-0.222984,-0.297953,0.061462,0.014522,0.994166
2011-09-26T13:21:40.022661,4890,-0.288384,-0.240193,-0.298172,0.061757,0.015223,0.995032
2011-09-26T13:21:40.032661,4900,-0.267252,-0.257402,-0.298390,0.062053,0.015925,0.995898
2011-09-26T13:21:40.042661,4910,-0.246120,-0.274611,-0.298609,0.062348,0.016626,0.996763
2011-09-26T13:21:40.052661,4920,-0.224988,-0.291820,-0.298828,0.062643,0.017328,0.997629
2011-09-26T13:21:40.062661,4930,-0.203855,-0.309029,-0.299047,0.062939,0.018029,0.998495
2011-09-26T13:21:40.072661,4940,-0.182723,-0.326238,-0.299266,0.063234,0.018731,0.999360
2011-09-26T13:21:40.082661,4950,-0.161591,-0.343447,-0.299484,0.063530,0.019432,1.000226
2011-09-26T13:21:40.092661,4960,-0.140459,-0.360656,-0.299703,0.063825,0.020133,1.001092
2011-09-26T13:21:40.102661,4970,-0.119327,-0.377865,-0.299922,0.064121,0.020835,1.001957
2011-09-26T13:21:40.112661,4980,-0.088745,-0.322161,-0.300285,0.064730,0.021078,1.001793
2011-09-26T13:21:40.122661,4990,-0.057966,-0.264933,-0.300650,0.065346,0.021312,1.001608
2011-09-26T13:21:40.132661,5000,-0.027187,-0.207704,-0.301016,0.065962,0.021546,1.001422
2011-09-26T13:21:40.142661,5010,0.003593,-0.150476,-0.301381,0.066578,0.021780,1.001236
2011-09-26T13:21:40.152661,5020,0.034372,-0.093247,-0.301747,0.067193,0.022014,1.001051
2011-09-26T13:21:40.162661,5030,0.065151,-0.036019,-0.302113,0.067809,0.022248,1.000865
2011-09-26T13:21:40.172661,5040,0.095930,0.021210,-0.302478,0.068425,0.022482,1.000679
2011-09-26T13:21:40.182661,5050,0.126710,0.078438,-0.302844,0.069041,0.022716,1.000494
2011-09-26T13:21:40.192661,5060,0.157489,0.135667,-0.303209,0.069657,0.022950,1.000308
2011-09-26T13:21:40.202661,5070,0.188268,0.192895,-0.303575,0.070273,0.023184,1.000123
2011-09-26T13:21:40.212661,5080,0.219047,0.250124,-0.303941,0.070889,0.023418,0.999937
2011-09-26T13:21:40.222661,5090,0.209894,0.258289,-0.294436,0.070477,0.022313,0.999908
2011-09-26T13:21:40.232661,5100,0.199319,0.264706,-0.284580,0.070028,0.021160,0.999885
2011-09-26T13:21:40.242661,5110,0.188744,0.271123,-0.274724,0.069580,0.020008,0.999862
2011-09-26T13:21:40.252661,5120,0.178169,0.277540,-0.264868,0.069131,0.018855,0.999838
2011-09-26T13:21:40.262661,5130,0.167593,0.283957,-0.255011,0.068683,0.017702,0.999815
2011-09-26T13:21:40.272661,5140,0.157018,0.290374,-0.245155,0.068234,0.016549,0.999792
2011-09-26T13:21:40.282661,5150,0.146443,0.296791,-0.235299,0.067785,0.015396,0.999769
2011-09-26T13:21:40.292661,5160,0.135868,0.303208,-0.225443,0.067337,0.014244,0.999745
2011-09-26T13:21:40.302661,5170,0.125292,0.309625,-0.215587,0.066888,0.013091,0.999722
2011-09-26T13:21:40.312661,5180,0.114717,0.316042,-0.205730,0.066440,0.011938,0.999699
2011-09-26T13:21:40.322661,5190,0.124850,0.302108,-0.181714,0.065996,0.011588,0.998364
2011-09-26T13:21:40.332661,5200,0.135504,0.287664,-0.157343,0.065553,0.011259,0.996996
2011-09-26T13:21:40.342661,5210,0.146157,0.273219,-0.132971,0.065110,0.010930,0.995627
2011-09-26T13:21:40.352661,5220,0.156810,0.258774,-0.108599,0.064667,0.010600,0.994259
2011-09-26T13:21:40.362661,5230,0.167463,0.244329,-0.084228,0.064224,0.010271,0.992891
2011-09-26T13:21:40.372661,5240,0.178116,0.229884,-0.059856,0.063781,0.009941,0.991523
2011-09-26T13:21:40.382661,5250,0.188770,0.215439,-0.035484,0.063338,0.009612,0.990154
2011-09-26T13:21:40.392661,5260,0.199423,0.200995,-0.011113,0.062895,0.009282,0.988786
2011-09-26T13:21:40.402661,5270,0.210076,0.186550,0.013259,0.062452,0.008953,0.987418
2011-09-26T13:21:40.412661,5280,0.220729,0.172105,0.037631,0.062009,0.008624,0.986050
2011-09-26T13:21:40.422661,5290,0.251787,0.142962,0.066893,0.060947,0.011427,0.986745
2011-09-26T13:21:40.432661,5300,0.283310,0.113484,0.096267,0.059870,0.014302,0.987487
2011-09-26T13:21:40.442661,5310,0.314833,0.084005,0.125641,0.058793,0.017176,0.988229
2011-09-26T13:21:40.452661,5320,0.346356,0.054527,0.155015,0.057717,0.020051,0.988971
2011-09-26T13:21:40.462661,5330,0.377879,0.025049,0.184389,0.056640,0.022926,0.989713
2011-09-26T13:21:40.472661,5340,0.409402,-0.004429,0.213763,0.055563,0.025801,0.990455
2011-09-26T13:21:40.482661,5350,0.440924,-0.033908,0.243137,0.054487,0.028675,0.991197
2011-09-26T13:21:40.492661,5360,0.472447,-0.063386,0.272511,0.053410,0.031550,0.991939
2011-09-26T13:21:40.502661,5370,0.503970,-0.092864,0.301885,0.052333,0.034425,0.992681
2011-09-26T13:21:40.512661,5380,0.535493,-0.122342,0.331259,0.051257,0.037300,0.993423
2011-09-26T13:21:40.522661,5390,0.567016,-0.151821,0.360633,0.050180,0.040174,0.994165
2011-09-26T13:21:40.532661,5400,0.570190,-0.167299,0.378367,0.051930,0.040144,0.995020
2011-09-26T13:21:40.542661,5410,0.572751,-0.182474,0.395849,0.053742,0.040050,0.995878
2011-09-26T13:21:40.552661,5420,0.575312,-0.197649,0.413330,0.055553,0.039957,0.996736
2011-09-26T13:21:40.562661,5430,0.577872,-0.212824,0.430812,0.057365,0.039863,0.997593
2011-09-26T13:21:40.572661,5440,0.580433,-0.227999,0.448294,0.059176,0.039770,0.998451
2011-09-26T13:21:40.582661,5450,0.582994,-0.243174,0.465775,0.060987,0.039676,0.999309
2011-09-26T13:21:40.592661,5460,0.585554,-0.258349,0.483257,0.062799,0.039582,1.000167
2011-09-26T13:21:40.602661,5470,0.588115,-0.273524,0.500739,0.064610,0.039489,1.001024
2011-09-26T13:21:40.612661,5480,0.590675,-0.288699,0.518220,0.066422,0.039395,1.001882
2011-09-26T13:21:40.622661,5490,0.593236,-0.303874,0.535702,0.068233,0.039302,1.002740
2011-09-26T13:21:40.632661,5500,0.571071,-0.260137,0.546204,0.068100,0.038879,1.001831
2011-09-26T13:21:40.642661,5510,0.548321,-0.215010,0.556541,0.067922,0.038449,1.000881
2011-09-26T13:21:40.652661,5520,0.525572,-0.169882,0.566878,0.067743,0.038019,0.999931
2011-09-26T13:21:40.662661,5530,0.502822,-0.124755,0.577214,0.067565,0.037588,0.998981
2011-09-26T13:21:40.672661,5540,0.480073,-0.079627,0.587551,0.067386,0.037158,0.998031
2011-09-26T13:21:40.682661,5550,0.457324,-0.034500,0.597888,0.067208,0.036728,0.997081
2011-09-26T13:21:40.692661,5560,0.434574,0.010628,0.608225,0.067029,0.036297,0.996131
2011-09-26T13:21:40.702661,5570,0.411825,0.055756,0.618562,0.066851,0.035867,0.995181
2011-09-26T13:21:40.712661,5580,0.389076,0.100883,0.628899,0.066672,0.035437,0.994231
2011-09-26T13:21:40.722661,5590,0.366326,0.146011,0.639236,0.066494,0.035006,0.993281
2011-09-26T13:21:40.732661,5600,0.343577,0.191138,0.649573,0.066315,0.034576,0.992331
2011-09-26T13:21:40.742661,5610,0.369314,0.207238,0.641253,0.065804,0.035779,0.992833
2011-09-26T13:21:40.752661,5620,0.397054,0.222139,0.632163,0.065279,0.037049,0.993395
2011-09-26T13:21:40.762661,5630,0.424794,0.237040,0.623073,0.064754,0.038319,0.993957
2011-09-26T13:21:40.772661,5640,0.452534,0.251940,0.613982,0.064229,0.039590,0.994519
2011-09-26T13:21:40.782661,5650,0.480275,0.266841,0.604892,0.063704,0.040860,0.995081
2011-09-26T13:21:40.792661,5660,0.508015,0.281742,0.595801,0.063179,0.042130,0.995643
2011-09-26T13:21:40.802661,5670,0.535755,0.296643,0.586711,0.062654,0.043400,0.996206
2011-09-26T13:21:40.812661,5680,0.563495,0.311543,0.577621,0.062129,0.044670,0.996768
2011-09-26T13:21:40.822661,5690,0.591235,0.326444,0.568530,0.061604,0.045941,0.997330
2011-09-26T13:21:40.832661,5700,0.618975,0.341345,0.559440,0.061079,0.047211,0.997892
2011-09-26T13:21:40.842661,5710,0.638688,0.373154,0.573351,0.060216,0.048227,0.997801
2011-09-26T13:21:40.852661,5720,0.658204,0.405377,0.587824,0.059344,0.049238,0.997694
2011-09-26T13:21:40.862661,5730,0.677720,0.437600,0.602298,0.058472,0.050248,0.997587
2011-09-26T13:21:40.872661,5740,0.697236,0.469823,0.616772,0.057600,0.051258,0.997480
2011-09-26T13:21:40.882661,5750,0.716752,0.502046,0.631246,0.056728,0.052268,0.997374
2011-09-26T13:21:40.892661,5760,0.736267,0.534269,0.645720,0.055856,0.053279,0.997267
2011-09-26T13:21:40.902661,5770,0.755783,0.566493,0.660194,0.054984,0.054289,0.997160
2011-09-26T13:21:40.912661,5780,0.775299,0.598716,0.674668,0.054112,0.055299,0.997053
2011-09-26T13:21:40.922661,5790,0.794815,0.630939,0.689142,0.053240,0.056309,0.996946
2011-09-26T13:21:40.932661,5800,0.814331,0.663162,0.703616,0.052368,0.057319,0.996839
2011-09-26T13:21:40.942661,5810,0.833847,0.695385,0.718090,0.051496,0.058330,0.996732
2011-09-26T13:21:40.952661,5820,0.866755,0.638819,0.723744,0.051500,0.057395,0.996313
2011-09-26T13:21:40.962661,5830,0.899984,0.580126,0.729188,0.051526,0.056413,0.995886
2011-09-26T13:21:40.972661,5840,0.933213,0.521434,0.734631,0.051552,0.055432,0.995459
2011-09-26T13:21:40.982661,5850,0.966442,0.462741,0.740074,0.051577,0.054451,0.995032
2011-09-26T13:21:40.992661,5860,0.999671,0.404048,0.745517,0.051603,0.053469,0.994606
2011-09-26T13:21:41.002661,5870,1.032900,0.345356,0.750961,0.051628,0.052488,0.994179
2011-09-26T13:21:41.012661,5880,1.066128,0.286663,0.756404,0.051654,0.051506,0.993752
2011-09-26T13:21:41.022661,5890,1.099357,0.227970,0.761847,0.051680,0.050525,0.993325
2011-09-26T13:21:41.032661,5900,1.132586,0.169278,0.767290,0.051705,0.049544,0.992898
2011-09-26T13:21:41.042661,5910,1.165815,0.110585,0.772733,0.051731,0.048562,0.992471
2011-09-26T13:21:41.052661,5920,1.158633,0.117505,0.781153,0.052239,0.049609,0.992624
2011-09-26T13:21:41.062661,5930,1.150606,0.125797,0.789636,0.052758,0.050699,0.992790
2011-09-26T13:21:41.072661,5940,1.142579,0.134089,0.798118,0.053277,0.051788,0.992955
2011-09-26T13:21:41.082661,5950,1.134552,0.142381,0.806600,0.053795,0.052878,0.993120
2011-09-26T13:21:41.092661,5960,1.126525,0.150673,0.815082,0.054314,0.053967,0.993286
2011-09-26T13:21:41.102661,5970,1.118498,0.158965,0.823564,0.054833,0.055057,0.993451
2011-09-26T13:21:41.112661,5980,1.110472,0.167257,0.832046,0.055352,0.056146,0.993616
2011-09-26T13:21:41.122661,5990,1.102445,0.175549,0.840529,0.055870,0.057236,0.993782
2011-09-26T13:21:41.132661,6000,1.094418,0.183841,0.849011,0.056389,0.058325,0.993947
2011-09-26T13:21:41.142661,6010,1.086391,0.192133,0.857493,0.056908,0.059415,0.994112
2011-09-26T13:21:41.152661,6020,1.079901,0.200753,0.855251,0.057135,0.060470,0.994927
2011-09-26T13:21:41.162661,6030,1.073442,0.209379,0.852788,0.057356,0.061525,0.995754
2011-09-26T13:21:41.172661,6040,1.066984,0.218005,0.850326,0.057577,0.062580,0.996582
2011-09-26T13:21:41.182661,6050,1.060526,0.226631,0.847863,0.057799,0.063635,0.997410
2011-09-26T13:21:41.192661,6060,1.054067,0.235257,0.845400,0.058020,0.064689,0.998237
2011-09-26T13:21:41.202661,6070,1.047609,0.243883,0.842938,0.058241,0.065744,0.999065
2011-09-26T13:21:41.212661,6080,1.041151,0.252509,0.840475,0.058462,0.066799,0.999893
2011-09-26T13:21:41.222661,6090,1.034692,0.261135,0.838012,0.058684,0.067853,1.000721
2011-09-26T13:21:41.232661,6100,1.028234,0.269761,0.835549,0.058905,0.068908,1.001548
2011-09-26T13:21:41.242661,6110,1.021775,0.278387,0.833087,0.059126,0.069963,1.002376
2011-09-26T13:21:41.252661,6120,0.986653,0.260438,0.829392,0.058816,0.069285,1.000976
2011-09-26T13:21:41.262661,6130,0.950090,0.241152,0.825635,0.058479,0.068520,0.999464
2011-09-26T13:21:41.272661,6140,0.913527,0.221866,0.821879,0.058142,0.067755,0.997952
2011-09-26T13:21:41.282661,6150,0.876963,0.202581,0.818122,0.057805,0.066990,0.996440
2011-09-26T13:21:41.292661,6160,0.840400,0.183295,0.814365,0.057468,0.066225,0.994928
2011-09-26T13:21:41.302661,6170,0.803837,0.164009,0.810609,0.057131,0.065460,0.993416
2011-09-26T13:21:41.312661,6180,0.767273,0.144724,0.806852,0.056794,0.064695,0.991904
2011-09-26T13:21:41.322661,6190,0.730710,0.125438,0.803095,0.056457,0.063930,0.990392
2011-09-26T13:21:41.332661,6200,0.694147,0.106152,0.799339,0.056120,0.063166,0.988880
2011-09-26T13:21:41.342661,6210,0.657583,0.086867,0.795582,0.055783,0.062401,0.987368
2011-09-26T13:21:41.352661,6220,0.621020,0.067581,0.791826,0.055447,0.061636,0.985856
2011-09-26T13:21:41.362661,6230,0.611711,0.072221,0.794435,0.055120,0.062749,0.985751
2011-09-26T13:21:41.372661,6240,0.603227,0.077586,0.797237,0.054795,0.063919,0.985689
2011-09-26T13:21:41.382661,6250,0.594744,0.082951,0.800040,0.054469,0.065090,0.985628
2011-09-26T13:21:41.392661,6260,0.586260,0.088316,0.802842,0.054143,0.066260,0.985566
2011-09-26T13:21:41.402661,6270,0.577776,0.093681,0.805644,0.053817,0.067430,0.985504
2011-09-26T13:21:41.412661,6280,0.569293,0.099046,0.808447,0.053491,0.068601,0.985442
2011-09-26T13:21:41.422661,6290,0.560809,0.104411,0.811249,0.053165,0.069771,0.985381
2011-09-26T13:21:41.432661,6300,0.552325,0.109775,0.814051,0.052839,0.070941,0.985319
2011-09-26T13:21:41.442661,6310,0.543842,0.115140,0.816854,0.052514,0.072112,0.985257
2011-09-26T13:21:41.452661,6320,0.535358,0.120505,0.819656,0.052188,0.073282,0.985195
2011-09-26T13:21:41.462661,6330,0.534068,0.102052,0.813984,0.052624,0.072705,0.987170
2011-09-26T13:21:41.472661,6340,0.532938,0.083065,0.808123,0.053078,0.072088,0.989191
2011-09-26T13:21:41.482661,6350,0.531808,0.064079,0.802261,0.053532,0.071472,0.991211
2011-09-26T13:21:41.492661,6360,0.530678,0.045093,0.796400,0.053986,0.070855,0.993231
2011-09-26T13:21:41.502661,6370,0.529549,0.026107,0.790539,0.054439,0.070239,0.995252
2011-09-26T13:21:41.512661,6380,0.528419,0.007121,0.784677,0.054893,0.069623,0.997272
2011-09-26T13:21:41.522661,6390,0.527289,-0.011866,0.778816,0.055347,0.069006,0.999293
2011-09-26T13:21:41.532661,6400,0.526159,-0.030852,0.772955,0.055801,0.068390,1.001313
2011-09-26T13:21:41.542661,6410,0.525029,-0.049838,0.767093,0.056254,0.067773,1.003334
2011-09-26T13:21:41.552661,6420,0.523900,-0.068824,0.761232,0.056708,0.067157,1.005354
2011-09-26T13:21:41.562661,6430,0.524407,-0.087949,0.747539,0.056741,0.066740,1.004900
2011-09-26T13:21:41.572661,6440,0.524954,-0.107077,0.733652,0.056763,0.066328,1.004386
2011-09-26T13:21:41.582661,6450,0.525502,-0.126206,0.719766,0.056785,0.065916,1.003871
2011-09-26T13:21:41.592661,6460,0.526049,-0.145334,0.705879,0.056807,0.065504,1.003356
2011-09-26T13:21:41.602661,6470,0.526596,-0.164462,0.691992,0.056829,0.065092,1.002841
2011-09-26T13:21:41.612661,6480,0.527144,-0.183591,0.678106,0.056851,0.064680,1.002326
2011-09-26T13:21:41.622661,6490,0.527691,-0.202719,0.664219,0.056874,0.064267,1.001811
2011-09-26T13:21:41.632661,6500,0.528239,-0.221847,0.650332,0.056896,0.063855,1.001296
2011-09-26T13:21:41.642661,6510,0.528786,-0.240975,0.636446,0.056918,0.063443,1.000782
2011-09-26T13:21:41.652661,6520,0.529334,-0.260104,0.622559,0.056940,0.063031,1.000267
2011-09-26T13:21:41.662661,6530,0.529881,-0.279232,0.608672,0.056962,0.062619,0.999752
2011-09-26T13:21:41.672661,6540,0.498324,-0.282861,0.586475,0.057048,0.063689,0.999302
2011-09-26T13:21:41.682661,6550,0.465837,-0.286041,0.564036,0.057135,0.064803,0.998853
2011-09-26T13:21:41.692661,6560,0.433350,-0.289221,0.541598,0.057223,0.065916,0.998404
2011-09-26T13:21:41.702661,6570,0.400863,-0.292400,0.519159,0.057311,0.067029,0.997956
2011-09-26T13:21:41.712661,6580,0.368376,-0.295580,0.496720,0.057398,0.068143,0.997507
2011-09-26T13:21:41.722661,6590,0.335889,-0.298760,0.474282,0.057486,0.069256,0.997059
2011-09-26T13:21:41.732661,6600,0.303401,-0.301940,0.451843,0.057573,0.070369,0.996610
2011-09-26T13:21:41.742661,6610,0.270914,-0.305120,0.429405,0.057661,0.071483,0.996162
2011-09-26T13:21:41.752661,6620,0.238427,-0.308299,0.406966,0.057748,0.072596,0.995713
2011-09-26T13:21:41.762661,6630,0.205940,-0.311479,0.384527,0.057836,0.073709,0.995265
2011-09-26T13:21:41.772661,6640,0.173453,-0.314659,0.362089,0.057923,0.074823,0.994816
2011-09-26T13:21:41.782661,6650,0.136304,-0.338222,0.325199,0.057656,0.074767,0.997012
2011-09-26T13:21:41.792661,6660,0.099001,-0.362455,0.287833,0.057377,0.074673,0.999295
2011-09-26T13:21:41.802661,6670,0.061699,-0.386689,0.250467,0.057098,0.074579,1.001577
2011-09-26T13:21:41.812661,6680,0.024397,-0.410923,0.213101,0.056819,0.074485,1.003860
2011-09-26T13:21:41.822661,6690,-0.012906,-0.435157,0.175735,0.056540,0.074391,1.006143
2011-09-26T13:21:41.832661,6700,-0.050208,-0.459391,0.138369,0.056261,0.074297,1.008425
2011-09-26T13:21:41.842661,6710,-0.087510,-0.483625,0.101003,0.055982,0.074202,1.010708
2011-09-26T13:21:41.852661,6720,-0.124813,-0.507859,0.063637,0.055703,0.074108,1.012991
2011-09-26T13:21:41.862661,6730,-0.162115,-0.532093,0.026271,0.055424,0.074014,1.015274
2011-09-26T13:21:41.872661,6740,-0.182112,-0.535536,-0.002737,0.055956,0.070255,1.017109
2011-09-26T13:21:41.882661,6750,-0.201592,-0.538358,-0.031496,0.056513,0.066386,1.018932
2011-09-26T13:21:41.892661,6760,-0.221073,-0.541180,-0.060255,0.057070,0.062517,1.020754
2011-09-26T13:21:41.902661,6770,-0.240553,-0.544003,-0.089013,0.057627,0.058648,1.022576
2011-09-26T13:21:41.912661,6780,-0.260033,-0.546825,-0.117772,0.058184,0.054779,1.024398
2011-09-26T13:21:41.922661,6790,-0.279514,-0.549647,-0.146531,0.058741,0.050910,1.026221
2011-09-26T13:21:41.932661,6800,-0.298994,-0.552469,-0.175290,0.059298,0.047041,1.028043
2011-09-26T13:21:41.942661,6810,-0.318474,-0.555292,-0.204049,0.059855,0.043172,1.029865
2011-09-26T13:21:41.952661,6820,-0.337955,-0.558114,-0.232807,0.060412,0.039303,1.031688
2011-09-26T13:21:41.962661,6830,-0.357435,-0.560936,-0.261566,0.060969,0.035434,1.033510
2011-09-26T13:21:41.972661,6840,-0.376915,-0.563759,-0.290325,0.061526,0.031566,1.035332
2011-09-26T13:21:41.982661,6850,-0.361529,-0.526343,-0.303700,0.061184,0.030230,1.032356
2011-09-26T13:21:41.992661,6860,-0.345177,-0.487811,-0.316648,0.060818,0.028964,1.029247
2011-09-26T13:21:42.002661,6870,-0.328824,-0.449279,-0.329596,0.060452,0.027698,1.026137
2011-09-26T13:21:42.012661,6880,-0.312472,-0.410748,-0.342545,0.060086,0.026432,1.023028
2011-09-26T13:21:42.022661,6890,-0.296119,-0.372216,-0.355493,0.059719,0.025166,1.019919
2011-09-26T13:21:42.032661,6900,-0.279767,-0.333685,-0.368441,0.059353,0.023901,1.016809
2011-09-26T13:21:42.042661,6910,-0.263414,-0.295153,-0.381389,0.058987,0.022635,1.013700
2011-09-26T13:21:42.052661,6920,-0.247062,-0.256622,-0.394338,0.058621,0.021369,1.010591
2011-09-26T13:21:42.062661,6930,-0.230709,-0.218090,-0.407286,0.058255,0.020103,1.007481
2011-09-26T13:21:42.072661,6940,-0.214356,-0.179559,-0.420234,0.057889,0.018838,1.004372
2011-09-26T13:21:42.082661,6950,-0.222676,-0.200128,-0.429684,0.056832,0.017948,1.004311
2011-09-26T13:21:42.092661,6960,-0.231845,-0.222733,-0.439014,0.055752,0.017072,1.004354
2011-09-26T13:21:42.102661,6970,-0.241014,-0.245337,-0.448344,0.054672,0.016196,1.004398
2011-09-26T13:21:42.112661,6980,-0.250182,-0.267941,-0.457673,0.053592,0.015320,1.004441
2011-09-26T13:21:42.122661,6990,-0.259351,-0.290545,-0.467003,0.052512,0.014443,1.004485
2011-09-26T13:21:42.132661,7000,-0.268520,-0.313149,-0.476333,0.051432,0.013567,1.004529
2011-09-26T13:21:42.142661,7010,-0.277689,-0.335754,-0.485663,0.050352,0.012691,1.004572
2011-09-26T13:21:42.152661,7020,-0.286857,-0.358358,-0.494993,0.049272,0.011815,1.004616
2011-09-26T13:21:42.162661,7030,-0.296026,-0.380962,-0.504322,0.048192,0.010938,1.004659
2011-09-26T13:21:42.172661,7040,-0.305195,-0.403566,-0.513652,0.047112,0.010062,1.004703
2011-09-26T13:21:42.182661,7050,-0.314364,-0.426170,-0.522982,0.046032,0.009186,1.004747
2011-09-26T13:21:42.192661,7060,-0.250945,-0.474792,-0.535678,0.047396,0.010540,1.004869
2011-09-26T13:21:42.202661,7070,-0.185220,-0.524240,-0.548482,0.048839,0.011966,1.004993
2011-09-26T13:21:42.212661,7080,-0.119495,-0.573688,-0.561285,0.050281,0.013391,1.005118
2011-09-26T13:21:42.222661,7090,-0.053770,-0.623136,-0.574089,0.051723,0.014817,1.005243
2011-09-26T13:21:42.232661,7100,0.011955,-0.672583,-0.586893,0.053165,0.016243,1.005367
2011-09-26T13:21:42.242661,7110,0.077679,-0.722031,-0.599696,0.054608,0.017668,1.005492
2011-09-26T13:21:42.252661,7120,0.143404,-0.771479,-0.612500,0.056050,0.019094,1.005617
2011-09-26T13:21:42.262661,7130,0.209129,-0.820927,-0.625303,0.057492,0.020519,1.005741
2011-09-26T13:21:42.272661,7140,0.274854,-0.870375,-0.638107,0.058935,0.021945,1.005866
2011-09-26T13:21:42.282661,7150,0.340579,-0.919823,-0.650910,0.060377,0.023370,1.005991
2011-09-26T13:21:42.292661,7160,0.274716,-0.839518,-0.654195,0.060038,0.021060,1.007124
2011-09-26T13:21:42.302661,7170,0.204297,-0.754720,-0.657150,0.059638,0.018620,1.008293
2011-09-26T13:21:42.312661,7180,0.133878,-0.669923,-0.660105,0.059238,0.016181,1.009462
2011-09-26T13:21:42.322661,7190,0.063459,-0.585125,-0.663060,0.058838,0.013741,1.010630
2011-09-26T13:21:42.332661,7200,-0.006960,-0.500327,-0.666015,0.058438,0.011301,1.011799
2011-09-26T13:21:42.342661,7210,-0.077379,-0.415529,-0.668970,0.058038,0.008861,1.012968
2011-09-26T13:21:42.352661,7220,-0.147798,-0.330731,-0.671925,0.057638,0.006422,1.014136
2011-09-26T13:21:42.362661,7230,-0.218217,-0.245933,-0.674880,0.057237,0.003982,1.015305
2011-09-26T13:21:42.372661,7240,-0.288636,-0.161135,-0.677835,0.056837,0.001542,1.016474
2011-09-26T13:21:42.382661,7250,-0.359055,-0.076337,-0.680790,0.056437,-0.000897,1.017642
2011-09-26T13:21:42.392661,7260,-0.322039,-0.070860,-0.680882,0.056206,0.000564,1.016674
2011-09-26T13:21:42.402661,7270,-0.281507,-0.067980,-0.680880,0.055979,0.002152,1.015636
2011-09-26T13:21:42.412661,7280,-0.240975,-0.065099,-0.680877,0.055753,0.003740,1.014598
2011-09-26T13:21:42.422661,7290,-0.200443,-0.062219,-0.680875,0.055527,0.005329,1.013560
2011-09-26T13:21:42.432661,7300,-0.159910,-0.059338,-0.680873,0.055301,0.006917,1.012522
2011-09-26T13:21:42.442661,7310,-0.119378,-0.056457,-0.680871,0.055075,0.008505,1.011484
2011-09-26T13:21:42.452661,7320,-0.078846,-0.053577,-0.680868,0.054849,0.010094,1.010446
2011-09-26T13:21:42.462661,7330,-0.038314,-0.050696,-0.680866,0.054623,0.011682,1.009408
2011-09-26T13:21:42.472661,7340,0.002218,-0.047815,-0.680864,0.054397,0.013271,1.008370
2011-09-26T13:21:42.482661,7350,0.042750,-0.044935,-0.680862,0.054171,0.014859,1.007332
2011-09-26T13:21:42.492661,7360,0.083282,-0.042054,-0.680859,0.053945,0.016447,1.006294
2011-09-26T13:21:42.502661,7370,0.124237,0.034689,-0.675000,0.054895,0.018270,1.007395
2011-09-26T13:21:42.512661,7380,0.165203,0.113559,-0.668972,0.055878,0.020100,1.008558
2011-09-26T13:21:42.522661,7390,0.206170,0.192429,-0.662944,0.056861,0.021929,1.009720
2011-09-26T13:21:42.532661,7400,0.247137,0.271298,-0.656916,0.057845,0.023759,1.010882
2011-09-26T13:21:42.542661,7410,0.288103,0.350168,-0.650887,0.058828,0.025589,1.012045
2011-09-26T13:21:42.552661,7420,0.329070,0.429037,-0.644859,0.059811,0.027418,1.013207
2011-09-26T13:21:42.562661,7430,0.370036,0.507907,-0.638831,0.060795,0.029248,1.014369
2011-09-26T13:21:42.572661,7440,0.411003,0.586777,-0.632803,0.061778,0.031078,1.015532
2011-09-26T13:21:42.582661,7450,0.451969,0.665646,-0.626775,0.062762,0.032907,1.016694
2011-09-26T13:21:42.592661,7460,0.492936,0.744516,-0.620747,0.063745,0.034737,1.017856
2011-09-26T13:21:42.602661,7470,0.500935,0.794010,-0.613638,0.062252,0.032639,1.012946
2011-09-26T13:21:42.612661,7480,0.507873,0.842560,-0.606493,0.060679,0.030415,1.007839
2011-09-26T13:21:42.622661,7490,0.514810,0.891109,-0.599349,0.059107,0.028190,1.002733
2011-09-26T13:21:42.632661,7500,0.521748,0.939659,-0.592205,0.057534,0.025966,0.997627
2011-09-26T13:21:42.642661,7510,0.528686,0.988208,-0.585061,0.055961,0.023742,0.992520
2011-09-26T13:21:42.652661,7520,0.535624,1.036758,-0.577917,0.054388,0.021517,0.987414
2011-09-26T13:21:42.662661,7530,0.542562,1.085307,-0.570773,0.052816,0.019293,0.982308
2011-09-26T13:21:42.672661,7540,0.549500,1.133857,-0.563628,0.051243,0.017069,0.977202
2011-09-26T13:21:42.682661,7550,0.556437,1.182406,-0.556484,0.049670,0.014844,0.972095
2011-09-26T13:21:42.692661,7560,0.563375,1.230955,-0.549340,0.048097,0.012620,0.966989
2011-09-26T13:21:42.702661,7570,0.573831,1.129765,-0.547657,0.048980,0.013662,0.966646
2011-09-26T13:21:42.712661,7580,0.584403,1.023596,-0.546155,0.049944,0.014812,0.966462
2011-09-26T13:21:42.722661,7590,0.594976,0.917427,-0.544653,0.050908,0.015962,0.966278
2011-09-26T13:21:42.732661,7600,0.605548,0.811258,-0.543151,0.051872,0.017112,0.966094
2011-09-26T13:21:42.742661,7610,0.616121,0.705090,-0.541649,0.052836,0.018262,0.965909
2011-09-26T13:21:42.752661,7620,0.626693,0.598921,-0.540147,0.053800,0.019413,0.965725
2011-09-26T13:21:42.762661,7630,0.637266,0.492752,-0.538645,0.054764,0.020563,0.965541
2011-09-26T13:21:42.772661,7640,0.647838,0.386583,-0.537143,0.055728,0.021713,0.965356
2011-09-26T13:21:42.782661,7650,0.658411,0.280414,-0.535641,0.056692,0.022863,0.965172
2011-09-26T13:21:42.792661,7660,0.668983,0.174245,-0.534139,0.057656,0.024013,0.964988
2011-09-26T13:21:42.802661,7670,0.679555,0.068076,-0.532637,0.058620,0.025164,0.964804
2011-09-26T13:21:42.812661,7680,0.706960,0.033149,-0.510306,0.058694,0.024648,0.968936
2011-09-26T13:21:42.822661,7690,0.735045,0.001105,-0.487131,0.058731,0.024065,0.973243
2011-09-26T13:21:42.832661,7700,0.763130,-0.030939,-0.463956,0.058769,0.023482,0.977550
2011-09-26T13:21:42.842661,7710,0.791215,-0.062983,-0.440782,0.058806,0.022899,0.981857
2011-09-26T13:21:42.852661,7720,0.819300,-0.095027,-0.417607,0.058843,0.022316,0.986164
2011-09-26T13:21:42.862661,7730,0.847385,-0.127071,-0.394433,0.058881,0.021733,0.990471
2011-09-26T13:21:42.872661,7740,0.875471,-0.159115,-0.371258,0.058918,0.021150,0.994778
2011-09-26T13:21:42.882661,7750,0.903556,-0.191159,-0.348084,0.058955,0.020567,0.999085
2011-09-26T13:21:42.892661,7760,0.931641,-0.223203,-0.324909,0.058993,0.019984,1.003392
2011-09-26T13:21:42.902661,7770,0.959726,-0.255248,-0.301734,0.059030,0.019401,1.007699
2011-09-26T13:21:42.912661,7780,0.976369,-0.236411,-0.282270,0.058054,0.021311,1.006489
2011-09-26T13:21:42.922661,7790,0.992580,-0.215654,-0.262947,0.057040,0.023315,1.005070
2011-09-26T13:21:42.932661,7800,1.008790,-0.194896,-0.243623,0.056025,0.025319,1.003652
2011-09-26T13:21:42.942661,7810,1.025001,-0.174139,-0.224299,0.055011,0.027323,1.002234
2011-09-26T13:21:42.952661,7820,1.041212,-0.153382,-0.204975,0.053996,0.029327,1.000816
2011-09-26T13:21:42.962661,7830,1.057423,-0.132624,-0.185651,0.052982,0.031331,0.999397
2011-09-26T13:21:42.972661,7840,1.073634,-0.111867,-0.166328,0.051968,0.033335,0.997979
2011-09-26T13:21:42.982661,7850,1.089844,-0.091110,-0.147004,0.050953,0.035339,0.996561
2011-09-26T13:21:42.992661,7860,1.106055,-0.070352,-0.127680,0.049939,0.037343,0.995143
2011-09-26T13:21:43.002661,7870,1.122266,-0.049595,-0.108356,0.048924,0.039347,0.993725
2011-09-26T13:21:43.012661,7880,1.138477,-0.028838,-0.089032,0.047910,0.041351,0.992306
2011-09-26T13:21:43.022661,7890,1.114418,-0.053052,-0.069568,0.048610,0.041979,0.993336
2011-09-26T13:21:43.032661,7900,1.088903,-0.078892,-0.050098,0.049373,0.042559,0.994453
2011-09-26T13:21:43.042661,7910,1.063388,-0.104733,-0.030629,0.050135,0.043138,0.995571
2011-09-26T13:21:43.052661,7920,1.037873,-0.130573,-0.011159,0.050898,0.043717,0.996689
2011-09-26T13:21:43.062661,7930,1.012359,-0.156413,0.008311,0.051660,0.044296,0.997807
2011-09-26T13:21:43.072661,7940,0.986844,-0.182253,0.027780,0.052422,0.044875,0.998925
2011-09-26T13:21:43.082661,7950,0.961329,-0.208093,0.047250,0.053185,0.045454,1.000042
2011-09-26T13:21:43.092661,7960,0.935814,-0.233934,0.066720,0.053947,0.046033,1.001160
2011-09-26T13:21:43.102661,7970,0.910300,-0.259774,0.086189,0.054709,0.046613,1.002278
2011-09-26T13:21:43.112661,7980,0.884785,-0.285614,0.105659,0.055472,0.047192,1.003396
2011-09-26T13:21:43.122661,7990,0.875286,-0.225762,0.112245,0.055967,0.048174,1.004212
2011-09-26T13:21:43.132661,8000,0.866369,-0.162803,0.118363,0.056452,0.049171,1.005018
2011-09-26T13:21:43.142661,8010,0.857451,-0.099844,0.124482,0.056938,0.050169,1.005823
2011-09-26T13:21:43.152661,8020,0.848533,-0.036886,0.130601,0.057423,0.051166,1.006629
2011-09-26T13:21:43.162661,8030,0.839615,0.026073,0.136719,0.057909,0.052163,1.007434
2011-09-26T13:21:43.172661,8040,0.830697,0.089032,0.142838,0.058394,0.053160,1.008240
2011-09-26T13:21:43.182661,8050,0.821780,0.151990,0.148956,0.058879,0.054157,1.009045
2011-09-26T13:21:43.192661,8060,0.812862,0.214949,0.155075,0.059365,0.055154,1.009851
2011-09-26T13:21:43.202661,8070,0.803944,0.277908,0.161194,0.059850,0.056152,1.010656
2011-09-26T13:21:43.212661,8080,0.795026,0.340867,0.167312,0.060336,0.057149,1.011462
2011-09-26T13:21:43.222661,8090,0.760400,0.385159,0.167601,0.060446,0.057683,1.009451
2011-09-26T13:21:43.232661,8100,0.724744,0.428704,0.167656,0.060542,0.058200,1.007327
2011-09-26T13:21:43.242661,8110,0.689088,0.472250,0.167710,0.060638,0.058716,1.005203
2011-09-26T13:21:43.252661,8120,0.653432,0.515795,0.167765,0.060733,0.059232,1.003079
2011-09-26T13:21:43.262661,8130,0.617776,0.559340,0.167820,0.060829,0.059748,1.000956
2011-09-26T13:21:43.272661,8140,0.582120,0.602885,0.167875,0.060925,0.060265,0.998832
2011-09-26T13:21:43.282661,8150,0.546465,0.646430,0.167930,0.061020,0.060781,0.996708
2011-09-26T13:21:43.292661,8160,0.510809,0.689975,0.167985,0.061116,0.061297,0.994584
2011-09-26T13:21:43.302661,8170,0.475153,0.733521,0.168039,0.061212,0.061813,0.992460
2011-09-26T13:21:43.312661,8180,0.439497,0.777066,0.168094,0.061307,0.062329,0.990336
2011-09-26T13:21:43.322661,8190,0.403890,0.766509,0.156659,0.059988,0.061270,0.988925
2011-09-26T13:21:43.332661,8200,0.368284,0.753956,0.144799,0.058617,0.060152,0.987541
2011-09-26T13:21:43.342661,8210,0.332678,0.741404,0.132940,0.057246,0.059035,0.986156
2011-09-26T13:21:43.352661,8220,0.297073,0.728851,0.121080,0.055874,0.057917,0.984771
2011-09-26T13:21:43.362661,8230,0.261467,0.716299,0.109221,0.054503,0.056800,0.983387
2011-09-26T13:21:43.372661,8240,0.225862,0.703746,0.097362,0.053132,0.055682,0.982002
2011-09-26T13:21:43.382661,8250,0.190256,0.691194,0.085502,0.051760,0.054565,0.980617
2011-09-26T13:21:43.392661,8260,0.154651,0.678642,0.073643,0.050389,0.053447,0.979232
2011-09-26T13:21:43.402661,8270,0.119045,0.666089,0.061783,0.049018,0.052330,0.977848
2011-09-26T13:21:43.412661,8280,0.083439,0.653537,0.049924,0.047646,0.051212,0.976463
2011-09-26T13:21:43.422661,8290,0.047834,0.640984,0.038064,0.046275,0.050095,0.975078
2011-09-26T13:21:43.432661,8300,0.031659,0.597662,0.037669,0.046749,0.051509,0.976296
2011-09-26T13:21:43.442661,8310,0.016164,0.553264,0.037675,0.047287,0.053011,0.977605
2011-09-26T13:21:43.452661,8320,0.000668,0.508866,0.037681,0.047825,0.054514,0.978914
2011-09-26T13:21:43.462661,8330,-0.014827,0.464469,0.037687,0.048364,0.056017,0.980223
2011-09-26T13:21:43.472661,8340,-0.030323,0.420071,0.037693,0.048902,0.057519,0.981532
2011-09-26T13:21:43.482661,8350,-0.045818,0.375673,0.037699,0.049440,0.059022,0.982840
2011-09-26T13:21:43.492661,8360,-0.061313,0.331275,0.037704,0.049978,0.060525,0.984149
2011-09-26T13:21:43.502661,8370,-0.076809,0.286877,0.037710,0.050517,0.062028,0.985458
2011-09-26T13:21:43.512661,8380,-0.092304,0.242479,0.037716,0.051055,0.063530,0.986767
2011-09-26T13:21:43.522661,8390,-0.107800,0.198081,0.037722,0.051593,0.065033,0.988076
2011-09-26T13:21:43.532661,8400,-0.143027,0.167338,0.020544,0.052883,0.063004,0.987677
2011-09-26T13:21:43.542661,8410,-0.179009,0.137116,0.002709,0.054201,0.060840,0.987214
2011-09-26T13:21:43.552661,8420,-0.214990,0.106894,-0.015126,0.055519,0.058675,0.986750
2011-09-26T13:21:43.562661,8430,-0.250971,0.076672,-0.032961,0.056838,0.056511,0.986287
2011-09-26T13:21:43.572661,8440,-0.286953,0.046450,-0.050795,0.058156,0.054347,0.985823
2011-09-26T13:21:43.582661,8450,-0.322934,0.016228,-0.068630,0.059475,0.052183,0.985359
2011-09-26T13:21:43.592661,8460,-0.358915,-0.013995,-0.086465,0.060793,0.050019,0.984896
2011-09-26T13:21:43.602661,8470,-0.394897,-0.044217,-0.104300,0.062111,0.047855,0.984432
2011-09-26T13:21:43.612661,8480,-0.430878,-0.074439,-0.122134,0.063430,0.045690,0.983969
2011-09-26T13:21:43.622661,8490,-0.466859,-0.104661,-0.139969,0.064748,0.043526,0.983505
2011-09-26T13:21:43.632661,8500,-0.502841,-0.134883,-0.157804,0.066066,0.041362,0.983041
2011-09-26T13:21:43.642661,8510,-0.485012,-0.094025,-0.183248,0.065015,0.042106,0.983646
2011-09-26T13:21:43.652661,8520,-0.464771,-0.049981,-0.209032,0.063858,0.042980,0.984299
2011-09-26T13:21:43.662661,8530,-0.444531,-0.005938,-0.234817,0.062701,0.043854,0.984952
2011-09-26T13:21:43.672661,8540,-0.424290,0.038106,-0.260602,0.061543,0.044729,0.985605
2011-09-26T13:21:43.682661,8550,-0.404050,0.082150,-0.286387,0.060386,0.045603,0.986258
2011-09-26T13:21:43.692661,8560,-0.383809,0.126193,-0.312171,0.059229,0.046477,0.986911
2011-09-26T13:21:43.702661,8570,-0.363568,0.170237,-0.337956,0.058072,0.047352,0.987564
2011-09-26T13:21:43.712661,8580,-0.343328,0.214280,-0.363741,0.056914,0.048226,0.988217
2011-09-26T13:21:43.722661,8590,-0.323087,0.258324,-0.389526,0.055757,0.049100,0.988870
2011-09-26T13:21:43.732661,8600,-0.302847,0.302367,-0.415310,0.054600,0.049974,0.989522
2011-09-26T13:21:43.742661,8610,-0.289957,0.285065,-0.431130,0.054563,0.049425,0.989586
2011-09-26T13:21:43.752661,8620,-0.277459,0.264494,-0.446418,0.054587,0.048800,0.989619
2011-09-26T13:21:43.762661,8630,-0.264961,0.243924,-0.461706,0.054611,0.048175,0.989651
2011-09-26T13:21:43.772661,8640,-0.252463,0.223353,-0.476995,0.054634,0.047550,0.989683
2011-09-26T13:21:43.782661,8650,-0.239965,0.202782,-0.492283,0.054658,0.046925,0.989716
2011-09-26T13:21:43.792661,8660,-0.227467,0.182211,-0.507571,0.054682,0.046300,0.989748
2011-09-26T13:21:43.802661,8670,-0.214969,0.161641,-0.522860,0.054705,0.045675,0.989780
2011-09-26T13:21:43.812661,8680,-0.202471,0.141070,-0.538148,0.054729,0.045050,0.989813
2011-09-26T13:21:43.822661,8690,-0.189974,0.120499,-0.553436,0.054752,0.044425,0.989845
2011-09-26T13:21:43.832661,8700,-0.177476,0.099929,-0.568725,0.054776,0.043800,0.989877
2011-09-26T13:21:43.842661,8710,-0.184480,0.081711,-0.571627,0.054530,0.042600,0.990558
2011-09-26T13:21:43.852661,8720,-0.192142,0.063573,-0.574112,0.054274,0.041380,0.991260
2011-09-26T13:21:43.862661,8730,-0.199804,0.045435,-0.576597,0.054019,0.040161,0.991962
2011-09-26T13:21:43.872661,8740,-0.207466,0.027296,-0.579083,0.053763,0.038942,0.992664
2011-09-26T13:21:43.882661,8750,-0.215128,0.009158,-0.581568,0.053508,0.037722,0.993366
2011-09-26T13:21:43.892661,8760,-0.222789,-0.008980,-0.584053,0.053253,0.036503,0.994068
2011-09-26T13:21:43.902661,8770,-0.230451,-0.027118,-0.586538,0.052997,0.035283,0.994770
2011-09-26T13:21:43.912661,8780,-0.238113,-0.045256,-0.589024,0.052742,0.034064,0.995472
2011-09-26T13:21:43.922661,8790,-0.245775,-0.063394,-0.591509,0.052486,0.032845,0.996174
2011-09-26T13:21:43.932661,8800,-0.253437,-0.081533,-0.593994,0.052231,0.031625,0.996876
2011-09-26T13:21:43.942661,8810,-0.261099,-0.099671,-0.596479,0.051976,0.030406,0.997578
2011-09-26T13:21:43.952661,8820,-0.302978,-0.113483,-0.587070,0.052811,0.031023,0.998181
2011-09-26T13:21:43.962661,8830,-0.346164,-0.127130,-0.577208,0.053688,0.031711,0.998779
2011-09-26T13:21:43.972661,8840,-0.389350,-0.140778,-0.567345,0.054565,0.032399,0.999378
2011-09-26T13:21:43.982661,8850,-0.432536,-0.154425,-0.557482,0.055442,0.033086,0.999977
2011-09-26T13:21:43.992661,8860,-0.475722,-0.168072,-0.547619,0.056319,0.033774,1.000575
2011-09-26T13:21:44.002661,8870,-0.518908,-0.181719,-0.537756,0.057195,0.034462,1.001174
2011-09-26T13:21:44.012661,8880,-0.562094,-0.195366,-0.527894,0.058072,0.035149,1.001772
2011-09-26T13:21:44.022661,8890,-0.605279,-0.209013,-0.518031,0.058949,0.035837,1.002371
2011-09-26T13:21:44.032661,8900,-0.648465,-0.222661,-0.508168,0.059826,0.036524,1.002970
2011-09-26T13:21:44.042661,8910,-0.691651,-0.236308,-0.498305,0.060703,0.037212,1.003568
2011-09-26T13:21:44.052661,8920,-0.685723,-0.224211,-0.502486,0.060160,0.038012,1.002475
2011-09-26T13:21:44.062661,8930,-0.678107,-0.211230,-0.507148,0.059568,0.038817,1.001323
2011-09-26T13:21:44.072661,8940,-0.670492,-0.198249,-0.511810,0.058975,0.039621,1.000172
2011-09-26T13:21:44.082661,8950,-0.662876,-0.185268,-0.516473,0.058383,0.040425,0.999020
2011-09-26T13:21:44.092661,8960,-0.655261,-0.172287,-0.521135,0.057791,0.041230,0.997869
2011-09-26T13:21:44.102661,8970,-0.647645,-0.159307,-0.525798,0.057199,0.042034,0.996717
2011-09-26T13:21:44.112661,8980,-0.640030,-0.146326,-0.530460,0.056607,0.042838,0.995566
2011-09-26T13:21:44.122661,8990,-0.632415,-0.133345,-0.535123,0.056014,0.043643,0.994414
2011-09-26T13:21:44.132661,9000,-0.624799,-0.120364,-0.539785,0.055422,0.044447,0.993263
2011-09-26T13:21:44.142661,9010,-0.617184,-0.107383,-0.544448,0.054830,0.045251,0.992111
2011-09-26T13:21:44.152661,9020,-0.608272,-0.115452,-0.538934,0.055109,0.043212,0.993474
2011-09-26T13:21:44.162661,9030,-0.599314,-0.124254,-0.533065,0.055419,0.041074,0.994925
2011-09-26T13:21:44.172661,9040,-0.590357,-0.133057,-0.527197,0.055729,0.038935,0.996376
2011-09-26T13:21:44.182661,9050,-0.581400,-0.141859,-0.521328,0.056038,0.036797,0.997827
2011-09-26T13:21:44.192661,9060,-0.572442,-0.150662,-0.515460,0.056348,0.034659,0.999278
2011-09-26T13:21:44.202661,9070,-0.563485,-0.159464,-0.509591,0.056658,0.032520,1.000728
2011-09-26T13:21:44.212661,9080,-0.554528,-0.168267,-0.503723,0.056967,0.030382,1.002179
2011-09-26T13:21:44.222661,9090,-0.545570,-0.177069,-0.497854,0.057277,0.028244,1.003630
2011-09-26T13:21:44.232661,9100,-0.536613,-0.185872,-0.491985,0.057587,0.026105,1.005081
2011-09-26T13:21:44.242661,9110,-0.527656,-0.194675,-0.486117,0.057896,0.023967,1.006531
2011-09-26T13:21:44.252661,9120,-0.518698,-0.203477,-0.480248,0.058206,0.021829,1.007982
2011-09-26T13:21:44.262661,9130,-0.486904,-0.195731,-0.465316,0.057837,0.024239,1.007988
2011-09-26T13:21:44.272661,9140,-0.454071,-0.187232,-0.449971,0.057438,0.026857,1.007928
2011-09-26T13:21:44.282661,9150,-0.421238,-0.178733,-0.434626,0.057039,0.029474,1.007869
2011-09-26T13:21:44.292661,9160,-0.388405,-0.170234,-0.419281,0.056639,0.032091,1.007809
2011-09-26T13:21:44.302661,9170,-0.355572,-0.161735,-0.403936,0.056240,0.034709,1.007749
2011-09-26T13:21:44.312661,9180,-0.322739,-0.153236,-0.388591,0.055840,0.037326,1.007689
2011-09-26T13:21:44.322661,9190,-0.289906,-0.144737,-0.373246,0.055441,0.039944,1.007630
2011-09-26T13:21:44.332661,9200,-0.257073,-0.136238,-0.357901,0.055042,0.042561,1.007570
2011-09-26T13:21:44.342661,9210,-0.224240,-0.127740,-0.342557,0.054642,0.045179,1.007510
2011-09-26T13:21:44.352661,9220,-0.191407,-0.119241,-0.327212,0.054243,0.047796,1.007450
2011-09-26T13:21:44.362661,9230,-0.183678,-0.135082,-0.317784,0.053986,0.046561,1.008515
2011-09-26T13:21:44.372661,9240,-0.177134,-0.152072,-0.308636,0.053735,0.045145,1.009632
2011-09-26T13:21:44.382661,9250,-0.170591,-0.169062,-0.299488,0.053485,0.043729,1.010750
2011-09-26T13:21:44.392661,9260,-0.164048,-0.186053,-0.290339,0.053234,0.042312,1.011867
2011-09-26T13:21:44.402661,9270,-0.157504,-0.203043,-0.281191,0.052984,0.040896,1.012985
2011-09-26T13:21:44.412661,9280,-0.150961,-0.220033,-0.272043,0.052733,0.039479,1.014102
2011-09-26T13:21:44.422661,9290,-0.144418,-0.237024,-0.262895,0.052483,0.038063,1.015220
2011-09-26T13:21:44.432661,9300,-0.137875,-0.254014,-0.253747,0.052232,0.036647,1.016337
2011-09-26T13:21:44.442661,9310,-0.131331,-0.271004,-0.244598,0.051982,0.035230,1.017455
2011-09-26T13:21:44.452661,9320,-0.124788,-0.287995,-0.235450,0.051731,0.033814,1.018572
2011-09-26T13:21:44.462661,9330,-0.102127,-0.273916,-0.219621,0.052112,0.035212,1.016642
2011-09-26T13:21:44.472661,9340,-0.078877,-0.258701,-0.203548,0.052515,0.036712,1.014600
2011-09-26T13:21:44.482661,9350,-0.055627,-0.243486,-0.187475,0.052919,0.038213,1.012559
2011-09-26T13:21:44.492661,9360,-0.032376,-0.228271,-0.171402,0.053322,0.039714,1.010517
2011-09-26T13:21:44.502661,9370,-0.009126,-0.213056,-0.155329,0.053726,0.041215,1.008475
2011-09-26T13:21:44.512661,9380,0.014124,-0.197841,-0.139255,0.054129,0.042716,1.006433
2011-09-26T13:21:44.522661,9390,0.037374,-0.182626,-0.123182,0.054533,0.044217,1.004391
2011-09-26T13:21:44.532661,9400,0.060624,-0.167411,-0.107109,0.054937,0.045717,1.002350
2011-09-26T13:21:44.542661,9410,0.083875,-0.152196,-0.091036,0.055340,0.047218,1.000308
2011-09-26T13:21:44.552661,9420,0.107125,-0.136982,-0.074963,0.055744,0.048719,0.998266
2011-09-26T13:21:44.562661,9430,0.130375,-0.121767,-0.058890,0.056147,0.050220,0.996224
2011-09-26T13:21:44.572661,9440,0.105170,-0.108475,-0.042741,0.055634,0.049955,0.997835
2011-09-26T13:21:44.582661,9450,0.078156,-0.095256,-0.026589,0.055087,0.049625,0.999583
2011-09-26T13:21:44.592661,9460,0.051142,-0.082036,-0.010438,0.054539,0.049294,1.001330
2011-09-26T13:21:44.602661,9470,0.024128,-0.068816,0.005714,0.053991,0.048963,1.003078
2011-09-26T13:21:44.612661,9480,-0.002886,-0.055597,0.021865,0.053444,0.048633,1.004825
2011-09-26T13:21:44.622661,9490,-0.029900,-0.042377,0.038017,0.052896,0.048302,1.006572
2011-09-26T13:21:44.632661,9500,-0.056914,-0.029158,0.054168,0.052349,0.047971,1.008320
2011-09-26T13:21:44.642661,9510,-0.083928,-0.015938,0.070320,0.051801,0.047641,1.010067
2011-09-26T13:21:44.652661,9520,-0.110942,-0.002719,0.086471,0.051254,0.047310,1.011815
2011-09-26T13:21:44.662661,9530,-0.137956,0.010501,0.102623,0.050706,0.046979,1.013562
2011-09-26T13:21:44.672661,9540,-0.123964,-0.000870,0.095353,0.051123,0.047607,1.012407
2011-09-26T13:21:44.682661,9550,-0.108396,-0.013184,0.087183,0.051577,0.048272,1.011141
2011-09-26T13:21:44.692661,9560,-0.092829,-0.025499,0.079014,0.052032,0.048937,1.009875
2011-09-26T13:21:44.702661,9570,-0.077262,-0.037814,0.070845,0.052486,0.049602,1.008609
2011-09-26T13:21:44.712661,9580,-0.061694,-0.050129,0.062675,0.052940,0.050267,1.007342
2011-09-26T13:21:44.722661,9590,-0.046127,-0.062444,0.054506,0.053394,0.050932,1.006076
2011-09-26T13:21:44.732661,9600,-0.030560,-0.074759,0.046336,0.053848,0.051596,1.004810
2011-09-26T13:21:44.742661,9610,-0.014992,-0.087074,0.038167,0.054302,0.052261,1.003544
2011-09-26T13:21:44.752661,9620,0.000575,-0.099389,0.029997,0.054756,0.052926,1.002277
2011-09-26T13:21:44.762661,9630,0.016142,-0.111704,0.021828,0.055210,0.053591,1.001011
2011-09-26T13:21:44.772661,9640,0.017775,-0.099430,0.017299,0.055062,0.053401,1.000703
2011-09-26T13:21:44.782661,9650,0.018730,-0.085959,0.012947,0.054885,0.053169,1.000441
2011-09-26T13:21:44.792661,9660,0.019686,-0.072488,0.008595,0.054708,0.052938,1.000179
2011-09-26T13:21:44.802661,9670,0.020641,-0.059017,0.004242,0.054531,0.052706,0.999917
2011-09-26T13:21:44.812661,9680,0.021596,-0.045546,-0.000110,0.054354,0.052475,0.999655
2011-09-26T13:21:44.822661,9690,0.022551,-0.032075,-0.004462,0.054177,0.052243,0.999393
2011-09-26T13:21:44.832661,9700,0.023506,-0.018605,-0.008814,0.053999,0.052012,0.999131
2011-09-26T13:21:44.842661,9710,0.024461,-0.005134,-0.013166,0.053822,0.051780,0.998869
2011-09-26T13:21:44.852661,9720,0.025416,0.008337,-0.017518,0.053645,0.051548,0.998607
2011-09-26T13:21:44.862661,9730,0.026372,0.021808,-0.021870,0.053468,0.051317,0.998346
2011-09-26T13:21:44.872661,9740,0.027327,0.035279,-0.026222,0.053291,0.051085,0.998084
2011-09-26T13:21:44.882661,9750,-0.035796,0.020167,-0.021327,0.053264,0.051150,0.997884
2011-09-26T13:21:44.892661,9760,-0.101925,0.003714,-0.015997,0.053244,0.051228,0.997686
2011-09-26T13:21:44.902661,9770,-0.168053,-0.012739,-0.010668,0.053224,0.051306,0.997489
2011-09-26T13:21:44.912661,9780,-0.234181,-0.029192,-0.005338,0.053205,0.051385,0.997292
2011-09-26T13:21:44.922661,9790,-0.300310,-0.045645,-0.000009,0.053185,0.051463,0.997095
2011-09-26T13:21:44.932661,9800,-0.366438,-0.062097,0.005320,0.053165,0.051541,0.996898
2011-09-26T13:21:44.942661,9810,-0.432567,-0.078550,0.010650,0.053145,0.051619,0.996700
2011-09-26T13:21:44.952661,9820,-0.498695,-0.095003,0.015979,0.053126,0.051698,0.996503
2011-09-26T13:21:44.962661,9830,-0.564823,-0.111456,0.021309,0.053106,0.051776,0.996306
2011-09-26T13:21:44.972661,9840,-0.630952,-0.127909,0.026638,0.053086,0.051854,0.996109
2011-09-26T13:21:44.982661,9850,-0.641704,-0.127939,0.023957,0.053796,0.052571,0.998200
2011-09-26T13:21:44.992661,9860,-0.649991,-0.127239,0.020919,0.054539,0.053317,1.000393
2011-09-26T13:21:45.002661,9870,-0.658279,-0.126539,0.017881,0.055282,0.054062,1.002586
2011-09-26T13:21:45.012661,9880,-0.666567,-0.125839,0.014843,0.056024,0.054808,1.004778
2011-09-26T13:21:45.022661,9890,-0.674855,-0.125139,0.011806,0.056767,0.055553,1.006971
2011-09-26T13:21:45.032661,9900,-0.683143,-0.124439,0.008768,0.057510,0.056298,1.009164
2011-09-26T13:21:45.042661,9910,-0.691430,-0.123739,0.005730,0.058252,0.057044,1.011357
2011-09-26T13:21:45.052661,9920,-0.699718,-0.123039,0.002692,0.058995,0.057789,1.013550
2011-09-26T13:21:45.062661,9930,-0.708006,-0.122339,-0.000345,0.059738,0.058535,1.015743
2011-09-26T13:21:45.072661,9940,-0.716294,-0.121639,-0.003383,0.060480,0.059280,1.017936
2011-09-26T13:21:45.082661,9950,-0.724582,-0.120939,-0.006421,0.061223,0.060025,1.020129
2011-09-26T13:21:45.092661,9960,-0.743479,-0.110274,-0.008031,0.060960,0.059339,1.018779
2011-09-26T13:21:45.102661,9970,-0.762820,-0.099194,-0.009580,0.060654,0.058593,1.017282
2011-09-26T13:21:45.112661,9980,-0.782161,-0.088113,-0.011130,0.060348,0.057847,1.015785
2011-09-26T13:21:45.122661,9990,-0.801501,-0.077032,-0.012680,0.060043,0.057101,1.014288
2011-09-26T13:21:45.132661,10000,-0.820842,-0.065952,-0.014230,0.059737,0.056355,1.012791
2011-09-26T13:21:45.142661,10010,-0.840183,-0.054871,-0.015780,0.059432,0.055609,1.011293
2011-09-26T13:21:45.152661,10020,-0.859524,-0.043790,-0.017330,0.059126,0.054863,1.009796
2011-09-26T13:21:45.162661,10030,-0.878864,-0.032709,-0.018880,0.058821,0.054117,1.008299
2011-09-26T13:21:45.172661,10040,-0.898205,-0.021629,-0.020430,0.058515,0.053370,1.006802
2011-09-26T13:21:45.182661,10050,-0.917546,-0.010548,-0.021980,0.058210,0.052624,1.005305
2011-09-26T13:21:45.192661,10060,-0.942894,-0.015943,-0.032906,0.058069,0.050193,1.004856
2011-09-26T13:21:45.202661,10070,-0.968545,-0.022166,-0.044303,0.057937,0.047677,1.004461
2011-09-26T13:21:45.212661,10080,-0.994195,-0.028388,-0.055701,0.057804,0.045161,1.004065
2011-09-26T13:21:45.222661,10090,-1.019845,-0.034611,-0.067098,0.057672,0.042645,1.003669
2011-09-26T13:21:45.232661,10100,-1.045495,-0.040833,-0.078495,0.057539,0.040129,1.003274
2011-09-26T13:21:45.242661,10110,-1.071145,-0.047055,-0.089892,0.057407,0.037613,1.002878
2011-09-26T13:21:45.252661,10120,-1.096795,-0.053278,-0.101289,0.057274,0.035097,1.002483
2011-09-26T13:21:45.262661,10130,-1.122446,-0.059500,-0.112687,0.057141,0.032581,1.002087
2011-09-26T13:21:45.272661,10140,-1.148096,-0.065723,-0.124084,0.057009,0.030064,1.001691
2011-09-26T13:21:45.282661,10150,-1.173746,-0.071945,-0.135481,0.056876,0.027548,1.001296
2011-09-26T13:21:45.292661,10160,-1.107997,-0.035838,-0.131580,0.057003,0.028690,1.000301
2011-09-26T13:21:45.302661,10170,-1.038104,0.002188,-0.126985,0.057141,0.029998,0.999278
2011-09-26T13:21:45.312661,10180,-0.968210,0.040215,-0.122389,0.057280,0.031306,0.998256
2011-09-26T13:21:45.322661,10190,-0.898317,0.078242,-0.117794,0.057418,0.032614,0.997233
2011-09-26T13:21:45.332661,10200,-0.828423,0.116268,-0.113199,0.057557,0.033922,0.996211
2011-09-26T13:21:45.342661,10210,-0.758530,0.154295,-0.108604,0.057695,0.035230,0.995189
2011-09-26T13:21:45.352661,10220,-0.688636,0.192321,-0.104009,0.057834,0.036538,0.994166
2011-09-26T13:21:45.362661,10230,-0.618743,0.230348,-0.099414,0.057972,0.037846,0.993144
2011-09-26T13:21:45.372661,10240,-0.548849,0.268374,-0.094819,0.058110,0.039154,0.992121
2011-09-26T13:21:45.382661,10250,-0.478956,0.306401,-0.090224,0.058249,0.040462,0.991099
2011-09-26T13:21:45.392661,10260,-0.409062,0.344428,-0.085628,0.058387,0.041770,0.990077
2011-09-26T13:21:45.402661,10270,-0.391663,0.312916,-0.064864,0.058449,0.039657,0.991997
2011-09-26T13:21:45.412661,10280,-0.376703,0.278175,-0.043349,0.058508,0.037384,0.994055
2011-09-26T13:21:45.422661,10290,-0.361743,0.243434,-0.021833,0.058566,0.035112,0.996113
2011-09-26T13:21:45.432661,10300,-0.346782,0.208692,-0.000318,0.058625,0.032840,0.998170
2011-09-26T13:21:45.442661,10310,-0.331822,0.173951,0.021198,0.058684,0.030568,1.000228
2011-09-26T13:21:45.452661,10320,-0.316862,0.139210,0.042713,0.058742,0.028295,1.002285
2011-09-26T13:21:45.462661,10330,-0.301901,0.104468,0.064229,0.058801,0.026023,1.004343
2011-09-26T13:21:45.472661,10340,-0.286941,0.069727,0.085744,0.058859,0.023751,1.006400
2011-09-26T13:21:45.482661,10350,-0.271981,0.034986,0.107260,0.058918,0.021479,1.008458
2011-09-26T13:21:45.492661,10360,-0.257020,0.000244,0.128775,0.058976,0.019206,1.010515
2011-09-26T13:21:45.502661,10370,-0.201836,-0.012006,0.148512,0.058536,0.021927,1.008713
2011-09-26T13:21:45.512661,10380,-0.145041,-0.023355,0.168178,0.058075,0.024848,1.006756
2011-09-26T13:21:45.522661,10390,-0.088247,-0.034705,0.187845,0.057614,0.027769,1.004799
2011-09-26T13:21:45.532661,10400,-0.031452,-0.046054,0.207511,0.057153,0.030690,1.002842
2011-09-26T13:21:45.542661,10410,0.025343,-0.057404,0.227177,0.056692,0.033611,1.000885
2011-09-26T13:21:45.552661,10420,0.082137,-0.068753,0.246843,0.056231,0.036532,0.998928
2011-09-26T13:21:45.562661,10430,0.138932,-0.080103,0.266509,0.055770,0.039453,0.996971
2011-09-26T13:21:45.572661,10440,0.195727,-0.091452,0.286175,0.055309,0.042374,0.995014
2011-09-26T13:21:45.582661,10450,0.252522,-0.102802,0.305841,0.054848,0.045295,0.993057
2011-09-26T13:21:45.592661,10460,0.309316,-0.114151,0.325507,0.054388,0.048215,0.991100
2011-09-26T13:21:45.602661,10470,0.305803,-0.068799,0.349020,0.054627,0.049139,0.989843
2011-09-26T13:21:45.612661,10480,0.299435,-0.020762,0.372715,0.054899,0.049968,0.988619
2011-09-26T13:21:45.622661,10490,0.293068,0.027274,0.396410,0.055171,0.050797,0.987395
2011-09-26T13:21:45.632661,10500,0.286700,0.075311,0.420105,0.055443,0.051625,0.986171
2011-09-26T13:21:45.642661,10510,0.280332,0.123347,0.443800,0.055715,0.052454,0.984948
2011-09-26T13:21:45.652661,10520,0.273964,0.171384,0.467494,0.055987,0.053283,0.983724
2011-09-26T13:21:45.662661,10530,0.267597,0.219420,0.491189,0.056259,0.054112,0.982500
2011-09-26T13:21:45.672661,10540,0.261229,0.267457,0.514884,0.056531,0.054941,0.981276
2011-09-26T13:21:45.682661,10550,0.254861,0.315493,0.538579,0.056803,0.055770,0.980052
2011-09-26T13:21:45.692661,10560,0.248494,0.363530,0.562274,0.057075,0.056599,0.978828
2011-09-26T13:21:45.702661,10570,0.242126,0.411566,0.585969,0.057347,0.057427,0.977604
2011-09-26T13:21:45.712661,10580,0.225956,0.390565,0.595783,0.056464,0.058242,0.978764
2011-09-26T13:21:45.722661,10590,0.209153,0.365103,0.604701,0.055507,0.059056,0.980078
2011-09-26T13:21:45.732661,10600,0.192350,0.339641,0.613618,0.054550,0.059870,0.981392
2011-09-26T13:21:45.742661,10610,0.175547,0.314179,0.622536,0.053593,0.060684,0.982706
2011-09-26T13:21:45.752661,10620,0.158744,0.288717,0.631453,0.052635,0.061498,0.984019
2011-09-26T13:21:45.762661,10630,0.141941,0.263255,0.640370,0.051678,0.062312,0.985333
2011-09-26T13:21:45.772661,10640,0.125138,0.237793,0.649288,0.050721,0.063126,0.986647
2011-09-26T13:21:45.782661,10650,0.108335,0.212331,0.658205,0.049764,0.063940,0.987961
2011-09-26T13:21:45.792661,10660,0.091532,0.186869,0.667123,0.048806,0.064754,0.989275
2011-09-26T13:21:45.802661,10670,0.074729,0.161407,0.676040,0.047849,0.065567,0.990589
2011-09-26T13:21:45.812661,10680,0.035559,0.099442,0.670220,0.048417,0.066174,0.991674
2011-09-26T13:21:45.822661,10690,-0.004734,0.035646,0.663660,0.049061,0.066770,0.992748
2011-09-26T13:21:45.832661,10700,-0.045027,-0.028150,0.657100,0.049705,0.067366,0.993821
2011-09-26T13:21:45.842661,10710,-0.085320,-0.091947,0.650540,0.050349,0.067962,0.994895
2011-09-26T13:21:45.852661,10720,-0.125613,-0.155743,0.643981,0.050993,0.068559,0.995969
2011-09-26T13:21:45.862661,10730,-0.165906,-0.219539,0.637421,0.051637,0.069155,0.997043
2011-09-26T13:21:45.872661,10740,-0.206199,-0.283335,0.630861,0.052282,0.069751,0.998116
2011-09-26T13:21:45.882661,10750,-0.246492,-0.347132,0.624301,0.052926,0.070347,0.999190
2011-09-26T13:21:45.892661,10760,-0.286785,-0.410928,0.617741,0.053570,0.070943,1.000264
2011-09-26T13:21:45.902661,10770,-0.327078,-0.474724,0.611181,0.054214,0.071539,1.001338
2011-09-26T13:21:45.912661,10780,-0.324863,-0.491468,0.602414,0.055122,0.071664,1.004587
2011-09-26T13:21:45.922661,10790,-0.320398,-0.505721,0.593531,0.056044,0.071763,1.007951
2011-09-26T13:21:45.932661,10800,-0.315933,-0.519975,0.584647,0.056966,0.071862,1.011315
2011-09-26T13:21:45.942661,10810,-0.311468,-0.534228,0.575763,0.057888,0.071962,1.014680
2011-09-26T13:21:45.952661,10820,-0.307003,-0.548482,0.566879,0.058810,0.072061,1.018044
2011-09-26T13:21:45.962661,10830,-0.302538,-0.562735,0.557995,0.059732,0.072160,1.021408
2011-09-26T13:21:45.972661,10840,-0.298073,-0.576989,0.549111,0.060654,0.072260,1.024772
2011-09-26T13:21:45.982661,10850,-0.293608,-0.591242,0.540227,0.061576,0.072359,1.028137
2011-09-26T13:21:45.992661,10860,-0.289143,-0.605495,0.531344,0.062498,0.072458,1.031501
2011-09-26T13:21:46.002661,10870,-0.284678,-0.619749,0.522460,0.063420,0.072557,1.034865
2011-09-26T13:21:46.012661,10880,-0.280213,-0.634002,0.513576,0.064342,0.072657,1.038230
2011-09-26T13:21:46.022661,10890,-0.269039,-0.563859,0.520388,0.064337,0.069927,1.037328
2011-09-26T13:21:46.032661,10900,-0.257566,-0.489970,0.527897,0.064292,0.067073,1.036237
2011-09-26T13:21:46.042661,10910,-0.246094,-0.416081,0.535407,0.064246,0.064218,1.035147
2011-09-26T13:21:46.052661,10920,-0.234622,-0.342191,0.542916,0.064200,0.061363,1.034056
2011-09-26T13:21:46.062661,10930,-0.223150,-0.268302,0.550425,0.064155,0.058508,1.032965
2011-09-26T13:21:46.072661,10940,-0.211678,-0.194413,0.557934,0.064109,0.055653,1.031874
2011-09-26T13:21:46.082661,10950,-0.200206,-0.120523,0.565443,0.064063,0.052798,1.030783
2011-09-26T13:21:46.092661,10960,-0.188734,-0.046634,0.572952,0.064018,0.049943,1.029693
2011-09-26T13:21:46.102661,10970,-0.177262,0.027256,0.580462,0.063972,0.047088,1.028602
2011-09-26T13:21:46.112661,10980,-0.165790,0.101145,0.587971,0.063926,0.044234,1.027511
2011-09-26T13:21:46.122661,10990,-0.121469,0.105398,0.589330,0.063141,0.044649,1.024332
2011-09-26T13:21:46.132661,11000,-0.075618,0.106409,0.590404,0.062322,0.045217,1.021055
2011-09-26T13:21:46.142661,11010,-0.029768,0.107420,0.591477,0.061503,0.045784,1.017779
2011-09-26T13:21:46.152661,11020,0.016082,0.108432,0.592550,0.060683,0.046352,1.014502
2011-09-26T13:21:46.162661,11030,0.061933,0.109443,0.593624,0.059864,0.046919,1.011225
2011-09-26T13:21:46.172661,11040,0.107783,0.110454,0.594697,0.059045,0.047487,1.007949
2011-09-26T13:21:46.182661,11050,0.153634,0.111465,0.595770,0.058225,0.048054,1.004672
2011-09-26T13:21:46.192661,11060,0.199484,0.112477,0.596844,0.057406,0.048622,1.001395
2011-09-26T13:21:46.202661,11070,0.245335,0.113488,0.597917,0.056587,0.049190,0.998119
2011-09-26T13:21:46.212661,11080,0.291185,0.114499,0.598990,0.055767,0.049757,0.994842
2011-09-26T13:21:46.222661,11090,0.307977,0.117890,0.602140,0.055534,0.050733,0.994594
2011-09-26T13:21:46.232661,11100,0.323040,0.121424,0.605414,0.055336,0.051733,0.994526
2011-09-26T13:21:46.242661,11110,0.338102,0.124957,0.608687,0.055138,0.052734,0.994458
2011-09-26T13:21:46.252661,11120,0.353165,0.128490,0.611961,0.054939,0.053734,0.994390
2011-09-26T13:21:46.262661,11130,0.368227,0.132023,0.615234,0.054741,0.054734,0.994322
2011-09-26T13:21:46.272661,11140,0.383289,0.135557,0.618508,0.054543,0.055734,0.994254
2011-09-26T13:21:46.282661,11150,0.398352,0.139090,0.621781,0.054344,0.056735,0.994186
2011-09-26T13:21:46.292661,11160,0.413414,0.142623,0.625055,0.054146,0.057735,0.994118
2011-09-26T13:21:46.302661,11170,0.428477,0.146156,0.628328,0.053948,0.058735,0.994050
2011-09-26T13:21:46.312661,11180,0.443539,0.149689,0.631601,0.053750,0.059735,0.993982
2011-09-26T13:21:46.322661,11190,0.458602,0.153223,0.634875,0.053551,0.060736,0.993914
2011-09-26T13:21:46.332661,11200,0.421155,0.178925,0.630036,0.053030,0.061921,0.992903
2011-09-26T13:21:46.342661,11210,0.381155,0.205706,0.624802,0.052493,0.063114,0.991847
2011-09-26T13:21:46.352661,11220,0.341154,0.232486,0.619569,0.051956,0.064308,0.990790
2011-09-26T13:21:46.362661,11230,0.301154,0.259267,0.614335,0.051419,0.065502,0.989733
2011-09-26T13:21:46.372661,11240,0.261153,0.286048,0.609102,0.050883,0.066696,0.988676
2011-09-26T13:21:46.382661,11250,0.221153,0.312829,0.603868,0.050346,0.067890,0.987619
2011-09-26T13:21:46.392661,11260,0.181152,0.339609,0.598635,0.049809,0.069084,0.986562
2011-09-26T13:21:46.402661,11270,0.141152,0.366390,0.593401,0.049272,0.070277,0.985505
2011-09-26T13:21:46.412661,11280,0.101151,0.393171,0.588167,0.048735,0.071471,0.984449
2011-09-26T13:21:46.422661,11290,0.061150,0.419952,0.582934,0.048198,0.072665,0.983392
2011-09-26T13:21:46.432661,11300,0.046152,0.424236,0.581946,0.048120,0.071973,0.983571
2011-09-26T13:21:46.442661,11310,0.032419,0.427382,0.581174,0.048066,0.071186,0.983812
2011-09-26T13:21:46.452661,11320,0.018686,0.430527,0.580401,0.048011,0.070398,0.984054
2011-09-26T13:21:46.462661,11330,0.004953,0.433673,0.579628,0.047956,0.069611,0.984295
2011-09-26T13:21:46.472661,11340,-0.008779,0.436819,0.578855,0.047902,0.068823,0.984537
2011-09-26T13:21:46.482661,11350,-0.022512,0.439964,0.578083,0.047847,0.068036,0.984778
2011-09-26T13:21:46.492661,11360,-0.036245,0.443110,0.577310,0.047793,0.067249,0.985020
2011-09-26T13:21:46.502661,11370,-0.049978,0.446256,0.576537,0.047738,0.066461,0.985262
2011-09-26T13:21:46.512661,11380,-0.063711,0.449402,0.575764,0.047683,0.065674,0.985503
2011-09-26T13:21:46.522661,11390,-0.077444,0.452547,0.574992,0.047629,0.064886,0.985745
2011-09-26T13:21:46.532661,11400,-0.097146,0.410274,0.572391,0.047594,0.065744,0.986054
2011-09-26T13:21:46.542661,11410,-0.117153,0.365679,0.569696,0.047559,0.066687,0.986367
2011-09-26T13:21:46.552661,11420,-0.137160,0.321085,0.567001,0.047525,0.067629,0.986680
2011-09-26T13:21:46.562661,11430,-0.157168,0.276491,0.564307,0.047491,0.068571,0.986993
2011-09-26T13:21:46.572661,11440,-0.177175,0.231897,0.561612,0.047457,0.069513,0.987305
2011-09-26T13:21:46.582661,11450,-0.197182,0.187302,0.558918,0.047423,0.070455,0.987618
2011-09-26T13:21:46.592661,11460,-0.217189,0.142708,0.556223,0.047388,0.071397,0.987931
2011-09-26T13:21:46.602661,11470,-0.237196,0.098114,0.553529,0.047354,0.072340,0.988244
2011-09-26T13:21:46.612661,11480,-0.257203,0.053520,0.550834,0.047320,0.073282,0.988557
2011-09-26T13:21:46.622661,11490,-0.277210,0.008925,0.548140,0.047286,0.074224,0.988870
2011-09-26T13:21:46.632661,11500,-0.297217,-0.035669,0.545445,0.047252,0.075166,0.989182
2011-09-26T13:21:46.642661,11510,-0.344541,-0.052181,0.542964,0.046826,0.073616,0.990193
2011-09-26T13:21:46.652661,11520,-0.393519,-0.066992,0.540496,0.046376,0.071914,0.991246
2011-09-26T13:21:46.662661,11530,-0.442497,-0.081804,0.538028,0.045926,0.070212,0.992299
2011-09-26T13:21:46.672661,11540,-0.491475,-0.096615,0.535560,0.045477,0.068511,0.993352
2011-09-26T13:21:46.682661,11550,-0.540453,-0.111426,0.533092,0.045027,0.066809,0.994405
2011-09-26T13:21:46.692661,11560,-0.589431,-0.126238,0.530624,0.044577,0.065108,0.995458
2011-09-26T13:21:46.702661,11570,-0.638408,-0.141049,0.528156,0.044128,0.063406,0.996511
2011-09-26T13:21:46.712661,11580,-0.687386,-0.155860,0.525687,0.043678,0.061704,0.997564
2011-09-26T13:21:46.722661,11590,-0.736364,-0.170671,0.523219,0.043228,0.060003,0.998617
2011-09-26T13:21:46.732661,11600,-0.785342,-0.185483,0.520751,0.042779,0.058301,0.999669
2011-09-26T13:21:46.742661,11610,-0.760648,-0.162886,0.519577,0.042668,0.058835,0.999688
2011-09-26T13:21:46.752661,11620,-0.730766,-0.137655,0.518495,0.042580,0.059527,0.999633
2011-09-26T13:21:46.762661,11630,-0.700884,-0.112424,0.517412,0.042493,0.060218,0.999578
2011-09-26T13:21:46.772661,11640,-0.671001,-0.087193,0.516329,0.042406,0.060909,0.999524
2011-09-26T13:21:46.782661,11650,-0.641119,-0.061962,0.515246,0.042319,0.061601,0.999469
2011-09-26T13:21:46.792661,11660,-0.611236,-0.036731,0.514163,0.042232,0.062292,0.999414
2011-09-26T13:21:46.802661,11670,-0.581354,-0.011501,0.513081,0.042144,0.062983,0.999359
2011-09-26T13:21:46.812661,11680,-0.551471,0.013730,0.511998,0.042057,0.063675,0.999305
2011-09-26T13:21:46.822661,11690,-0.521589,0.038961,0.510915,0.041970,0.064366,0.999250
2011-09-26T13:21:46.832661,11700,-0.491707,0.064192,0.509832,0.041883,0.065057,0.999195
2011-09-26T13:21:46.842661,11710,-0.461824,0.089423,0.508750,0.041796,0.065749,0.999141
2011-09-26T13:21:46.852661,11720,-0.467398,0.133049,0.505790,0.040708,0.063917,0.999971
2011-09-26T13:21:46.862661,11730,-0.474666,0.177554,0.502740,0.039573,0.061965,1.000844
2011-09-26T13:21:46.872661,11740,-0.481934,0.222059,0.499690,0.038438,0.060013,1.001717
2011-09-26T13:21:46.882661,11750,-0.489201,0.266563,0.496640,0.037303,0.058061,1.002590
2011-09-26T13:21:46.892661,11760,-0.496469,0.311068,0.493591,0.036167,0.056110,1.003463
2011-09-26T13:21:46.902661,11770,-0.503737,0.355572,0.490541,0.035032,0.054158,1.004336
2011-09-26T13:21:46.912661,11780,-0.511004,0.400077,0.487491,0.033897,0.052206,1.005209
2011-09-26T13:21:46.922661,11790,-0.518272,0.444581,0.484441,0.032762,0.050254,1.006082
2011-09-26T13:21:46.932661,11800,-0.525539,0.489086,0.481392,0.031626,0.048302,1.006955
2011-09-26T13:21:46.942661,11810,-0.532807,0.533590,0.478342,0.030491,0.046350,1.007828
2011-09-26T13:21:46.952661,11820,-0.468774,0.527497,0.477410,0.030987,0.045668,1.006494
2011-09-26T13:21:46.962661,11830,-0.400983,0.518737,0.476591,0.031568,0.045054,1.005044
2011-09-26T13:21:46.972661,11840,-0.333192,0.509976,0.475771,0.032150,0.044439,1.003594
2011-09-26T13:21:46.982661,11850,-0.265400,0.501216,0.474951,0.032731,0.043825,1.002144
2011-09-26T13:21:46.992661,11860,-0.197609,0.492455,0.474131,0.033312,0.043210,1.000693
2011-09-26T13:21:47.002661,11870,-0.129818,0.483695,0.473311,0.033894,0.042595,0.999243
2011-09-26T13:21:47.012661,11880,-0.062027,0.474934,0.472491,0.034475,0.041981,0.997793
2011-09-26T13:21:47.022661,11890,0.005765,0.466174,0.471671,0.035056,0.041366,0.996342
2011-09-26T13:21:47.032661,11900,0.073556,0.457413,0.470851,0.035638,0.040752,0.994892
2011-09-26T13:21:47.042661,11910,0.141347,0.448652,0.470031,0.036219,0.040137,0.993442
2011-09-26T13:21:47.052661,11920,0.147488,0.449120,0.467618,0.036004,0.040959,0.993108
2011-09-26T13:21:47.062661,11930,0.150288,0.450087,0.465118,0.035745,0.041859,0.992836
2011-09-26T13:21:47.072661,11940,0.153088,0.451054,0.462619,0.035487,0.042759,0.992563
2011-09-26T13:21:47.082661,11950,0.155889,0.452021,0.460119,0.035228,0.043658,0.992290
2011-09-26T13:21:47.092661,11960,0.158689,0.452988,0.457619,0.034970,0.044558,0.992018
2011-09-26T13:21:47.102661,11970,0.161490,0.453956,0.455120,0.034711,0.045458,0.991745
2011-09-26T13:21:47.112661,11980,0.164290,0.454923,0.452620,0.034453,0.046358,0.991472
2011-09-26T13:21:47.122661,11990,0.167090,0.455890,0.450121,0.034194,0.047257,0.991199
2011-09-26T13:21:47.132661,12000,0.169891,0.456857,0.447621,0.033936,0.048157,0.990927
2011-09-26T13:21:47.142661,12010,0.172691,0.457824,0.445122,0.033677,0.049057,0.990654
2011-09-26T13:21:47.152661,12020,0.175492,0.458792,0.442622,0.033418,0.049957,0.990381
2011-09-26T13:21:47.162661,12030,0.194957,0.434179,0.427548,0.033076,0.051193,0.989837
2011-09-26T13:21:47.172661,12040,0.215279,0.408251,0.411828,0.032729,0.052447,0.989279
2011-09-26T13:21:47.182661,12050,0.235601,0.382323,0.396107,0.032382,0.053700,0.988721
2011-09-26T13:21:47.192661,12060,0.255923,0.356395,0.380387,0.032036,0.054954,0.988163
2011-09-26T13:21:47.202661,12070,0.276245,0.330468,0.364666,0.031689,0.056208,0.987605
2011-09-26T13:21:47.212661,12080,0.296567,0.304540,0.348946,0.031342,0.057461,0.987047
2011-09-26T13:21:47.222661,12090,0.316889,0.278612,0.333225,0.030995,0.058715,0.986489
2011-09-26T13:21:47.232661,12100,0.337211,0.252684,0.317505,0.030649,0.059969,0.985931
2011-09-26T13:21:47.242661,12110,0.357532,0.226756,0.301784,0.030302,0.061222,0.985373
2011-09-26T13:21:47.252661,12120,0.377854,0.200829,0.286064,0.029955,0.062476,0.984815
2011-09-26T13:21:47.262661,12130,0.352109,0.153010,0.278287,0.029501,0.061481,0.986444
2011-09-26T13:21:47.272661,12140,0.323194,0.103685,0.271057,0.029039,0.060332,0.988223
2011-09-26T13:21:47.282661,12150,0.294278,0.054359,0.263827,0.028578,0.059183,0.990002
2011-09-26T13:21:47.292661,12160,0.265363,0.005034,0.256597,0.028116,0.058034,0.991781
2011-09-26T13:21:47.302661,12170,0.236447,-0.044291,0.249367,0.027655,0.056885,0.993561
2011-09-26T13:21:47.312661,12180,0.207532,-0.093616,0.242137,0.027193,0.055736,0.995340
2011-09-26T13:21:47.322661,12190,0.178617,-0.142941,0.234907,0.026731,0.054587,0.997119
2011-09-26T13:21:47.332661,12200,0.149701,-0.192267,0.227677,0.026270,0.053438,0.998898
2011-09-26T13:21:47.342661,12210,0.120786,-0.241592,0.220447,0.025808,0.052289,1.000678
2011-09-26T13:21:47.352661,12220,0.091871,-0.290917,0.213217,0.025347,0.051140,1.002457
2011-09-26T13:21:47.362661,12230,0.063258,-0.330057,0.196673,0.025369,0.051459,1.003945
2011-09-26T13:21:47.372661,12240,0.034661,-0.368665,0.179644,0.025416,0.051855,1.005417
2011-09-26T13:21:47.382661,12250,0.006065,-0.407274,0.162614,0.025463,0.052250,1.006890
2011-09-26T13:21:47.392661,12260,-0.022532,-0.445882,0.145584,0.025510,0.052646,1.008362
2011-09-26T13:21:47.402661,12270,-0.051129,-0.484491,0.128554,0.025557,0.053042,1.009835
2011-09-26T13:21:47.412661,12280,-0.079726,-0.523100,0.111525,0.025604,0.053438,1.011307
2011-09-26T13:21:47.422661,12290,-0.108322,-0.561708,0.094495,0.025651,0.053834,1.012780
2011-09-26T13:21:47.432661,12300,-0.136919,-0.600317,0.077465,0.025698,0.054230,1.014252
2011-09-26T13:21:47.442661,12310,-0.165516,-0.638925,0.060435,0.025746,0.054625,1.015725
2011-09-26T13:21:47.452661,12320,-0.194113,-0.677534,0.043406,0.025793,0.055021,1.017197
2011-09-26T13:21:47.462661,12330,-0.222709,-0.716142,0.026376,0.025840,0.055417,1.018670
2011-09-26T13:21:47.472661,12340,-0.226647,-0.696100,-0.001050,0.025990,0.053855,1.019644
2011-09-26T13:21:47.482661,12350,-0.229374,-0.673179,-0.028985,0.026145,0.052196,1.020594
2011-09-26T13:21:47.492661,12360,-0.232101,-0.650257,-0.056921,0.026300,0.050537,1.021544
2011-09-26T13:21:47.502661,12370,-0.234828,-0.627335,-0.084857,0.026455,0.048879,1.022493
2011-09-26T13:21:47.512661,12380,-0.237555,-0.604413,-0.112793,0.026611,0.047220,1.023443
2011-09-26T13:21:47.522661,12390,-0.240282,-0.581492,-0.140729,0.026766,0.045562,1.024393
2011-09-26T13:21:47.532661,12400,-0.243009,-0.558570,-0.168665,0.026921,0.043903,1.025343
2011-09-26T13:21:47.542661,12410,-0.245736,-0.535648,-0.196601,0.027076,0.042244,1.026293
2011-09-26T13:21:47.552661,12420,-0.248463,-0.512727,-0.224537,0.027231,0.040586,1.027242
2011-09-26T13:21:47.562661,12430,-0.251191,-0.489805,-0.252473,0.027387,0.038927,1.028192
2011-09-26T13:21:47.572661,12440,-0.279074,-0.418538,-0.265692,0.027196,0.039198,1.026938
2011-09-26T13:21:47.582661,12450,-0.308272,-0.344743,-0.278141,0.026986,0.039569,1.025568
2011-09-26T13:21:47.592661,12460,-0.337471,-0.270948,-0.290591,0.026777,0.039940,1.024198
2011-09-26T13:21:47.602661,12470,-0.366669,-0.197153,-0.303040,0.026568,0.040311,1.022828
2011-09-26T13:21:47.612661,12480,-0.395868,-0.123358,-0.315490,0.026359,0.040682,1.021458
2011-09-26T13:21:47.622661,12490,-0.425066,-0.049563,-0.327939,0.026150,0.041054,1.020088
2011-09-26T13:21:47.632661,12500,-0.454265,0.024232,-0.340389,0.025941,0.041425,1.018718
2011-09-26T13:21:47.642661,12510,-0.483463,0.098027,-0.352838,0.025732,0.041796,1.017348
2011-09-26T13:21:47.652661,12520,-0.512662,0.171822,-0.365288,0.025523,0.042167,1.015979
2011-09-26T13:21:47.662661,12530,-0.541861,0.245617,-0.377737,0.025314,0.042538,1.014609
2011-09-26T13:21:47.672661,12540,-0.548562,0.292020,-0.391350,0.024639,0.040326,1.011390
2011-09-26T13:21:47.682661,12550,-0.554102,0.337009,-0.405023,0.023940,0.037981,1.008076
2011-09-26T13:21:47.692661,12560,-0.559642,0.381998,-0.418696,0.023241,0.035636,1.004763
2011-09-26T13:21:47.702661,12570,-0.565182,0.426986,-0.432369,0.022543,0.033290,1.001449
2011-09-26T13:21:47.712661,12580,-0.570722,0.471975,-0.446042,0.021844,0.030945,0.998135
2011-09-26T13:21:47.722661,12590,-0.576262,0.516964,-0.459714,0.021145,0.028600,0.994821
2011-09-26T13:21:47.732661,12600,-0.581802,0.561953,-0.473387,0.020446,0.026254,0.991507
2011-09-26T13:21:47.742661,12610,-0.587342,0.606941,-0.487060,0.019748,0.023909,0.988193
2011-09-26T13:21:47.752661,12620,-0.592882,0.651930,-0.500733,0.019049,0.021564,0.984879
2011-09-26T13:21:47.762661,12630,-0.598422,0.696919,-0.514406,0.018350,0.019218,0.981566
2011-09-26T13:21:47.772661,12640,-0.603962,0.741907,-0.528079,0.017651,0.016873,0.978252
2011-09-26T13:21:47.782661,12650,-0.565994,0.697050,-0.544030,0.017491,0.015581,0.979390
2011-09-26T13:21:47.792661,12660,-0.525278,0.646518,-0.560126,0.017364,0.014357,0.980810
2011-09-26T13:21:47.802661,12670,-0.484562,0.595986,-0.576221,0.017237,0.013132,0.982230
2011-09-26T13:21:47.812661,12680,-0.443846,0.545455,-0.592316,0.017110,0.011907,0.983649
2011-09-26T13:21:47.822661,12690,-0.403130,0.494923,-0.608412,0.016983,0.010682,0.985069
2011-09-26T13:21:47.832661,12700,-0.362415,0.444391,-0.624507,0.016856,0.009457,0.986489
2011-09-26T13:21:47.842661,12710,-0.321699,0.393860,-0.640602,0.016730,0.008233,0.987908
2011-09-26T13:21:47.852661,12720,-0.280983,0.343328,-0.656698,0.016603,0.007008,0.989328
2011-09-26T13:21:47.862661,12730,-0.240267,0.292796,-0.672793,0.016476,0.005783,0.990748
2011-09-26T13:21:47.872661,12740,-0.199551,0.242265,-0.688888,0.016349,0.004558,0.992168
2011-09-26T13:21:47.882661,12750,-0.170307,0.153087,-0.677267,0.016233,0.004510,0.992855
2011-09-26T13:21:47.892661,12760,-0.141734,0.061652,-0.664025,0.016117,0.004531,0.993500
2011-09-26T13:21:47.902661,12770,-0.113160,-0.029784,-0.650784,0.016001,0.004551,0.994145
2011-09-26T13:21:47.912661,12780,-0.084587,-0.121219,-0.637543,0.015886,0.004572,0.994790
2011-09-26T13:21:47.922661,12790,-0.056013,-0.212654,-0.624302,0.015770,0.004593,0.995434
2011-09-26T13:21:47.932661,12800,-0.027439,-0.304090,-0.611060,0.015654,0.004613,0.996079
2011-09-26T13:21:47.942661,12810,0.001134,-0.395525,-0.597819,0.015538,0.004634,0.996724
2011-09-26T13:21:47.952661,12820,0.029708,-0.486960,-0.584578,0.015423,0.004655,0.997369
2011-09-26T13:21:47.962661,12830,0.058282,-0.578396,-0.571337,0.015307,0.004675,0.998013
2011-09-26T13:21:47.972661,12840,0.086855,-0.669831,-0.558096,0.015191,0.004696,0.998658
2011-09-26T13:21:47.982661,12850,0.114323,-0.707386,-0.555153,0.015746,0.005343,1.000768
2011-09-26T13:21:47.992661,12860,0.141725,-0.741757,-0.552819,0.016340,0.006027,1.002965
2011-09-26T13:21:48.002661,12870,0.169127,-0.776128,-0.550484,0.016934,0.006711,1.005162
2011-09-26T13:21:48.012661,12880,0.196529,-0.810499,-0.548150,0.017528,0.007395,1.007359
2011-09-26T13:21:48.022661,12890,0.223931,-0.844870,-0.545816,0.018123,0.008079,1.009555
2011-09-26T13:21:48.032661,12900,0.251333,-0.879241,-0.543481,0.018717,0.008763,1.011752
2011-09-26T13:21:48.042661,12910,0.278735,-0.913612,-0.541147,0.019311,0.009447,1.013949
2011-09-26T13:21:48.052661,12920,0.306137,-0.947983,-0.538813,0.019905,0.010131,1.016146
2011-09-26T13:21:48.062661,12930,0.333539,-0.982354,-0.536478,0.020500,0.010815,1.018342
2011-09-26T13:21:48.072661,12940,0.360941,-1.016725,-0.534144,0.021094,0.011500,1.020539
2011-09-26T13:21:48.082661,12950,0.388343,-1.051096,-0.531810,0.021688,0.012184,1.022736
2011-09-26T13:21:48.092661,12960,0.382013,-0.991948,-0.531938,0.022907,0.012461,1.023830
2011-09-26T13:21:48.102661,12970,0.373848,-0.927713,-0.532200,0.024159,0.012716,1.024865
2011-09-26T13:21:48.112661,12980,0.365683,-0.863478,-0.532462,0.025412,0.012971,1.025900
2011-09-26T13:21:48.122661,12990,0.357518,-0.799243,-0.532724,0.026665,0.013226,1.026934
2011-09-26T13:21:48.132661,13000,0.349353,-0.735008,-0.532987,0.027918,0.013481,1.027969
2011-09-26T13:21:48.142661,13010,0.341188,-0.670773,-0.533249,0.029170,0.013736,1.029004
2011-09-26T13:21:48.152661,13020,0.333022,-0.606538,-0.533511,0.030423,0.013992,1.030038
2011-09-26T13:21:48.162661,13030,0.324857,-0.542303,-0.533773,0.031676,0.014247,1.031073
2011-09-26T13:21:48.172661,13040,0.316692,-0.478068,-0.534035,0.032929,0.014502,1.032107
2011-09-26T13:21:48.182661,13050,0.308527,-0.413833,-0.534297,0.034181,0.014757,1.033142
2011-09-26T13:21:48.192661,13060,0.302979,-0.348968,-0.533817,0.033740,0.014541,1.030556
2011-09-26T13:21:48.202661,13070,0.297580,-0.284068,-0.533294,0.033201,0.014299,1.027762
2011-09-26T13:21:48.212661,13080,0.292181,-0.219168,-0.532771,0.032662,0.014056,1.024968
2011-09-26T13:21:48.222661,13090,0.286782,-0.154267,-0.532248,0.032124,0.013814,1.022174
2011-09-26T13:21:48.232661,13100,0.281384,-0.089367,-0.531725,0.031585,0.013571,1.019380
2011-09-26T13:21:48.242661,13110,0.275985,-0.024467,-0.531202,0.031046,0.013329,1.016586
2011-09-26T13:21:48.252661,13120,0.270586,0.040434,-0.530679,0.030507,0.013086,1.013792
2011-09-26T13:21:48.262661,13130,0.265187,0.105334,-0.530155,0.029968,0.012844,1.010998
2011-09-26T13:21:48.272661,13140,0.259788,0.170234,-0.529632,0.029430,0.012601,1.008204
2011-09-26T13:21:48.282661,13150,0.254390,0.235135,-0.529109,0.028891,0.012359,1.005410
2011-09-26T13:21:48.292661,13160,0.248325,0.249933,-0.529701,0.029031,0.012356,1.003242
2011-09-26T13:21:48.302661,13170,0.242219,0.261612,-0.530362,0.029214,0.012368,1.001113
2011-09-26T13:21:48.312661,13180,0.236113,0.273292,-0.531022,0.029397,0.012380,0.998983
2011-09-26T13:21:48.322661,13190,0.230008,0.284971,-0.531683,0.029580,0.012392,0.996854
2011-09-26T13:21:48.332661,13200,0.223902,0.296651,-0.532344,0.029762,0.012405,0.994724
2011-09-26T13:21:48.342661,13210,0.217796,0.308330,-0.533005,0.029945,0.012417,0.992595
2011-09-26T13:21:48.352661,13220,0.211690,0.320010,-0.533665,0.030128,0.012429,0.990466
2011-09-26T13:21:48.362661,13230,0.205584,0.331689,-0.534326,0.030311,0.012441,0.988336
2011-09-26T13:21:48.372661,13240,0.199478,0.343369,-0.534987,0.030493,0.012453,0.986207
2011-09-26T13:21:48.382661,13250,0.193372,0.355048,-0.535648,0.030676,0.012465,0.984077
2011-09-26T13:21:48.392661,13260,0.187266,0.366728,-0.536308,0.030859,0.012478,0.981948
2011-09-26T13:21:48.402661,13270,0.197505,0.288370,-0.524909,0.030526,0.012747,0.983360
2011-09-26T13:21:48.412661,13280,0.208728,0.204591,-0.512783,0.030162,0.013032,0.984985
2011-09-26T13:21:48.422661,13290,0.219951,0.120812,-0.500658,0.029798,0.013317,0.986610
2011-09-26T13:21:48.432661,13300,0.231174,0.037033,-0.488532,0.029434,0.013602,0.988236
2011-09-26T13:21:48.442661,13310,0.242397,-0.046746,-0.476407,0.029070,0.013887,0.989861
2011-09-26T13:21:48.452661,13320,0.253620,-0.130524,-0.464281,0.028706,0.014172,0.991486
2011-09-26T13:21:48.462661,13330,0.264843,-0.214303,-0.452156,0.028342,0.014457,0.993111
2011-09-26T13:21:48.472661,13340,0.276066,-0.298082,-0.440030,0.027978,0.014742,0.994736
2011-09-26T13:21:48.482661,13350,0.287289,-0.381861,-0.427905,0.027614,0.015027,0.996362
2011-09-26T13:21:48.492661,13360,0.298512,-0.465640,-0.415779,0.027250,0.015312,0.997987
2011-09-26T13:21:48.502661,13370,0.270358,-0.485886,-0.408556,0.027365,0.016210,0.999994
2011-09-26T13:21:48.512661,13380,0.239956,-0.502506,-0.401612,0.027506,0.017143,1.002022
2011-09-26T13:21:48.522661,13390,0.209554,-0.519127,-0.394669,0.027648,0.018076,1.004051
2011-09-26T13:21:48.532661,13400,0.179153,-0.535747,-0.387725,0.027789,0.019008,1.006079
2011-09-26T13:21:48.542661,13410,0.148751,-0.552368,-0.380781,0.027931,0.019941,1.008108
2011-09-26T13:21:48.552661,13420,0.118350,-0.568989,-0.373837,0.028072,0.020874,1.010136
2011-09-26T13:21:48.562661,13430,0.087948,-0.585609,-0.366894,0.028214,0.021807,1.012165
2011-09-26T13:21:48.572661,13440,0.057546,-0.602230,-0.359950,0.028355,0.022740,1.014194
2011-09-26T13:21:48.582661,13450,0.027145,-0.618850,-0.353006,0.028497,0.023673,1.016222
2011-09-26T13:21:48.592661,13460,-0.003257,-0.635471,-0.346063,0.028638,0.024606,1.018251
2011-09-26T13:21:48.602661,13470,-0.033659,-0.652092,-0.339119,0.028779,0.025539,1.020279
2011-09-26T13:21:48.612661,13480,-0.023423,-0.593929,-0.332225,0.029101,0.026113,1.020129
2011-09-26T13:21:48.622661,13490,-0.010012,-0.529921,-0.325335,0.029436,0.026659,1.019808
2011-09-26T13:21:48.632661,13500,0.003399,-0.465913,-0.318444,0.029771,0.027204,1.019487
2011-09-26T13:21:48.642661,13510,0.016811,-0.401906,-0.311554,0.030106,0.027750,1.019167
2011-09-26T13:21:48.652661,13520,0.030222,-0.337898,-0.304664,0.030441,0.028296,1.018846
2011-09-26T13:21:48.662661,13530,0.043633,-0.273891,-0.297773,0.030777,0.028841,1.018525
2011-09-26T13:21:48.672661,13540,0.057044,-0.209883,-0.290883,0.031112,0.029387,1.018204
2011-09-26T13:21:48.682661,13550,0.070456,-0.145876,-0.283993,0.031447,0.029933,1.017883
2011-09-26T13:21:48.692661,13560,0.083867,-0.081868,-0.277102,0.031782,0.030478,1.017563
2011-09-26T13:21:48.702661,13570,0.097278,-0.017861,-0.270212,0.032117,0.031024,1.017242
2011-09-26T13:21:48.712661,13580,0.113883,0.030444,-0.262276,0.031241,0.031555,1.015421
2011-09-26T13:21:48.722661,13590,0.130710,0.077659,-0.254267,0.030281,0.032086,1.013495
2011-09-26T13:21:48.732661,13600,0.147537,0.124874,-0.246258,0.029321,0.032616,1.011570
2011-09-26T13:21:48.742661,13610,0.164363,0.172089,-0.238249,0.028361,0.033146,1.009645
2011-09-26T13:21:48.752661,13620,0.181190,0.219305,-0.230240,0.027400,0.033677,1.007720
2011-09-26T13:21:48.762661,13630,0.198017,0.266520,-0.222231,0.026440,0.034207,1.005794
2011-09-26T13:21:48.772661,13640,0.214843,0.313735,-0.214222,0.025480,0.034737,1.003869
2011-09-26T13:21:48.782661,13650,0.231670,0.360950,-0.206213,0.024520,0.035267,1.001944
2011-09-26T13:21:48.792661,13660,0.248496,0.408165,-0.198204,0.023559,0.035798,1.000019
2011-09-26T13:21:48.802661,13670,0.265323,0.455380,-0.190195,0.022599,0.036328,0.998094
