pc_time,ts_ms,gyroX,gyroY,gyroZ,accelX,accelY,accelZ
2011-10-03T14:57:27.036448,0,-0.054319,0.020160,-0.022819,-0.008976,-0.024732,1.005429
2011-10-03T14:57:27.046448,10,-0.049355,0.028851,-0.021732,-0.009468,-0.024756,1.004803
2011-10-03T14:57:27.056448,20,-0.044391,0.037543,-0.020646,-0.009960,-0.024780,1.004177
2011-10-03T14:57:27.066448,30,-0.039427,0.046235,-0.019559,-0.010452,-0.024804,1.003551
2011-10-03T14:57:27.076448,40,-0.034462,0.054927,-0.018473,-0.010944,-0.024828,1.002925
2011-10-03T14:57:27.086448,50,-0.029498,0.063619,-0.017386,-0.011436,-0.024852,1.002299
2011-10-03T14:57:27.096448,60,-0.024534,0.072311,-0.016300,-0.011929,-0.024876,1.001673
2011-10-03T14:57:27.106448,70,-0.019570,0.081003,-0.015213,-0.012421,-0.024900,1.001047
2011-10-03T14:57:27.116448,80,-0.014606,0.089695,-0.014127,-0.012913,-0.024924,1.000421
2011-10-03T14:57:27.126448,90,-0.009642,0.098387,-0.013040,-0.013405,-0.024948,0.999795
2011-10-03T14:57:27.136448,100,-0.004678,0.107078,-0.011954,-0.013897,-0.024972,0.999169
2011-10-03T14:57:27.146448,110,0.000286,0.115770,-0.010867,-0.014389,-0.024997,0.998543
2011-10-03T14:57:27.156448,120,-0.011663,0.111594,-0.003166,-0.014766,-0.024846,0.998662
2011-10-03T14:57:27.166448,130,-0.023899,0.107200,0.004647,-0.015140,-0.024692,0.998793
2011-10-03T14:57:27.176448,140,-0.036136,0.102805,0.012460,-0.015514,-0.024538,0.998925
2011-10-03T14:57:27.186448,150,-0.048372,0.098411,0.020273,-0.015888,-0.024384,0.999056
2011-10-03T14:57:27.196448,160,-0.060609,0.094016,0.028087,-0.016262,-0.024230,0.999188
2011-10-03T14:57:27.206448,170,-0.072846,0.089622,0.035900,-0.016636,-0.024076,0.999319
2011-10-03T14:57:27.216448,180,-0.085082,0.085227,0.043713,-0.017010,-0.023923,0.999451
2011-10-03T14:57:27.226448,190,-0.097319,0.080832,0.051526,-0.017385,-0.023769,0.999583
2011-10-03T14:57:27.236448,200,-0.109555,0.076438,0.059340,-0.017759,-0.023615,0.999714
2011-10-03T14:57:27.246448,210,-0.121557,0.071770,0.066952,-0.018128,-0.023466,0.999839
2011-10-03T14:57:27.256448,220,-0.112281,0.042243,0.056345,-0.018094,-0.023735,0.999390
2011-10-03T14:57:27.266448,230,-0.103006,0.012717,0.045738,-0.018060,-0.024005,0.998942
2011-10-03T14:57:27.276448,240,-0.093730,-0.016810,0.035130,-0.018026,-0.024275,0.998493
2011-10-03T14:57:27.286448,250,-0.084454,-0.046336,0.024523,-0.017992,-0.024544,0.998044
2011-10-03T14:57:27.296448,260,-0.075178,-0.075863,0.013916,-0.017958,-0.024814,0.997595
2011-10-03T14:57:27.306448,270,-0.065902,-0.105390,0.003308,-0.017924,-0.025084,0.997146
2011-10-03T14:57:27.316448,280,-0.056626,-0.134916,-0.007299,-0.017890,-0.025353,0.996697
2011-10-03T14:57:27.326448,290,-0.047350,-0.164443,-0.017906,-0.017855,-0.025623,0.996249
2011-10-03T14:57:27.336448,300,-0.038074,-0.193969,-0.028514,-0.017821,-0.025893,0.995800
2011-10-03T14:57:27.346448,310,-0.028829,-0.223034,-0.039004,-0.017790,-0.026159,0.995362
2011-10-03T14:57:27.356448,320,-0.022719,-0.205042,-0.037559,-0.018052,-0.026119,0.996071
2011-10-03T14:57:27.366448,330,-0.016608,-0.187050,-0.036114,-0.018315,-0.026079,0.996780
2011-10-03T14:57:27.376448,340,-0.010498,-0.169058,-0.034669,-0.018577,-0.026039,0.997489
2011-10-03T14:57:27.386448,350,-0.004388,-0.151065,-0.033224,-0.018840,-0.025999,0.998198
2011-10-03T14:57:27.396448,360,0.001722,-0.133073,-0.031779,-0.019102,-0.025959,0.998907
2011-10-03T14:57:27.406448,370,0.007832,-0.115081,-0.030334,-0.019365,-0.025919,0.999615
2011-10-03T14:57:27.416448,380,0.013942,-0.097089,-0.028889,-0.019627,-0.025879,1.000324
2011-10-03T14:57:27.426448,390,0.020052,-0.079097,-0.027444,-0.019889,-0.025839,1.001033
2011-10-03T14:57:27.436448,400,0.026163,-0.061105,-0.025999,-0.020152,-0.025799,1.001742
2011-10-03T14:57:27.446448,410,0.032273,-0.043113,-0.024554,-0.020414,-0.025759,1.002451
2011-10-03T14:57:27.456448,420,0.038413,-0.025153,-0.023188,-0.020678,-0.025720,1.003151
2011-10-03T14:57:27.466448,430,0.047628,-0.010530,-0.030030,-0.021071,-0.025737,1.002932
2011-10-03T14:57:27.476448,440,0.056843,0.004093,-0.036872,-0.021463,-0.025754,1.002713
2011-10-03T14:57:27.486448,450,0.066058,0.018716,-0.043714,-0.021856,-0.025771,1.002494
2011-10-03T14:57:27.496448,460,0.075274,0.033339,-0.050556,-0.022248,-0.025788,1.002275
2011-10-03T14:57:27.506448,470,0.084489,0.047962,-0.057398,-0.022641,-0.025806,1.002055
2011-10-03T14:57:27.516448,480,0.093704,0.062586,-0.064240,-0.023033,-0.025823,1.001836
2011-10-03T14:57:27.526448,490,0.102919,0.077209,-0.071082,-0.023426,-0.025840,1.001617
2011-10-03T14:57:27.536448,500,0.112135,0.091832,-0.077924,-0.023818,-0.025857,1.001398
2011-10-03T14:57:27.546448,510,0.121350,0.106455,-0.084766,-0.024211,-0.025874,1.001179
2011-10-03T14:57:27.556448,520,0.130361,0.120647,-0.091486,-0.024605,-0.025887,1.000955
2011-10-03T14:57:27.566448,530,0.123331,0.101078,-0.088649,-0.025115,-0.025575,1.000301
2011-10-03T14:57:27.576448,540,0.116302,0.081509,-0.085813,-0.025626,-0.025263,0.999647
2011-10-03T14:57:27.586448,550,0.109273,0.061940,-0.082977,-0.026136,-0.024951,0.998993
2011-10-03T14:57:27.596448,560,0.102244,0.042371,-0.080141,-0.026647,-0.024639,0.998339
2011-10-03T14:57:27.606448,570,0.095215,0.022802,-0.077304,-0.027157,-0.024327,0.997685
2011-10-03T14:57:27.616448,580,0.088186,0.003234,-0.074468,-0.027668,-0.024014,0.997031
2011-10-03T14:57:27.626448,590,0.081157,-0.016335,-0.071632,-0.028178,-0.023702,0.996377
2011-10-03T14:57:27.636448,600,0.074128,-0.035904,-0.068795,-0.028689,-0.023390,0.995723
2011-10-03T14:57:27.646448,610,0.067099,-0.055473,-0.065959,-0.029199,-0.023078,0.995069
2011-10-03T14:57:27.656448,620,0.060070,-0.075042,-0.063123,-0.029710,-0.022766,0.994415
2011-10-03T14:57:27.666448,630,0.048832,-0.079588,-0.049398,-0.029350,-0.022800,0.995250
2011-10-03T14:57:27.676448,640,0.037575,-0.084062,-0.035620,-0.028985,-0.022837,0.996092
2011-10-03T14:57:27.686448,650,0.026318,-0.088535,-0.021842,-0.028620,-0.022873,0.996933
2011-10-03T14:57:27.696448,660,0.015060,-0.093009,-0.008064,-0.028256,-0.022909,0.997775
2011-10-03T14:57:27.706448,670,0.003803,-0.097482,0.005714,-0.027891,-0.022946,0.998617
2011-10-03T14:57:27.716448,680,-0.007455,-0.101956,0.019492,-0.027527,-0.022982,0.999459
2011-10-03T14:57:27.726448,690,-0.018712,-0.106429,0.033269,-0.027162,-0.023018,1.000301
2011-10-03T14:57:27.736448,700,-0.029970,-0.110903,0.047047,-0.026797,-0.023054,1.001143
2011-10-03T14:57:27.746448,710,-0.041227,-0.115376,0.060825,-0.026433,-0.023091,1.001985
2011-10-03T14:57:27.756448,720,-0.052485,-0.119849,0.074603,-0.026068,-0.023127,1.002827
2011-10-03T14:57:27.766448,730,-0.063723,-0.123969,0.088328,-0.025707,-0.023160,1.003654
2011-10-03T14:57:27.776448,740,-0.073245,-0.095308,0.097221,-0.025661,-0.022920,1.003147
2011-10-03T14:57:27.786448,750,-0.082767,-0.066646,0.106114,-0.025616,-0.022680,1.002640
2011-10-03T14:57:27.796448,760,-0.092288,-0.037985,0.115006,-0.025570,-0.022439,1.002133
2011-10-03T14:57:27.806448,770,-0.101810,-0.009324,0.123899,-0.025524,-0.022199,1.001626
2011-10-03T14:57:27.816448,780,-0.111331,0.019337,0.132792,-0.025479,-0.021959,1.001119
2011-10-03T14:57:27.826448,790,-0.120853,0.047998,0.141685,-0.025433,-0.021719,1.000612
2011-10-03T14:57:27.836448,800,-0.130374,0.076659,0.150577,-0.025387,-0.021479,1.000105
2011-10-03T14:57:27.846448,810,-0.139896,0.105320,0.159470,-0.025341,-0.021238,0.999598
2011-10-03T14:57:27.856448,820,-0.149417,0.133981,0.168363,-0.025296,-0.020998,0.999091
2011-10-03T14:57:27.866448,830,-0.158803,0.162005,0.177111,-0.025252,-0.020766,0.998593
2011-10-03T14:57:27.876448,840,-0.159218,0.147908,0.176331,-0.025313,-0.021052,0.998701
2011-10-03T14:57:27.886448,850,-0.159632,0.133811,0.175552,-0.025374,-0.021339,0.998809
2011-10-03T14:57:27.896448,860,-0.160047,0.119714,0.174772,-0.025435,-0.021625,0.998917
2011-10-03T14:57:27.906448,870,-0.160462,0.105617,0.173992,-0.025496,-0.021912,0.999025
2011-10-03T14:57:27.916448,880,-0.160876,0.091521,0.173213,-0.025558,-0.022198,0.999133
2011-10-03T14:57:27.926448,890,-0.161291,0.077424,0.172433,-0.025619,-0.022485,0.999241
2011-10-03T14:57:27.936448,900,-0.161706,0.063327,0.171653,-0.025680,-0.022771,0.999349
2011-10-03T14:57:27.946448,910,-0.162121,0.049230,0.170874,-0.025741,-0.023058,0.999457
2011-10-03T14:57:27.956448,920,-0.162535,0.035134,0.170094,-0.025802,-0.023344,0.999565
2011-10-03T14:57:27.966448,930,-0.162950,0.021037,0.169315,-0.025863,-0.023631,0.999673
2011-10-03T14:57:27.976448,940,-0.163112,0.007178,0.168411,-0.025927,-0.023916,0.999783
2011-10-03T14:57:27.986448,950,-0.146089,0.009499,0.159081,-0.026147,-0.024132,1.000064
2011-10-03T14:57:27.996448,960,-0.129065,0.011820,0.149751,-0.026367,-0.024348,1.000346
2011-10-03T14:57:28.006448,970,-0.112041,0.014142,0.140421,-0.026588,-0.024564,1.000627
2011-10-03T14:57:28.016448,980,-0.095018,0.016463,0.131092,-0.026808,-0.024779,1.000908
2011-10-03T14:57:28.026448,990,-0.077994,0.018784,0.121762,-0.027028,-0.024995,1.001189
2011-10-03T14:57:28.036448,1000,-0.060971,0.021105,0.112432,-0.027248,-0.025211,1.001471
2011-10-03T14:57:28.046448,1010,-0.043947,0.023427,0.103102,-0.027469,-0.025427,1.001752
2011-10-03T14:57:28.056448,1020,-0.026923,0.025748,0.093772,-0.027689,-0.025642,1.002033
2011-10-03T14:57:28.066448,1030,-0.009900,0.028069,0.084442,-0.027909,-0.025858,1.002315
2011-10-03T14:57:28.076448,1040,0.007032,0.030426,0.075239,-0.028127,-0.026071,1.002593
2011-10-03T14:57:28.086448,1050,0.013391,0.036904,0.080553,-0.028043,-0.025956,1.002506
2011-10-03T14:57:28.096448,1060,0.019750,0.043382,0.085867,-0.027960,-0.025840,1.002420
2011-10-03T14:57:28.106448,1070,0.026109,0.049860,0.091182,-0.027877,-0.025725,1.002333
2011-10-03T14:57:28.116448,1080,0.032468,0.056337,0.096496,-0.027794,-0.025609,1.002246
2011-10-03T14:57:28.126448,1090,0.038827,0.062815,0.101811,-0.027710,-0.025494,1.002160
2011-10-03T14:57:28.136448,1100,0.045186,0.069293,0.107125,-0.027627,-0.025379,1.002073
2011-10-03T14:57:28.146448,1110,0.051545,0.075771,0.112440,-0.027544,-0.025263,1.001987
2011-10-03T14:57:28.156448,1120,0.057904,0.082248,0.117754,-0.027460,-0.025148,1.001900
2011-10-03T14:57:28.166448,1130,0.064263,0.088726,0.123068,-0.027377,-0.025032,1.001814
2011-10-03T14:57:28.176448,1140,0.070608,0.095184,0.128388,-0.027294,-0.024918,1.001723
2011-10-03T14:57:28.186448,1150,0.074784,0.098617,0.134454,-0.027190,-0.024936,1.000961
2011-10-03T14:57:28.196448,1160,0.078961,0.102050,0.140520,-0.027086,-0.024955,1.000200
2011-10-03T14:57:28.206448,1170,0.083137,0.105482,0.146586,-0.026982,-0.024974,0.999439
2011-10-03T14:57:28.216448,1180,0.087314,0.108915,0.152652,-0.026879,-0.024992,0.998677
2011-10-03T14:57:28.226448,1190,0.091490,0.112348,0.158718,-0.026775,-0.025011,0.997916
2011-10-03T14:57:28.236448,1200,0.095667,0.115780,0.164784,-0.026671,-0.025029,0.997154
2011-10-03T14:57:28.246448,1210,0.099843,0.119213,0.170850,-0.026567,-0.025048,0.996393
2011-10-03T14:57:28.256448,1220,0.104020,0.122646,0.176916,-0.026464,-0.025067,0.995631
2011-10-03T14:57:28.266448,1230,0.108196,0.126078,0.182982,-0.026360,-0.025085,0.994870
2011-10-03T14:57:28.276448,1240,0.112373,0.129511,0.189048,-0.026256,-0.025104,0.994109
2011-10-03T14:57:28.286448,1250,0.116449,0.132695,0.195139,-0.026156,-0.025124,0.993359
2011-10-03T14:57:28.296448,1260,0.110362,0.110695,0.203736,-0.026455,-0.025302,0.993818
2011-10-03T14:57:28.306448,1270,0.104275,0.088696,0.212332,-0.026753,-0.025480,0.994277
2011-10-03T14:57:28.316448,1280,0.098187,0.066697,0.220929,-0.027051,-0.025658,0.994736
2011-10-03T14:57:28.326448,1290,0.092100,0.044698,0.229526,-0.027349,-0.025836,0.995195
2011-10-03T14:57:28.336448,1300,0.086013,0.022699,0.238123,-0.027647,-0.026014,0.995654
2011-10-03T14:57:28.346448,1310,0.079926,0.000700,0.246720,-0.027945,-0.026192,0.996112
2011-10-03T14:57:28.356448,1320,0.073839,-0.021299,0.255317,-0.028243,-0.026370,0.996571
2011-10-03T14:57:28.366448,1330,0.067752,-0.043298,0.263914,-0.028541,-0.026548,0.997030
2011-10-03T14:57:28.376448,1340,0.061665,-0.065297,0.272511,-0.028839,-0.026726,0.997489
2011-10-03T14:57:28.386448,1350,0.055811,-0.087105,0.280911,-0.029125,-0.026887,0.997952
2011-10-03T14:57:28.396448,1360,0.060539,-0.100263,0.280390,-0.028876,-0.026276,0.998591
2011-10-03T14:57:28.406448,1370,0.065267,-0.113421,0.279869,-0.028628,-0.025664,0.999229
2011-10-03T14:57:28.416448,1380,0.069995,-0.126579,0.279348,-0.028379,-0.025052,0.999868
2011-10-03T14:57:28.426448,1390,0.074722,-0.139737,0.278827,-0.028130,-0.024441,1.000507
2011-10-03T14:57:28.436448,1400,0.079450,-0.152895,0.278306,-0.027882,-0.023829,1.001145
2011-10-03T14:57:28.446448,1410,0.084178,-0.166054,0.277785,-0.027633,-0.023218,1.001784
2011-10-03T14:57:28.456448,1420,0.088906,-0.179212,0.277264,-0.027385,-0.022606,1.002423
2011-10-03T14:57:28.466448,1430,0.093634,-0.192370,0.276743,-0.027136,-0.021994,1.003062
2011-10-03T14:57:28.476448,1440,0.098362,-0.205528,0.276222,-0.026888,-0.021383,1.003700
2011-10-03T14:57:28.486448,1450,0.102575,-0.218002,0.275711,-0.026637,-0.020777,1.004319
2011-10-03T14:57:28.496448,1460,0.081809,-0.197287,0.275695,-0.026318,-0.020427,1.003980
2011-10-03T14:57:28.506448,1470,0.061043,-0.176573,0.275678,-0.025998,-0.020077,1.003640
2011-10-03T14:57:28.516448,1480,0.040277,-0.155858,0.275661,-0.025679,-0.019727,1.003300
2011-10-03T14:57:28.526448,1490,0.019512,-0.135144,0.275644,-0.025359,-0.019377,1.002960
2011-10-03T14:57:28.536448,1500,-0.001254,-0.114430,0.275627,-0.025039,-0.019027,1.002620
2011-10-03T14:57:28.546448,1510,-0.022020,-0.093715,0.275610,-0.024720,-0.018677,1.002281
2011-10-03T14:57:28.556448,1520,-0.042786,-0.073001,0.275593,-0.024400,-0.018327,1.001941
2011-10-03T14:57:28.566448,1530,-0.063551,-0.052286,0.275576,-0.024080,-0.017977,1.001601
2011-10-03T14:57:28.576448,1540,-0.084317,-0.031572,0.275560,-0.023761,-0.017627,1.001261
2011-10-03T14:57:28.586448,1550,-0.105083,-0.010857,0.275543,-0.023441,-0.017277,1.000922
2011-10-03T14:57:28.596448,1560,-0.125791,0.009665,0.275436,-0.023127,-0.016941,1.000585
2011-10-03T14:57:28.606448,1570,-0.140783,0.011366,0.266512,-0.023404,-0.017992,1.000535
2011-10-03T14:57:28.616448,1580,-0.155776,0.013066,0.257587,-0.023680,-0.019043,1.000485
2011-10-03T14:57:28.626448,1590,-0.170769,0.014767,0.248663,-0.023956,-0.020094,1.000435
2011-10-03T14:57:28.636448,1600,-0.185761,0.016467,0.239739,-0.024232,-0.021145,1.000385
2011-10-03T14:57:28.646448,1610,-0.200754,0.018168,0.230814,-0.024508,-0.022196,1.000335
2011-10-03T14:57:28.656448,1620,-0.215747,0.019868,0.221890,-0.024785,-0.023247,1.000285
2011-10-03T14:57:28.666448,1630,-0.230739,0.021569,0.212966,-0.025061,-0.024298,1.000235
2011-10-03T14:57:28.676448,1640,-0.245732,0.023269,0.204041,-0.025337,-0.025348,1.000185
2011-10-03T14:57:28.686448,1650,-0.260724,0.024970,0.195117,-0.025613,-0.026399,1.000135
2011-10-03T14:57:28.696448,1660,-0.275246,0.026734,0.186288,-0.025884,-0.027421,1.000081
2011-10-03T14:57:28.706448,1670,-0.267920,0.031471,0.181853,-0.025928,-0.027085,0.999876
2011-10-03T14:57:28.716448,1680,-0.260593,0.036208,0.177419,-0.025972,-0.026750,0.999671
2011-10-03T14:57:28.726448,1690,-0.253267,0.040944,0.172985,-0.026016,-0.026414,0.999466
2011-10-03T14:57:28.736448,1700,-0.245941,0.045681,0.168551,-0.026059,-0.026079,0.999262
2011-10-03T14:57:28.746448,1710,-0.238614,0.050417,0.164116,-0.026103,-0.025743,0.999057
2011-10-03T14:57:28.756448,1720,-0.231288,0.055154,0.159682,-0.026147,-0.025407,0.998852
2011-10-03T14:57:28.766448,1730,-0.223961,0.059890,0.155248,-0.026190,-0.025072,0.998647
2011-10-03T14:57:28.776448,1740,-0.216635,0.064627,0.150814,-0.026234,-0.024736,0.998442
2011-10-03T14:57:28.786448,1750,-0.209308,0.069363,0.146379,-0.026278,-0.024401,0.998237
2011-10-03T14:57:28.796448,1760,-0.201862,0.073812,0.142032,-0.026318,-0.024078,0.998036
2011-10-03T14:57:28.806448,1770,-0.188175,0.063328,0.142203,-0.026165,-0.024428,0.998038
2011-10-03T14:57:28.816448,1780,-0.174488,0.052843,0.142374,-0.026013,-0.024779,0.998041
2011-10-03T14:57:28.826448,1790,-0.160801,0.042359,0.142545,-0.025861,-0.025129,0.998044
2011-10-03T14:57:28.836448,1800,-0.147114,0.031875,0.142715,-0.025708,-0.025480,0.998046
2011-10-03T14:57:28.846448,1810,-0.133427,0.021391,0.142886,-0.025556,-0.025830,0.998049
2011-10-03T14:57:28.856448,1820,-0.119740,0.010906,0.143057,-0.025403,-0.026181,0.998052
2011-10-03T14:57:28.866448,1830,-0.106053,0.000422,0.143228,-0.025251,-0.026531,0.998054
2011-10-03T14:57:28.876448,1840,-0.092366,-0.010062,0.143399,-0.025099,-0.026881,0.998057
2011-10-03T14:57:28.886448,1850,-0.078680,-0.020547,0.143570,-0.024946,-0.027232,0.998059
2011-10-03T14:57:28.896448,1860,-0.064993,-0.031031,0.143740,-0.024794,-0.027582,0.998062
2011-10-03T14:57:28.906448,1870,-0.051402,-0.041424,0.143789,-0.024646,-0.027911,0.998060
2011-10-03T14:57:28.916448,1880,-0.041250,-0.048534,0.139454,-0.024682,-0.027479,0.997874
2011-10-03T14:57:28.926448,1890,-0.031099,-0.055644,0.135118,-0.024718,-0.027046,0.997689
2011-10-03T14:57:28.936448,1900,-0.020947,-0.062755,0.130783,-0.024754,-0.026613,0.997504
2011-10-03T14:57:28.946448,1910,-0.010796,-0.069865,0.126448,-0.024790,-0.026180,0.997319
2011-10-03T14:57:28.956448,1920,-0.000644,-0.076975,0.122112,-0.024826,-0.025747,0.997133
2011-10-03T14:57:28.966448,1930,0.009507,-0.084085,0.117777,-0.024862,-0.025314,0.996948
2011-10-03T14:57:28.976448,1940,0.019659,-0.091196,0.113441,-0.024898,-0.024881,0.996763
2011-10-03T14:57:28.986448,1950,0.029811,-0.098306,0.109106,-0.024934,-0.024448,0.996578
2011-10-03T14:57:28.996448,1960,0.039962,-0.105416,0.104771,-0.024970,-0.024015,0.996393
2011-10-03T14:57:29.006448,1970,0.049798,-0.112243,0.100512,-0.025002,-0.023593,0.996217
2011-10-03T14:57:29.016448,1980,0.046032,-0.106857,0.099545,-0.024871,-0.023645,0.996469
2011-10-03T14:57:29.026448,1990,0.042266,-0.101472,0.098577,-0.024740,-0.023696,0.996721
2011-10-03T14:57:29.036448,2000,0.038500,-0.096086,0.097610,-0.024609,-0.023748,0.996974
2011-10-03T14:57:29.046448,2010,0.034734,-0.090701,0.096643,-0.024478,-0.023799,0.997226
2011-10-03T14:57:29.056448,2020,0.030968,-0.085316,0.095676,-0.024347,-0.023851,0.997478
2011-10-03T14:57:29.066448,2030,0.027202,-0.079930,0.094709,-0.024215,-0.023903,0.997730
2011-10-03T14:57:29.076448,2040,0.023436,-0.074545,0.093741,-0.024084,-0.023954,0.997982
2011-10-03T14:57:29.086448,2050,0.019670,-0.069159,0.092774,-0.023953,-0.024006,0.998234
2011-10-03T14:57:29.096448,2060,0.015904,-0.063774,0.091807,-0.023822,-0.024057,0.998486
2011-10-03T14:57:29.106448,2070,0.012138,-0.058388,0.090840,-0.023691,-0.024109,0.998738
2011-10-03T14:57:29.116448,2080,0.008343,-0.053033,0.089916,-0.023561,-0.024160,0.998990
2011-10-03T14:57:29.126448,2090,0.001604,-0.050621,0.093248,-0.023595,-0.024164,0.999261
2011-10-03T14:57:29.136448,2100,-0.005134,-0.048208,0.096580,-0.023628,-0.024168,0.999532
2011-10-03T14:57:29.146448,2110,-0.011873,-0.045796,0.099912,-0.023661,-0.024172,0.999803
2011-10-03T14:57:29.156448,2120,-0.018611,-0.043384,0.103244,-0.023695,-0.024176,1.000073
2011-10-03T14:57:29.166448,2130,-0.025350,-0.040972,0.106576,-0.023728,-0.024179,1.000344
2011-10-03T14:57:29.176448,2140,-0.032088,-0.038560,0.109908,-0.023762,-0.024183,1.000615
2011-10-03T14:57:29.186448,2150,-0.038827,-0.036148,0.113241,-0.023795,-0.024187,1.000886
2011-10-03T14:57:29.196448,2160,-0.045565,-0.033735,0.116573,-0.023828,-0.024191,1.001156
2011-10-03T14:57:29.206448,2170,-0.052303,-0.031323,0.119905,-0.023862,-0.024195,1.001427
2011-10-03T14:57:29.216448,2180,-0.058294,-0.029001,0.122753,-0.023903,-0.024189,1.001696
2011-10-03T14:57:29.226448,2190,-0.041656,-0.029402,0.110950,-0.024184,-0.023901,1.001911
2011-10-03T14:57:29.236448,2200,-0.025017,-0.029804,0.099147,-0.024466,-0.023612,1.002126
2011-10-03T14:57:29.246448,2210,-0.008379,-0.030205,0.087343,-0.024748,-0.023323,1.002341
2011-10-03T14:57:29.256448,2220,0.008260,-0.030606,0.075540,-0.025029,-0.023034,1.002556
2011-10-03T14:57:29.266448,2230,0.024898,-0.031007,0.063737,-0.025311,-0.022746,1.002771
2011-10-03T14:57:29.276448,2240,0.041537,-0.031408,0.051934,-0.025592,-0.022457,1.002986
2011-10-03T14:57:29.286448,2250,0.058175,-0.031810,0.040131,-0.025874,-0.022168,1.003201
2011-10-03T14:57:29.296448,2260,0.074814,-0.032211,0.028328,-0.026155,-0.021879,1.003417
2011-10-03T14:57:29.306448,2270,0.091452,-0.032612,0.016525,-0.026437,-0.021590,1.003632
2011-10-03T14:57:29.316448,2280,0.107189,-0.033152,0.005114,-0.026704,-0.021315,1.003831
2011-10-03T14:57:29.326448,2290,0.096157,-0.037791,0.005361,-0.026528,-0.021445,1.003578
2011-10-03T14:57:29.336448,2300,0.085126,-0.042431,0.005608,-0.026351,-0.021575,1.003326
2011-10-03T14:57:29.346448,2310,0.074095,-0.047071,0.005855,-0.026175,-0.021705,1.003073
2011-10-03T14:57:29.356448,2320,0.063064,-0.051711,0.006102,-0.025999,-0.021835,1.002820
2011-10-03T14:57:29.366448,2330,0.052032,-0.056350,0.006348,-0.025823,-0.021965,1.002567
2011-10-03T14:57:29.376448,2340,0.041001,-0.060990,0.006595,-0.025647,-0.022095,1.002314
2011-10-03T14:57:29.386448,2350,0.029970,-0.065630,0.006842,-0.025471,-0.022225,1.002061
2011-10-03T14:57:29.396448,2360,0.018939,-0.070270,0.007089,-0.025295,-0.022354,1.001808
2011-10-03T14:57:29.406448,2370,0.007907,-0.074910,0.007336,-0.025119,-0.022484,1.001555
2011-10-03T14:57:29.416448,2380,-0.003124,-0.079549,0.007583,-0.024943,-0.022614,1.001302
2011-10-03T14:57:29.426448,2390,-0.013851,-0.083058,0.007982,-0.024768,-0.022739,1.001048
2011-10-03T14:57:29.436448,2400,-0.016302,-0.055737,0.012530,-0.024645,-0.022710,1.000766
2011-10-03T14:57:29.446448,2410,-0.018753,-0.028415,0.017077,-0.024522,-0.022682,1.000484
2011-10-03T14:57:29.456448,2420,-0.021204,-0.001094,0.021625,-0.024399,-0.022654,1.000202
2011-10-03T14:57:29.466448,2430,-0.023654,0.026227,0.026173,-0.024276,-0.022626,0.999920
2011-10-03T14:57:29.476448,2440,-0.026105,0.053548,0.030721,-0.024153,-0.022598,0.999638
2011-10-03T14:57:29.486448,2450,-0.028556,0.080869,0.035269,-0.024030,-0.022570,0.999356
2011-10-03T14:57:29.496448,2460,-0.031007,0.108190,0.039816,-0.023907,-0.022542,0.999074
2011-10-03T14:57:29.506448,2470,-0.033458,0.135511,0.044364,-0.023784,-0.022514,0.998792
2011-10-03T14:57:29.516448,2480,-0.035908,0.162833,0.048912,-0.023660,-0.022486,0.998510
2011-10-03T14:57:29.526448,2490,-0.038884,0.189606,0.053152,-0.023544,-0.022472,0.998214
2011-10-03T14:57:29.536448,2500,-0.057318,0.200221,0.048326,-0.023628,-0.022855,0.997503
2011-10-03T14:57:29.546448,2510,-0.075753,0.210836,0.043500,-0.023713,-0.023238,0.996792
2011-10-03T14:57:29.556448,2520,-0.094188,0.221451,0.038674,-0.023797,-0.023621,0.996082
2011-10-03T14:57:29.566448,2530,-0.112623,0.232066,0.033848,-0.023882,-0.024004,0.995371
2011-10-03T14:57:29.576448,2540,-0.131058,0.242681,0.029022,-0.023966,-0.024387,0.994661
2011-10-03T14:57:29.586448,2550,-0.149493,0.253296,0.024196,-0.024050,-0.024769,0.993950
2011-10-03T14:57:29.596448,2560,-0.167928,0.263911,0.019370,-0.024135,-0.025152,0.993239
2011-10-03T14:57:29.606448,2570,-0.186362,0.274526,0.014544,-0.024219,-0.025535,0.992529
2011-10-03T14:57:29.616448,2580,-0.204797,0.285141,0.009717,-0.024303,-0.025918,0.991818
2011-10-03T14:57:29.626448,2590,-0.222824,0.294895,0.005075,-0.024389,-0.026293,0.991131
2011-10-03T14:57:29.636448,2600,-0.223047,0.267064,0.008433,-0.024526,-0.026305,0.991439
2011-10-03T14:57:29.646448,2610,-0.223269,0.239234,0.011790,-0.024663,-0.026318,0.991747
2011-10-03T14:57:29.656448,2620,-0.223491,0.211403,0.015148,-0.024800,-0.026330,0.992056
2011-10-03T14:57:29.666448,2630,-0.223713,0.183573,0.018506,-0.024937,-0.026342,0.992364
2011-10-03T14:57:29.676448,2640,-0.223935,0.155742,0.021864,-0.025074,-0.026355,0.992672
2011-10-03T14:57:29.686448,2650,-0.224157,0.127912,0.025222,-0.025211,-0.026367,0.992981
2011-10-03T14:57:29.696448,2660,-0.224379,0.100081,0.028580,-0.025348,-0.026379,0.993289
2011-10-03T14:57:29.706448,2670,-0.224601,0.072251,0.031938,-0.025485,-0.026391,0.993597
2011-10-03T14:57:29.716448,2680,-0.224823,0.044420,0.035296,-0.025622,-0.026404,0.993906
2011-10-03T14:57:29.726448,2690,-0.225045,0.016590,0.038654,-0.025759,-0.026416,0.994214
2011-10-03T14:57:29.736448,2700,-0.224835,-0.010678,0.041902,-0.025877,-0.026421,0.994545
2011-10-03T14:57:29.746448,2710,-0.213355,-0.023303,0.042295,-0.025489,-0.026220,0.995455
2011-10-03T14:57:29.756448,2720,-0.201876,-0.035928,0.042689,-0.025101,-0.026019,0.996366
2011-10-03T14:57:29.766448,2730,-0.190397,-0.048553,0.043082,-0.024713,-0.025818,0.997276
2011-10-03T14:57:29.776448,2740,-0.178917,-0.061178,0.043475,-0.024325,-0.025617,0.998186
2011-10-03T14:57:29.786448,2750,-0.167438,-0.073803,0.043869,-0.023937,-0.025416,0.999097
2011-10-03T14:57:29.796448,2760,-0.155959,-0.086428,0.044262,-0.023549,-0.025215,1.000007
2011-10-03T14:57:29.806448,2770,-0.144479,-0.099053,0.044655,-0.023162,-0.025014,1.000918
2011-10-03T14:57:29.816448,2780,-0.133000,-0.111678,0.045048,-0.022774,-0.024813,1.001828
2011-10-03T14:57:29.826448,2790,-0.121520,-0.124303,0.045442,-0.022386,-0.024612,1.002738
2011-10-03T14:57:29.836448,2800,-0.110561,-0.135174,0.045455,-0.022007,-0.024427,1.003618
2011-10-03T14:57:29.846448,2810,-0.112995,-0.100870,0.035686,-0.021869,-0.024640,1.003711
2011-10-03T14:57:29.856448,2820,-0.115430,-0.066567,0.025917,-0.021731,-0.024853,1.003804
2011-10-03T14:57:29.866448,2830,-0.117864,-0.032264,0.016147,-0.021593,-0.025066,1.003897
2011-10-03T14:57:29.876448,2840,-0.120298,0.002039,0.006378,-0.021455,-0.025279,1.003989
2011-10-03T14:57:29.886448,2850,-0.122732,0.036343,-0.003391,-0.021317,-0.025492,1.004082
2011-10-03T14:57:29.896448,2860,-0.125167,0.070646,-0.013160,-0.021179,-0.025705,1.004175
2011-10-03T14:57:29.906448,2870,-0.127601,0.104949,-0.022929,-0.021041,-0.025918,1.004268
2011-10-03T14:57:29.916448,2880,-0.130035,0.139252,-0.032699,-0.020903,-0.026131,1.004361
2011-10-03T14:57:29.926448,2890,-0.132469,0.173555,-0.042468,-0.020765,-0.026344,1.004454
2011-10-03T14:57:29.936448,2900,-0.133956,0.206382,-0.052038,-0.020650,-0.026558,1.004520
2011-10-03T14:57:29.946448,2910,-0.112691,0.203752,-0.056820,-0.021088,-0.026786,1.003940
2011-10-03T14:57:29.956448,2920,-0.091426,0.201123,-0.061601,-0.021526,-0.027014,1.003360
2011-10-03T14:57:29.966448,2930,-0.070160,0.198493,-0.066383,-0.021964,-0.027242,1.002780
2011-10-03T14:57:29.976448,2940,-0.048895,0.195864,-0.071165,-0.022401,-0.027470,1.002200
2011-10-03T14:57:29.986448,2950,-0.027630,0.193234,-0.075946,-0.022839,-0.027698,1.001620
2011-10-03T14:57:29.996448,2960,-0.006365,0.190605,-0.080728,-0.023277,-0.027926,1.001040
2011-10-03T14:57:30.006448,2970,0.014900,0.187975,-0.085510,-0.023715,-0.028154,1.000460
2011-10-03T14:57:30.016448,2980,0.036165,0.185346,-0.090292,-0.024153,-0.028382,0.999880
2011-10-03T14:57:30.026448,2990,0.057430,0.182716,-0.095073,-0.024590,-0.028610,0.999300
2011-10-03T14:57:30.036448,3000,0.078696,0.180087,-0.099855,-0.025028,-0.028838,0.998720
2011-10-03T14:57:30.046448,3010,0.098974,0.175905,-0.104370,-0.025436,-0.029030,0.998163
2011-10-03T14:57:30.056448,3020,0.097235,0.137094,-0.102937,-0.025181,-0.028414,0.998112
2011-10-03T14:57:30.066448,3030,0.095497,0.098284,-0.101503,-0.024926,-0.027799,0.998061
2011-10-03T14:57:30.076448,3040,0.093758,0.059473,-0.100070,-0.024670,-0.027183,0.998010
2011-10-03T14:57:30.086448,3050,0.092020,0.020662,-0.098636,-0.024415,-0.026567,0.997959
2011-10-03T14:57:30.096448,3060,0.090281,-0.018149,-0.097203,-0.024159,-0.025951,0.997908
2011-10-03T14:57:30.106448,3070,0.088543,-0.056959,-0.095769,-0.023904,-0.025335,0.997857
2011-10-03T14:57:30.116448,3080,0.086804,-0.095770,-0.094335,-0.023649,-0.024719,0.997806
2011-10-03T14:57:30.126448,3090,0.085066,-0.134581,-0.092902,-0.023393,-0.024103,0.997756
2011-10-03T14:57:30.136448,3100,0.083327,-0.173391,-0.091468,-0.023138,-0.023488,0.997705
2011-10-03T14:57:30.146448,3110,0.081831,-0.210433,-0.090195,-0.022884,-0.022904,0.997665
2011-10-03T14:57:30.156448,3120,0.088383,-0.188865,-0.094221,-0.022690,-0.023382,0.998005
2011-10-03T14:57:30.166448,3130,0.094934,-0.167296,-0.098246,-0.022495,-0.023860,0.998345
2011-10-03T14:57:30.176448,3140,0.101486,-0.145727,-0.102272,-0.022301,-0.024339,0.998685
2011-10-03T14:57:30.186448,3150,0.108037,-0.124159,-0.106298,-0.022106,-0.024817,0.999025
2011-10-03T14:57:30.196448,3160,0.114589,-0.102590,-0.110324,-0.021912,-0.025295,0.999365
2011-10-03T14:57:30.206448,3170,0.121140,-0.081021,-0.114349,-0.021717,-0.025774,0.999705
2011-10-03T14:57:30.216448,3180,0.127692,-0.059452,-0.118375,-0.021523,-0.026252,1.000045
2011-10-03T14:57:30.226448,3190,0.134243,-0.037884,-0.122401,-0.021329,-0.026731,1.000385
2011-10-03T14:57:30.236448,3200,0.140795,-0.016315,-0.126427,-0.021134,-0.027209,1.000725
2011-10-03T14:57:30.246448,3210,0.147346,0.005254,-0.130453,-0.020940,-0.027687,1.001065
2011-10-03T14:57:30.256448,3220,0.153075,0.026098,-0.134000,-0.020744,-0.028133,1.001384
2011-10-03T14:57:30.266448,3230,0.139525,0.029964,-0.126333,-0.020519,-0.027822,1.001221
2011-10-03T14:57:30.276448,3240,0.125975,0.033830,-0.118667,-0.020293,-0.027510,1.001057
2011-10-03T14:57:30.286448,3250,0.112425,0.037696,-0.111000,-0.020068,-0.027199,1.000893
2011-10-03T14:57:30.296448,3260,0.098875,0.041562,-0.103334,-0.019843,-0.026888,1.000729
2011-10-03T14:57:30.306448,3270,0.085325,0.045428,-0.095667,-0.019618,-0.026576,1.000565
2011-10-03T14:57:30.316448,3280,0.071775,0.049293,-0.088000,-0.019392,-0.026265,1.000401
2011-10-03T14:57:30.326448,3290,0.058225,0.053159,-0.080334,-0.019167,-0.025953,1.000237
2011-10-03T14:57:30.336448,3300,0.044675,0.057025,-0.072667,-0.018942,-0.025642,1.000073
2011-10-03T14:57:30.346448,3310,0.031125,0.060891,-0.065001,-0.018716,-0.025331,0.999909
2011-10-03T14:57:30.356448,3320,0.017375,0.064211,-0.057893,-0.018429,-0.025027,0.999702
2011-10-03T14:57:30.366448,3330,-0.001145,0.054547,-0.064067,-0.016667,-0.024907,0.998459
2011-10-03T14:57:30.376448,3340,-0.019664,0.044883,-0.070242,-0.014905,-0.024786,0.997217
2011-10-03T14:57:30.386448,3350,-0.038184,0.035220,-0.076416,-0.013143,-0.024666,0.995975
2011-10-03T14:57:30.396448,3360,-0.056703,0.025556,-0.082590,-0.011381,-0.024546,0.994733
2011-10-03T14:57:30.406448,3370,-0.075223,0.015893,-0.088764,-0.009620,-0.024425,0.993491
2011-10-03T14:57:30.416448,3380,-0.093743,0.006229,-0.094938,-0.007858,-0.024305,0.992249
2011-10-03T14:57:30.426448,3390,-0.112262,-0.003434,-0.101112,-0.006096,-0.024185,0.991007
2011-10-03T14:57:30.436448,3400,-0.130782,-0.013098,-0.107287,-0.004334,-0.024065,0.989765
2011-10-03T14:57:30.446448,3410,-0.149301,-0.022761,-0.113461,-0.002572,-0.023944,0.988523
2011-10-03T14:57:30.456448,3420,-0.167145,-0.033882,-0.119088,-0.000774,-0.023851,0.987365
2011-10-03T14:57:30.466448,3430,-0.170788,-0.075644,-0.113209,0.001787,-0.024329,0.987986
2011-10-03T14:57:30.476448,3440,-0.174430,-0.117405,-0.107330,0.004348,-0.024807,0.988606
2011-10-03T14:57:30.486448,3450,-0.178073,-0.159166,-0.101451,0.006909,-0.025284,0.989227
2011-10-03T14:57:30.496448,3460,-0.181715,-0.200928,-0.095572,0.009470,-0.025762,0.989848
2011-10-03T14:57:30.506448,3470,-0.185358,-0.242689,-0.089694,0.012030,-0.026240,0.990468
2011-10-03T14:57:30.516448,3480,-0.189001,-0.284450,-0.083815,0.014591,-0.026718,0.991089
2011-10-03T14:57:30.526448,3490,-0.192643,-0.326211,-0.077936,0.017152,-0.027196,0.991710
2011-10-03T14:57:30.536448,3500,-0.196286,-0.367973,-0.072057,0.019713,-0.027673,0.992330
2011-10-03T14:57:30.546448,3510,-0.199928,-0.409734,-0.066178,0.022274,-0.028151,0.992951
2011-10-03T14:57:30.556448,3520,-0.203571,-0.451495,-0.060300,0.024835,-0.028629,0.993572
2011-10-03T14:57:30.566448,3530,-0.206163,-0.491259,-0.054271,0.027342,-0.029091,0.994193
2011-10-03T14:57:30.576448,3540,-0.187079,-0.489800,-0.045148,0.028751,-0.029224,0.994833
2011-10-03T14:57:30.586448,3550,-0.167995,-0.488341,-0.036024,0.030160,-0.029356,0.995473
2011-10-03T14:57:30.596448,3560,-0.148912,-0.486882,-0.026901,0.031569,-0.029489,0.996113
2011-10-03T14:57:30.606448,3570,-0.129828,-0.485424,-0.017778,0.032978,-0.029622,0.996753
2011-10-03T14:57:30.616448,3580,-0.110744,-0.483965,-0.008655,0.034386,-0.029755,0.997393
2011-10-03T14:57:30.626448,3590,-0.091660,-0.482506,0.000468,0.035795,-0.029888,0.998033
2011-10-03T14:57:30.636448,3600,-0.072576,-0.481047,0.009592,0.037204,-0.030021,0.998673
2011-10-03T14:57:30.646448,3610,-0.053493,-0.479588,0.018715,0.038613,-0.030154,0.999313
2011-10-03T14:57:30.656448,3620,-0.034409,-0.478129,0.027838,0.040022,-0.030286,0.999953
2011-10-03T14:57:30.666448,3630,-0.015516,-0.476283,0.036798,0.041421,-0.030414,1.000589
2011-10-03T14:57:30.676448,3640,-0.003831,-0.459814,0.039577,0.042476,-0.030362,1.001079
2011-10-03T14:57:30.686448,3650,0.007853,-0.443345,0.042356,0.043531,-0.030309,1.001568
2011-10-03T14:57:30.696448,3660,0.019538,-0.426876,0.045134,0.044586,-0.030257,1.002058
2011-10-03T14:57:30.706448,3670,0.031222,-0.410406,0.047913,0.045641,-0.030204,1.002548
2011-10-03T14:57:30.716448,3680,0.042907,-0.393937,0.050692,0.046695,-0.030152,1.003038
2011-10-03T14:57:30.726448,3690,0.054591,-0.377468,0.053471,0.047750,-0.030099,1.003527
2011-10-03T14:57:30.736448,3700,0.066276,-0.360999,0.056250,0.048805,-0.030047,1.004017
2011-10-03T14:57:30.746448,3710,0.077961,-0.344530,0.059029,0.049860,-0.029994,1.004507
2011-10-03T14:57:30.756448,3720,0.089645,-0.328060,0.061808,0.050915,-0.029942,1.004996
2011-10-03T14:57:30.766448,3730,0.100438,-0.311514,0.064852,0.051942,-0.029843,1.005445
2011-10-03T14:57:30.776448,3740,0.093893,-0.293462,0.073053,0.052425,-0.028836,1.005095
2011-10-03T14:57:30.786448,3750,0.087348,-0.275409,0.081253,0.052909,-0.027830,1.004745
2011-10-03T14:57:30.796448,3760,0.080802,-0.257357,0.089453,0.053392,-0.026824,1.004395
2011-10-03T14:57:30.806448,3770,0.074257,-0.239305,0.097654,0.053876,-0.025818,1.004045
2011-10-03T14:57:30.816448,3780,0.067712,-0.221253,0.105854,0.054360,-0.024811,1.003696
2011-10-03T14:57:30.826448,3790,0.061166,-0.203201,0.114055,0.054843,-0.023805,1.003346
2011-10-03T14:57:30.836448,3800,0.054621,-0.185148,0.122255,0.055327,-0.022799,1.002996
2011-10-03T14:57:30.846448,3810,0.048076,-0.167096,0.130455,0.055811,-0.021793,1.002646
2011-10-03T14:57:30.856448,3820,0.041530,-0.149044,0.138656,0.056294,-0.020786,1.002296
2011-10-03T14:57:30.866448,3830,0.034985,-0.130992,0.146856,0.056778,-0.019780,1.001946
2011-10-03T14:57:30.876448,3840,0.028487,-0.113592,0.154151,0.057279,-0.018838,1.001608
2011-10-03T14:57:30.886448,3850,0.022883,-0.108403,0.144484,0.058103,-0.019104,1.001501
2011-10-03T14:57:30.896448,3860,0.017279,-0.103214,0.134818,0.058927,-0.019370,1.001394
2011-10-03T14:57:30.906448,3870,0.011675,-0.098025,0.125152,0.059751,-0.019636,1.001287
2011-10-03T14:57:30.916448,3880,0.006071,-0.092836,0.115486,0.060575,-0.019901,1.001180
2011-10-03T14:57:30.926448,3890,0.000467,-0.087647,0.105820,0.061399,-0.020167,1.001073
2011-10-03T14:57:30.936448,3900,-0.005137,-0.082458,0.096154,0.062223,-0.020433,1.000966
2011-10-03T14:57:30.946448,3910,-0.010741,-0.077269,0.086488,0.063047,-0.020699,1.000859
2011-10-03T14:57:30.956448,3920,-0.016345,-0.072080,0.076822,0.063871,-0.020964,1.000752
2011-10-03T14:57:30.966448,3930,-0.021949,-0.066891,0.067155,0.064695,-0.021230,1.000645
2011-10-03T14:57:30.976448,3940,-0.027159,-0.062701,0.058941,0.065526,-0.021514,1.000541
2011-10-03T14:57:30.986448,3950,-0.025085,-0.076953,0.077518,0.066500,-0.022145,1.000501
2011-10-03T14:57:30.996448,3960,-0.023012,-0.091204,0.096095,0.067474,-0.022776,1.000460
2011-10-03T14:57:31.006448,3970,-0.020938,-0.105456,0.114673,0.068448,-0.023406,1.000419
2011-10-03T14:57:31.016448,3980,-0.018865,-0.119707,0.133250,0.069422,-0.024037,1.000378
2011-10-03T14:57:31.026448,3990,-0.016792,-0.133959,0.151827,0.070397,-0.024668,1.000337
2011-10-03T14:57:31.036448,4000,-0.014718,-0.148210,0.170405,0.071371,-0.025298,1.000296
2011-10-03T14:57:31.046448,4010,-0.012645,-0.162461,0.188982,0.072345,-0.025929,1.000255
2011-10-03T14:57:31.056448,4020,-0.010571,-0.176713,0.207559,0.073319,-0.026560,1.000215
2011-10-03T14:57:31.066448,4030,-0.008498,-0.190964,0.226137,0.074293,-0.027190,1.000174
2011-10-03T14:57:31.076448,4040,-0.006215,-0.204821,0.244313,0.075269,-0.027789,1.000153
2011-10-03T14:57:31.086448,4050,0.000043,-0.211168,0.254863,0.076300,-0.027774,1.000523
2011-10-03T14:57:31.096448,4060,0.006302,-0.217515,0.265412,0.077331,-0.027758,1.000892
2011-10-03T14:57:31.106448,4070,0.012561,-0.223861,0.275961,0.078362,-0.027743,1.001261
2011-10-03T14:57:31.116448,4080,0.018819,-0.230208,0.286511,0.079393,-0.027728,1.001630
2011-10-03T14:57:31.126448,4090,0.025078,-0.236555,0.297060,0.080424,-0.027713,1.001999
2011-10-03T14:57:31.136448,4100,0.031337,-0.242902,0.307609,0.081455,-0.027698,1.002369
2011-10-03T14:57:31.146448,4110,0.037595,-0.249248,0.318159,0.082486,-0.027683,1.002738
2011-10-03T14:57:31.156448,4120,0.043854,-0.255595,0.328708,0.083518,-0.027667,1.003107
2011-10-03T14:57:31.166448,4130,0.050113,-0.261942,0.339257,0.084549,-0.027652,1.003476
2011-10-03T14:57:31.176448,4140,0.056371,-0.268289,0.349807,0.085580,-0.027637,1.003846
2011-10-03T14:57:31.186448,4150,0.062051,-0.274122,0.360241,0.086614,-0.027606,1.004175
2011-10-03T14:57:31.196448,4160,0.057336,-0.270746,0.368611,0.087709,-0.027296,1.003790
2011-10-03T14:57:31.206448,4170,0.052621,-0.267370,0.376982,0.088803,-0.026986,1.003406
2011-10-03T14:57:31.216448,4180,0.047907,-0.263995,0.385352,0.089898,-0.026675,1.003022
2011-10-03T14:57:31.226448,4190,0.043192,-0.260619,0.393723,0.090993,-0.026365,1.002637
2011-10-03T14:57:31.236448,4200,0.038477,-0.257243,0.402093,0.092087,-0.026055,1.002253
2011-10-03T14:57:31.246448,4210,0.033763,-0.253867,0.410463,0.093182,-0.025744,1.001868
2011-10-03T14:57:31.256448,4220,0.029048,-0.250491,0.418834,0.094277,-0.025434,1.001484
2011-10-03T14:57:31.266448,4230,0.024333,-0.247116,0.427204,0.095371,-0.025124,1.001099
2011-10-03T14:57:31.276448,4240,0.019619,-0.243740,0.435575,0.096466,-0.024813,1.000715
2011-10-03T14:57:31.286448,4250,0.014570,-0.239427,0.443598,0.097562,-0.024486,1.000318
2011-10-03T14:57:31.296448,4260,0.003917,-0.219386,0.445797,0.098685,-0.023880,0.999707
2011-10-03T14:57:31.306448,4270,-0.006735,-0.199344,0.447995,0.099808,-0.023274,0.999097
2011-10-03T14:57:31.316448,4280,-0.017388,-0.179303,0.450193,0.100931,-0.022668,0.998487
2011-10-03T14:57:31.326448,4290,-0.028041,-0.159262,0.452392,0.102054,-0.022062,0.997877
2011-10-03T14:57:31.336448,4300,-0.038693,-0.139220,0.454590,0.103177,-0.021456,0.997267
2011-10-03T14:57:31.346448,4310,-0.049346,-0.119179,0.456789,0.104299,-0.020850,0.996657
2011-10-03T14:57:31.356448,4320,-0.059999,-0.099137,0.458987,0.105422,-0.020244,0.996047
2011-10-03T14:57:31.366448,4330,-0.070651,-0.079096,0.461185,0.106545,-0.019638,0.995437
2011-10-03T14:57:31.376448,4340,-0.081304,-0.059054,0.463384,0.107668,-0.019032,0.994827
2011-10-03T14:57:31.386448,4350,-0.091957,-0.039013,0.465582,0.108791,-0.018426,0.994217
2011-10-03T14:57:31.396448,4360,-0.102790,-0.020891,0.467608,0.109896,-0.017887,0.993658
2011-10-03T14:57:31.406448,4370,-0.116646,-0.034898,0.466737,0.110703,-0.018481,0.993965
2011-10-03T14:57:31.416448,4380,-0.130501,-0.048904,0.465866,0.111511,-0.019074,0.994272
2011-10-03T14:57:31.426448,4390,-0.144357,-0.062911,0.464995,0.112318,-0.019668,0.994579
2011-10-03T14:57:31.436448,4400,-0.158212,-0.076917,0.464124,0.113126,-0.020261,0.994886
2011-10-03T14:57:31.446448,4410,-0.172068,-0.090923,0.463253,0.113933,-0.020855,0.995192
2011-10-03T14:57:31.456448,4420,-0.185923,-0.104930,0.462383,0.114741,-0.021448,0.995499
2011-10-03T14:57:31.466448,4430,-0.199779,-0.118936,0.461512,0.115549,-0.022042,0.995806
2011-10-03T14:57:31.476448,4440,-0.213634,-0.132943,0.460641,0.116356,-0.022635,0.996113
2011-10-03T14:57:31.486448,4450,-0.227490,-0.146949,0.459770,0.117164,-0.023229,0.996420
2011-10-03T14:57:31.496448,4460,-0.239595,-0.160797,0.458417,0.117964,-0.023800,0.996767
2011-10-03T14:57:31.506448,4470,-0.223528,-0.172098,0.449305,0.118655,-0.024006,0.997763
2011-10-03T14:57:31.516448,4480,-0.207461,-0.183398,0.440194,0.119345,-0.024213,0.998760
2011-10-03T14:57:31.526448,4490,-0.191394,-0.194699,0.431082,0.120035,-0.024420,0.999756
2011-10-03T14:57:31.536448,4500,-0.175328,-0.205999,0.421970,0.120725,-0.024626,1.000753
2011-10-03T14:57:31.546448,4510,-0.159261,-0.217299,0.412859,0.121415,-0.024833,1.001749
2011-10-03T14:57:31.556448,4520,-0.143194,-0.228600,0.403747,0.122106,-0.025040,1.002745
2011-10-03T14:57:31.566448,4530,-0.127127,-0.239900,0.394635,0.122796,-0.025246,1.003742
2011-10-03T14:57:31.576448,4540,-0.111060,-0.251201,0.385524,0.123486,-0.025453,1.004738
2011-10-03T14:57:31.586448,4550,-0.094993,-0.262501,0.376412,0.124176,-0.025659,1.005735
2011-10-03T14:57:31.596448,4560,-0.078862,-0.273401,0.367995,0.124874,-0.025854,1.006662
2011-10-03T14:57:31.606448,4570,-0.061208,-0.274841,0.375986,0.125750,-0.025754,1.005951
2011-10-03T14:57:31.616448,4580,-0.043554,-0.276280,0.383978,0.126626,-0.025654,1.005240
2011-10-03T14:57:31.626448,4590,-0.025900,-0.277719,0.391970,0.127502,-0.025554,1.004529
2011-10-03T14:57:31.636448,4600,-0.008246,-0.279159,0.399961,0.128378,-0.025454,1.003818
2011-10-03T14:57:31.646448,4610,0.009408,-0.280598,0.407953,0.129254,-0.025355,1.003107
2011-10-03T14:57:31.656448,4620,0.027062,-0.282038,0.415945,0.130130,-0.025255,1.002397
2011-10-03T14:57:31.666448,4630,0.044716,-0.283477,0.423936,0.131006,-0.025155,1.001686
2011-10-03T14:57:31.676448,4640,0.062370,-0.284916,0.431928,0.131882,-0.025055,1.000975
2011-10-03T14:57:31.686448,4650,0.080024,-0.286356,0.439920,0.132758,-0.024956,1.000264
2011-10-03T14:57:31.696448,4660,0.097678,-0.287795,0.447911,0.133634,-0.024856,0.999553
2011-10-03T14:57:31.706448,4670,0.113734,-0.288710,0.454951,0.134482,-0.024746,0.998867
2011-10-03T14:57:31.716448,4680,0.103415,-0.280964,0.446264,0.134861,-0.024464,0.998590
2011-10-03T14:57:31.726448,4690,0.093097,-0.273218,0.437577,0.135240,-0.024183,0.998313
2011-10-03T14:57:31.736448,4700,0.082778,-0.265472,0.428890,0.135619,-0.023901,0.998036
2011-10-03T14:57:31.746448,4710,0.072459,-0.257727,0.420203,0.135998,-0.023620,0.997759
2011-10-03T14:57:31.756448,4720,0.062141,-0.249981,0.411516,0.136377,-0.023339,0.997482
2011-10-03T14:57:31.766448,4730,0.051822,-0.242235,0.402829,0.136756,-0.023057,0.997205
2011-10-03T14:57:31.776448,4740,0.041503,-0.234489,0.394142,0.137135,-0.022776,0.996928
2011-10-03T14:57:31.786448,4750,0.031184,-0.226743,0.385455,0.137514,-0.022494,0.996651
2011-10-03T14:57:31.796448,4760,0.020866,-0.218997,0.376768,0.137893,-0.022213,0.996374
2011-10-03T14:57:31.806448,4770,0.010204,-0.211033,0.368841,0.138263,-0.021966,0.996123
2011-10-03T14:57:31.816448,4780,-0.005634,-0.199768,0.372380,0.138492,-0.022240,0.996258
2011-10-03T14:57:31.826448,4790,-0.021471,-0.188503,0.375918,0.138722,-0.022514,0.996393
2011-10-03T14:57:31.836448,4800,-0.037309,-0.177238,0.379456,0.138951,-0.022789,0.996529
2011-10-03T14:57:31.846448,4810,-0.053147,-0.165973,0.382994,0.139180,-0.023063,0.996664
2011-10-03T14:57:31.856448,4820,-0.068984,-0.154708,0.386533,0.139409,-0.023337,0.996800
2011-10-03T14:57:31.866448,4830,-0.084822,-0.143443,0.390071,0.139639,-0.023611,0.996935
2011-10-03T14:57:31.876448,4840,-0.100659,-0.132178,0.393609,0.139868,-0.023885,0.997071
2011-10-03T14:57:31.886448,4850,-0.116497,-0.120913,0.397148,0.140097,-0.024159,0.997206
2011-10-03T14:57:31.896448,4860,-0.132335,-0.109648,0.400686,0.140326,-0.024433,0.997341
2011-10-03T14:57:31.906448,4870,-0.145595,-0.098538,0.403329,0.140547,-0.024710,0.997522
2011-10-03T14:57:31.916448,4880,-0.120128,-0.089754,0.392521,0.140629,-0.025019,0.998380
2011-10-03T14:57:31.926448,4890,-0.094662,-0.080970,0.381712,0.140712,-0.025329,0.999239
2011-10-03T14:57:31.936448,4900,-0.069195,-0.072185,0.370904,0.140794,-0.025639,1.000097
2011-10-03T14:57:31.946448,4910,-0.043729,-0.063401,0.360095,0.140877,-0.025948,1.000955
2011-10-03T14:57:31.956448,4920,-0.018262,-0.054617,0.349287,0.140959,-0.026258,1.001813
2011-10-03T14:57:31.966448,4930,0.007204,-0.045833,0.338478,0.141042,-0.026568,1.002672
2011-10-03T14:57:31.976448,4940,0.032671,-0.037049,0.327670,0.141125,-0.026878,1.003530
2011-10-03T14:57:31.986448,4950,0.058137,-0.028264,0.316861,0.141207,-0.027187,1.004388
2011-10-03T14:57:31.996448,4960,0.083604,-0.019480,0.306053,0.141290,-0.027497,1.005246
2011-10-03T14:57:32.006448,4970,0.109070,-0.010696,0.295244,0.141372,-0.027807,1.006105
2011-10-03T14:57:32.016448,4980,0.132602,-0.003533,0.284081,0.141467,-0.028025,1.006843
2011-10-03T14:57:32.026448,4990,0.128069,-0.019892,0.267781,0.141737,-0.026925,1.005834
2011-10-03T14:57:32.036448,5000,0.123536,-0.036250,0.251481,0.142008,-0.025824,1.004826
2011-10-03T14:57:32.046448,5010,0.119003,-0.052609,0.235181,0.142278,-0.024723,1.003818
2011-10-03T14:57:32.056448,5020,0.114470,-0.068967,0.218881,0.142549,-0.023623,1.002809
2011-10-03T14:57:32.066448,5030,0.109937,-0.085326,0.202581,0.142819,-0.022522,1.001801
2011-10-03T14:57:32.076448,5040,0.105404,-0.101684,0.186281,0.143090,-0.021421,1.000793
2011-10-03T14:57:32.086448,5050,0.100871,-0.118043,0.169981,0.143360,-0.020320,0.999784
2011-10-03T14:57:32.096448,5060,0.096337,-0.134401,0.153681,0.143631,-0.019220,0.998776
2011-10-03T14:57:32.106448,5070,0.091804,-0.150760,0.137381,0.143901,-0.018119,0.997768
2011-10-03T14:57:32.116448,5080,0.086925,-0.165986,0.121366,0.144176,-0.017131,0.996835
2011-10-03T14:57:32.126448,5090,0.076432,-0.162856,0.109974,0.144507,-0.017966,0.997130
2011-10-03T14:57:32.136448,5100,0.065938,-0.159727,0.098581,0.144839,-0.018802,0.997425
2011-10-03T14:57:32.146448,5110,0.055445,-0.156597,0.087188,0.145171,-0.019638,0.997720
2011-10-03T14:57:32.156448,5120,0.044952,-0.153467,0.075796,0.145503,-0.020474,0.998015
2011-10-03T14:57:32.166448,5130,0.034458,-0.150338,0.064403,0.145834,-0.021309,0.998310
2011-10-03T14:57:32.176448,5140,0.023965,-0.147208,0.053010,0.146166,-0.022145,0.998604
2011-10-03T14:57:32.186448,5150,0.013472,-0.144078,0.041618,0.146498,-0.022981,0.998899
2011-10-03T14:57:32.196448,5160,0.002978,-0.140949,0.030225,0.146830,-0.023817,0.999194
2011-10-03T14:57:32.206448,5170,-0.007515,-0.137819,0.018832,0.147161,-0.024653,0.999489
2011-10-03T14:57:32.216448,5180,-0.018769,-0.134243,0.008583,0.147450,-0.025460,0.999786
2011-10-03T14:57:32.226448,5190,-0.041530,-0.123906,0.015635,0.147095,-0.025831,1.000110
2011-10-03T14:57:32.236448,5200,-0.064290,-0.113569,0.022686,0.146739,-0.026202,1.000434
2011-10-03T14:57:32.246448,5210,-0.087051,-0.103232,0.029737,0.146384,-0.026573,1.000758
2011-10-03T14:57:32.256448,5220,-0.109811,-0.092895,0.036788,0.146028,-0.026944,1.001082
2011-10-03T14:57:32.266448,5230,-0.132572,-0.082559,0.043839,0.145672,-0.027315,1.001406
2011-10-03T14:57:32.276448,5240,-0.155332,-0.072222,0.050890,0.145317,-0.027686,1.001730
2011-10-03T14:57:32.286448,5250,-0.178093,-0.061885,0.057942,0.144961,-0.028058,1.002054
2011-10-03T14:57:32.296448,5260,-0.200854,-0.051548,0.064993,0.144606,-0.028429,1.002378
2011-10-03T14:57:32.306448,5270,-0.223614,-0.041211,0.072044,0.144250,-0.028800,1.002702
2011-10-03T14:57:32.316448,5280,-0.246375,-0.030874,0.079095,0.143894,-0.029171,1.003026
2011-10-03T14:57:32.326448,5290,-0.265865,-0.021049,0.086291,0.143567,-0.029523,1.003320
2011-10-03T14:57:32.336448,5300,-0.240257,-0.018272,0.095492,0.143626,-0.029609,1.003203
2011-10-03T14:57:32.346448,5310,-0.214649,-0.015496,0.104692,0.143684,-0.029695,1.003087
2011-10-03T14:57:32.356448,5320,-0.189041,-0.012720,0.113893,0.143743,-0.029782,1.002970
2011-10-03T14:57:32.366448,5330,-0.163433,-0.009943,0.123093,0.143802,-0.029868,1.002854
2011-10-03T14:57:32.376448,5340,-0.137825,-0.007167,0.132294,0.143861,-0.029954,1.002737
2011-10-03T14:57:32.386448,5350,-0.112217,-0.004390,0.141494,0.143920,-0.030040,1.002621
2011-10-03T14:57:32.396448,5360,-0.086609,-0.001614,0.150695,0.143979,-0.030126,1.002504
2011-10-03T14:57:32.406448,5370,-0.061001,0.001162,0.159895,0.144038,-0.030213,1.002388
2011-10-03T14:57:32.416448,5380,-0.035393,0.003939,0.169095,0.144096,-0.030299,1.002271
2011-10-03T14:57:32.426448,5390,-0.010923,0.005267,0.176456,0.144156,-0.030327,1.002158
2011-10-03T14:57:32.436448,5400,-0.002004,-0.013196,0.158672,0.144225,-0.029564,1.002093
2011-10-03T14:57:32.446448,5410,0.006916,-0.031659,0.140888,0.144294,-0.028802,1.002028
2011-10-03T14:57:32.456448,5420,0.015835,-0.050122,0.123104,0.144364,-0.028039,1.001963
2011-10-03T14:57:32.466448,5430,0.024754,-0.068585,0.105320,0.144433,-0.027276,1.001898
2011-10-03T14:57:32.476448,5440,0.033673,-0.087048,0.087537,0.144502,-0.026513,1.001832
2011-10-03T14:57:32.486448,5450,0.042592,-0.105511,0.069753,0.144571,-0.025750,1.001767
2011-10-03T14:57:32.496448,5460,0.051512,-0.123973,0.051969,0.144641,-0.024988,1.001702
2011-10-03T14:57:32.506448,5470,0.060431,-0.142436,0.034185,0.144710,-0.024225,1.001637
2011-10-03T14:57:32.516448,5480,0.069350,-0.160899,0.016401,0.144779,-0.023462,1.001571
2011-10-03T14:57:32.526448,5490,0.078269,-0.179362,-0.001383,0.144848,-0.022699,1.001506
2011-10-03T14:57:32.536448,5500,0.086561,-0.196871,-0.018716,0.144939,-0.022044,1.001441
2011-10-03T14:57:32.546448,5510,0.086520,-0.201700,-0.030056,0.145309,-0.022819,1.001367
2011-10-03T14:57:32.556448,5520,0.086480,-0.206530,-0.041397,0.145680,-0.023593,1.001294
2011-10-03T14:57:32.566448,5530,0.086439,-0.211359,-0.052738,0.146050,-0.024368,1.001220
2011-10-03T14:57:32.576448,5540,0.086398,-0.216188,-0.064079,0.146421,-0.025143,1.001147
2011-10-03T14:57:32.586448,5550,0.086357,-0.221018,-0.075420,0.146791,-0.025917,1.001073
2011-10-03T14:57:32.596448,5560,0.086316,-0.225847,-0.086761,0.147162,-0.026692,1.001000
2011-10-03T14:57:32.606448,5570,0.086275,-0.230677,-0.098102,0.147532,-0.027466,1.000927
2011-10-03T14:57:32.616448,5580,0.086235,-0.235506,-0.109443,0.147903,-0.028241,1.000853
2011-10-03T14:57:32.626448,5590,0.086194,-0.240335,-0.120784,0.148274,-0.029016,1.000780
2011-10-03T14:57:32.636448,5600,0.085620,-0.243556,-0.130891,0.148599,-0.029745,1.000689
2011-10-03T14:57:32.646448,5610,0.074937,-0.216265,-0.117603,0.148073,-0.029612,1.000274
2011-10-03T14:57:32.656448,5620,0.064255,-0.188975,-0.104315,0.147546,-0.029480,0.999858
2011-10-03T14:57:32.666448,5630,0.053573,-0.161684,-0.091027,0.147020,-0.029347,0.999442
2011-10-03T14:57:32.676448,5640,0.042890,-0.134394,-0.077739,0.146494,-0.029215,0.999027
2011-10-03T14:57:32.686448,5650,0.032208,-0.107103,-0.064451,0.145967,-0.029082,0.998611
2011-10-03T14:57:32.696448,5660,0.021526,-0.079813,-0.051164,0.145441,-0.028950,0.998195
2011-10-03T14:57:32.706448,5670,0.010843,-0.052522,-0.037876,0.144915,-0.028817,0.997780
2011-10-03T14:57:32.716448,5680,0.000161,-0.025232,-0.024588,0.144388,-0.028685,0.997364
2011-10-03T14:57:32.726448,5690,-0.010521,0.002059,-0.011300,0.143862,-0.028552,0.996949
2011-10-03T14:57:32.736448,5700,-0.021751,0.025969,0.001839,0.143364,-0.028379,0.996601
2011-10-03T14:57:32.746448,5710,-0.039872,0.007329,0.013107,0.143215,-0.027693,0.997103
2011-10-03T14:57:32.756448,5720,-0.057994,-0.011311,0.024375,0.143067,-0.027007,0.997605
2011-10-03T14:57:32.766448,5730,-0.076115,-0.029952,0.035643,0.142919,-0.026320,0.998108
2011-10-03T14:57:32.776448,5740,-0.094236,-0.048592,0.046911,0.142771,-0.025634,0.998610
2011-10-03T14:57:32.786448,5750,-0.112358,-0.067233,0.058179,0.142622,-0.024948,0.999112
2011-10-03T14:57:32.796448,5760,-0.130479,-0.085873,0.069447,0.142474,-0.024261,0.999615
2011-10-03T14:57:32.806448,5770,-0.148600,-0.104513,0.080714,0.142326,-0.023575,1.000117
2011-10-03T14:57:32.816448,5780,-0.166722,-0.123154,0.091982,0.142178,-0.022889,1.000619
2011-10-03T14:57:32.826448,5790,-0.184843,-0.141794,0.103250,0.142029,-0.022202,1.001122
2011-10-03T14:57:32.836448,5800,-0.202964,-0.160434,0.114518,0.141881,-0.021516,1.001624
2011-10-03T14:57:32.846448,5810,-0.219284,-0.177472,0.124103,0.141755,-0.020936,1.002108
2011-10-03T14:57:32.856448,5820,-0.213224,-0.174607,0.112786,0.141911,-0.021680,1.002360
2011-10-03T14:57:32.866448,5830,-0.207163,-0.171741,0.101470,0.142066,-0.022423,1.002612
2011-10-03T14:57:32.876448,5840,-0.201103,-0.168876,0.090153,0.142221,-0.023166,1.002865
2011-10-03T14:57:32.886448,5850,-0.195043,-0.166010,0.078836,0.142377,-0.023910,1.003117
2011-10-03T14:57:32.896448,5860,-0.188983,-0.163145,0.067520,0.142532,-0.024653,1.003369
2011-10-03T14:57:32.906448,5870,-0.182922,-0.160279,0.056203,0.142688,-0.025396,1.003622
2011-10-03T14:57:32.916448,5880,-0.176862,-0.157414,0.044886,0.142843,-0.026140,1.003874
2011-10-03T14:57:32.926448,5890,-0.170802,-0.154548,0.033570,0.142998,-0.026883,1.004127
2011-10-03T14:57:32.936448,5900,-0.164742,-0.151683,0.022253,0.143154,-0.027626,1.004379
2011-10-03T14:57:32.946448,5910,-0.157302,-0.149075,0.011016,0.143296,-0.028361,1.004649
2011-10-03T14:57:32.956448,5920,-0.131563,-0.149881,0.000834,0.143269,-0.028983,1.005154
2011-10-03T14:57:32.966448,5930,-0.105824,-0.150688,-0.009347,0.143242,-0.029605,1.005659
2011-10-03T14:57:32.976448,5940,-0.080085,-0.151494,-0.019529,0.143215,-0.030227,1.006164
2011-10-03T14:57:32.986448,5950,-0.054346,-0.152300,-0.029710,0.143188,-0.030850,1.006669
2011-10-03T14:57:32.996448,5960,-0.028607,-0.153107,-0.039892,0.143161,-0.031472,1.007174
2011-10-03T14:57:33.006448,5970,-0.002868,-0.153913,-0.050073,0.143135,-0.032094,1.007679
2011-10-03T14:57:33.016448,5980,0.022871,-0.154719,-0.060255,0.143108,-0.032716,1.008185
2011-10-03T14:57:33.026448,5990,0.048609,-0.155526,-0.070436,0.143081,-0.033338,1.008690
2011-10-03T14:57:33.036448,6000,0.074348,-0.156332,-0.080618,0.143054,-0.033960,1.009195
2011-10-03T14:57:33.046448,6010,0.097792,-0.155224,-0.089129,0.143028,-0.034515,1.009607
2011-10-03T14:57:33.056448,6020,0.093532,-0.131011,-0.077479,0.143015,-0.034261,1.008898
2011-10-03T14:57:33.066448,6030,0.089273,-0.106799,-0.065829,0.143002,-0.034008,1.008188
2011-10-03T14:57:33.076448,6040,0.085013,-0.082586,-0.054180,0.142989,-0.033754,1.007479
2011-10-03T14:57:33.086448,6050,0.080754,-0.058373,-0.042530,0.142976,-0.033500,1.006770
2011-10-03T14:57:33.096448,6060,0.076494,-0.034160,-0.030880,0.142963,-0.033247,1.006061
2011-10-03T14:57:33.106448,6070,0.072235,-0.009947,-0.019230,0.142950,-0.032993,1.005351
2011-10-03T14:57:33.116448,6080,0.067975,0.014266,-0.007580,0.142937,-0.032739,1.004642
2011-10-03T14:57:33.126448,6090,0.063716,0.038479,0.004070,0.142924,-0.032485,1.003933
2011-10-03T14:57:33.136448,6100,0.059456,0.062692,0.015719,0.142911,-0.032232,1.003224
2011-10-03T14:57:33.146448,6110,0.055197,0.086904,0.027369,0.142898,-0.031978,1.002514
2011-10-03T14:57:33.156448,6120,0.050977,0.110249,0.038727,0.142855,-0.031688,1.001808
2011-10-03T14:57:33.166448,6130,0.047266,0.122552,0.046368,0.142435,-0.030935,1.001135
2011-10-03T14:57:33.176448,6140,0.043555,0.134856,0.054009,0.142015,-0.030183,1.000463
2011-10-03T14:57:33.186448,6150,0.039844,0.147159,0.061651,0.141595,-0.029430,0.999790
2011-10-03T14:57:33.196448,6160,0.036132,0.159462,0.069292,0.141175,-0.028677,0.999118
2011-10-03T14:57:33.206448,6170,0.032421,0.171765,0.076933,0.140755,-0.027925,0.998446
2011-10-03T14:57:33.216448,6180,0.028710,0.184068,0.084574,0.140335,-0.027172,0.997773
2011-10-03T14:57:33.226448,6190,0.024999,0.196372,0.092216,0.139915,-0.026419,0.997101
2011-10-03T14:57:33.236448,6200,0.021288,0.208675,0.099857,0.139495,-0.025667,0.996428
2011-10-03T14:57:33.246448,6210,0.017577,0.220978,0.107498,0.139075,-0.024914,0.995756
2011-10-03T14:57:33.256448,6220,0.013471,0.231558,0.113360,0.138677,-0.024166,0.995144
2011-10-03T14:57:33.266448,6230,0.004535,0.221033,0.097442,0.138561,-0.023475,0.995272
2011-10-03T14:57:33.276448,6240,-0.004401,0.210508,0.081524,0.138444,-0.022783,0.995401
2011-10-03T14:57:33.286448,6250,-0.013337,0.199983,0.065606,0.138327,-0.022092,0.995529
2011-10-03T14:57:33.296448,6260,-0.022272,0.189459,0.049687,0.138211,-0.021401,0.995657
2011-10-03T14:57:33.306448,6270,-0.031208,0.178934,0.033769,0.138094,-0.020709,0.995786
2011-10-03T14:57:33.316448,6280,-0.040144,0.168409,0.017851,0.137977,-0.020018,0.995914
2011-10-03T14:57:33.326448,6290,-0.049080,0.157885,0.001933,0.137860,-0.019327,0.996043
2011-10-03T14:57:33.336448,6300,-0.058016,0.147360,-0.013985,0.137744,-0.018636,0.996171
2011-10-03T14:57:33.346448,6310,-0.066952,0.136835,-0.029904,0.137627,-0.017944,0.996299
2011-10-03T14:57:33.356448,6320,-0.074898,0.126672,-0.044802,0.137477,-0.017433,0.996464
2011-10-03T14:57:33.366448,6330,-0.070842,0.120889,-0.047342,0.136922,-0.019110,0.997065
2011-10-03T14:57:33.376448,6340,-0.066786,0.115105,-0.049882,0.136367,-0.020786,0.997666
2011-10-03T14:57:33.386448,6350,-0.062730,0.109322,-0.052422,0.135812,-0.022463,0.998267
2011-10-03T14:57:33.396448,6360,-0.058674,0.103539,-0.054961,0.135257,-0.024139,0.998868
2011-10-03T14:57:33.406448,6370,-0.054618,0.097756,-0.057501,0.134701,-0.025816,0.999469
2011-10-03T14:57:33.416448,6380,-0.050562,0.091972,-0.060041,0.134146,-0.027492,1.000070
2011-10-03T14:57:33.426448,6390,-0.046506,0.086189,-0.062581,0.133591,-0.029169,1.000671
2011-10-03T14:57:33.436448,6400,-0.042451,0.080406,-0.065120,0.133036,-0.030845,1.001272
2011-10-03T14:57:33.446448,6410,-0.038395,0.074623,-0.067660,0.132481,-0.032522,1.001873
2011-10-03T14:57:33.456448,6420,-0.034339,0.068840,-0.070200,0.131926,-0.034198,1.002474
2011-10-03T14:57:33.466448,6430,-0.032205,0.069021,-0.071301,0.131234,-0.035679,1.003149
2011-10-03T14:57:33.476448,6440,-0.051967,0.137155,-0.056011,0.128982,-0.034933,1.004671
2011-10-03T14:57:33.486448,6450,-0.071729,0.205290,-0.040721,0.126730,-0.034187,1.006193
2011-10-03T14:57:33.496448,6460,-0.091491,0.273424,-0.025431,0.124477,-0.033440,1.007716
2011-10-03T14:57:33.506448,6470,-0.111253,0.341559,-0.010141,0.122225,-0.032694,1.009238
2011-10-03T14:57:33.516448,6480,-0.131016,0.409693,0.005149,0.119973,-0.031947,1.010760
2011-10-03T14:57:33.526448,6490,-0.150778,0.477828,0.020439,0.117721,-0.031201,1.012282
2011-10-03T14:57:33.536448,6500,-0.170540,0.545962,0.035729,0.115468,-0.030454,1.013805
2011-10-03T14:57:33.546448,6510,-0.190302,0.614097,0.051019,0.113216,-0.029708,1.015327
2011-10-03T14:57:33.556448,6520,-0.210064,0.682231,0.066308,0.110964,-0.028962,1.016849
2011-10-03T14:57:33.566448,6530,-0.224824,0.747653,0.079520,0.108486,-0.028266,1.018189
2011-10-03T14:57:33.576448,6540,-0.182214,0.781960,0.068893,0.103415,-0.028146,1.017441
2011-10-03T14:57:33.586448,6550,-0.139604,0.816267,0.058266,0.098345,-0.028027,1.016693
2011-10-03T14:57:33.596448,6560,-0.096994,0.850574,0.047638,0.093274,-0.027908,1.015945
2011-10-03T14:57:33.606448,6570,-0.054384,0.884881,0.037011,0.088204,-0.027789,1.015197
2011-10-03T14:57:33.616448,6580,-0.011773,0.919188,0.026384,0.083133,-0.027670,1.014449
2011-10-03T14:57:33.626448,6590,0.030837,0.953495,0.015757,0.078063,-0.027551,1.013701
2011-10-03T14:57:33.636448,6600,0.073447,0.987801,0.005130,0.072992,-0.027432,1.012952
2011-10-03T14:57:33.646448,6610,0.116057,1.022108,-0.005497,0.067922,-0.027313,1.012204
2011-10-03T14:57:33.656448,6620,0.158667,1.056415,-0.016124,0.062851,-0.027194,1.011456
2011-10-03T14:57:33.666448,6630,0.201277,1.090722,-0.026751,0.057780,-0.027075,1.010708
2011-10-03T14:57:33.676448,6640,0.241137,1.123564,-0.036747,0.052771,-0.026964,1.009897
2011-10-03T14:57:33.686448,6650,0.239026,1.134048,-0.037112,0.048697,-0.026977,1.008128
2011-10-03T14:57:33.696448,6660,0.236915,1.144532,-0.037477,0.044623,-0.026990,1.006358
2011-10-03T14:57:33.706448,6670,0.234804,1.155016,-0.037841,0.040549,-0.027002,1.004589
2011-10-03T14:57:33.716448,6680,0.232693,1.165500,-0.038206,0.036474,-0.027015,1.002819
2011-10-03T14:57:33.726448,6690,0.230582,1.175984,-0.038570,0.032400,-0.027028,1.001050
2011-10-03T14:57:33.736448,6700,0.228471,1.186468,-0.038935,0.028326,-0.027041,0.999280
2011-10-03T14:57:33.746448,6710,0.226360,1.196952,-0.039300,0.024252,-0.027054,0.997511
2011-10-03T14:57:33.756448,6720,0.224249,1.207435,-0.039664,0.020178,-0.027067,0.995741
2011-10-03T14:57:33.766448,6730,0.222138,1.217919,-0.040029,0.016103,-0.027080,0.993972
2011-10-03T14:57:33.776448,6740,0.218872,1.225844,-0.038695,0.012210,-0.027119,0.992318
2011-10-03T14:57:33.786448,6750,0.202582,1.204924,-0.018217,0.010354,-0.027460,0.991964
2011-10-03T14:57:33.796448,6760,0.186293,1.184004,0.002261,0.008498,-0.027800,0.991610
2011-10-03T14:57:33.806448,6770,0.170004,1.163083,0.022739,0.006641,-0.028141,0.991256
2011-10-03T14:57:33.816448,6780,0.153715,1.142163,0.043217,0.004785,-0.028481,0.990902
2011-10-03T14:57:33.826448,6790,0.137426,1.121243,0.063695,0.002929,-0.028822,0.990548
2011-10-03T14:57:33.836448,6800,0.121137,1.100323,0.084173,0.001073,-0.029162,0.990194
2011-10-03T14:57:33.846448,6810,0.104847,1.079402,0.104652,-0.000783,-0.029503,0.989840
2011-10-03T14:57:33.856448,6820,0.088558,1.058482,0.125130,-0.002639,-0.029843,0.989486
2011-10-03T14:57:33.866448,6830,0.072269,1.037562,0.145608,-0.004495,-0.030184,0.989133
2011-10-03T14:57:33.876448,6840,0.056079,1.015936,0.164244,-0.006249,-0.030394,0.988770
2011-10-03T14:57:33.886448,6850,0.040993,0.986484,0.162444,-0.006864,-0.029168,0.988313
2011-10-03T14:57:33.896448,6860,0.025906,0.957031,0.160644,-0.007479,-0.027941,0.987855
2011-10-03T14:57:33.906448,6870,0.010819,0.927579,0.158844,-0.008095,-0.026714,0.987397
2011-10-03T14:57:33.916448,6880,-0.004268,0.898126,0.157044,-0.008710,-0.025487,0.986940
2011-10-03T14:57:33.926448,6890,-0.019355,0.868674,0.155244,-0.009325,-0.024260,0.986482
2011-10-03T14:57:33.936448,6900,-0.034442,0.839221,0.153444,-0.009940,-0.023033,0.986025
2011-10-03T14:57:33.946448,6910,-0.049528,0.809769,0.151644,-0.010555,-0.021807,0.985567
2011-10-03T14:57:33.956448,6920,-0.064615,0.780316,0.149845,-0.011171,-0.020580,0.985109
2011-10-03T14:57:33.966448,6930,-0.079702,0.750864,0.148045,-0.011786,-0.019353,0.984652
2011-10-03T14:57:33.976448,6940,-0.094789,0.721411,0.146245,-0.012401,-0.018126,0.984194
2011-10-03T14:57:33.986448,6950,-0.108410,0.690275,0.143766,-0.012988,-0.017101,0.983846
2011-10-03T14:57:33.996448,6960,-0.106415,0.641197,0.134052,-0.013278,-0.018228,0.984667
2011-10-03T14:57:34.006448,6970,-0.104420,0.592118,0.124338,-0.013568,-0.019355,0.985487
2011-10-03T14:57:34.016448,6980,-0.102424,0.543040,0.114624,-0.013858,-0.020482,0.986308
2011-10-03T14:57:34.026448,6990,-0.100429,0.493961,0.104911,-0.014148,-0.021609,0.987128
2011-10-03T14:57:34.036448,7000,-0.098434,0.444882,0.095197,-0.014438,-0.022735,0.987949
2011-10-03T14:57:34.046448,7010,-0.096438,0.395804,0.085483,-0.014728,-0.023862,0.988769
2011-10-03T14:57:34.056448,7020,-0.094443,0.346725,0.075769,-0.015018,-0.024989,0.989590
2011-10-03T14:57:34.066448,7030,-0.092448,0.297647,0.066055,-0.015308,-0.026116,0.990411
2011-10-03T14:57:34.076448,7040,-0.090452,0.248568,0.056341,-0.015598,-0.027243,0.991231
2011-10-03T14:57:34.086448,7050,-0.088395,0.202609,0.048393,-0.015866,-0.028321,0.992041
2011-10-03T14:57:34.096448,7060,-0.085520,0.197533,0.063585,-0.015841,-0.028762,0.992705
2011-10-03T14:57:34.106448,7070,-0.082646,0.192458,0.078777,-0.015817,-0.029204,0.993370
2011-10-03T14:57:34.116448,7080,-0.079772,0.187382,0.093969,-0.015792,-0.029645,0.994034
2011-10-03T14:57:34.126448,7090,-0.076898,0.182306,0.109160,-0.015767,-0.030086,0.994699
2011-10-03T14:57:34.136448,7100,-0.074024,0.177231,0.124352,-0.015743,-0.030527,0.995363
2011-10-03T14:57:34.146448,7110,-0.071149,0.172155,0.139544,-0.015718,-0.030969,0.996028
2011-10-03T14:57:34.156448,7120,-0.068275,0.167079,0.154736,-0.015693,-0.031410,0.996692
2011-10-03T14:57:34.166448,7130,-0.065401,0.162003,0.169928,-0.015669,-0.031851,0.997357
2011-10-03T14:57:34.176448,7140,-0.062527,0.156928,0.185119,-0.015644,-0.032292,0.998021
2011-10-03T14:57:34.186448,7150,-0.059426,0.151375,0.199435,-0.015608,-0.032635,0.998627
2011-10-03T14:57:34.196448,7160,-0.053657,0.140207,0.203418,-0.015439,-0.031819,0.998544
2011-10-03T14:57:34.206448,7170,-0.047888,0.129038,0.207402,-0.015271,-0.031003,0.998461
2011-10-03T14:57:34.216448,7180,-0.042120,0.117869,0.211385,-0.015102,-0.030187,0.998377
2011-10-03T14:57:34.226448,7190,-0.036351,0.106700,0.215369,-0.014933,-0.029370,0.998294
2011-10-03T14:57:34.236448,7200,-0.030582,0.095531,0.219353,-0.014764,-0.028554,0.998211
2011-10-03T14:57:34.246448,7210,-0.024813,0.084362,0.223336,-0.014596,-0.027738,0.998128
2011-10-03T14:57:34.256448,7220,-0.019044,0.073193,0.227320,-0.014427,-0.026922,0.998044
2011-10-03T14:57:34.266448,7230,-0.013275,0.062024,0.231303,-0.014258,-0.026106,0.997961
2011-10-03T14:57:34.276448,7240,-0.007507,0.050855,0.235287,-0.014089,-0.025289,0.997878
2011-10-03T14:57:34.286448,7250,-0.001738,0.039686,0.239270,-0.013921,-0.024473,0.997794
2011-10-03T14:57:34.296448,7260,0.004410,0.029612,0.241778,-0.013784,-0.023688,0.997716
2011-10-03T14:57:34.306448,7270,0.014473,0.030844,0.229043,-0.013984,-0.023223,0.997685
2011-10-03T14:57:34.316448,7280,0.024535,0.032076,0.216308,-0.014184,-0.022758,0.997654
2011-10-03T14:57:34.326448,7290,0.034598,0.033308,0.203573,-0.014384,-0.022293,0.997623
2011-10-03T14:57:34.336448,7300,0.044660,0.034540,0.190838,-0.014584,-0.021827,0.997592
2011-10-03T14:57:34.346448,7310,0.054723,0.035772,0.178103,-0.014784,-0.021362,0.997561
2011-10-03T14:57:34.356448,7320,0.064785,0.037004,0.165368,-0.014984,-0.020897,0.997530
2011-10-03T14:57:34.366448,7330,0.074848,0.038236,0.152633,-0.015184,-0.020432,0.997500
2011-10-03T14:57:34.376448,7340,0.084911,0.039468,0.139898,-0.015384,-0.019967,0.997469
2011-10-03T14:57:34.386448,7350,0.094973,0.040700,0.127163,-0.015584,-0.019501,0.997438
2011-10-03T14:57:34.396448,7360,0.101681,0.042914,0.115517,-0.015781,-0.019138,0.997430
2011-10-03T14:57:34.406448,7370,0.074226,0.055129,0.114966,-0.015947,-0.019805,0.997661
2011-10-03T14:57:34.416448,7380,0.046772,0.067344,0.114415,-0.016113,-0.020473,0.997892
2011-10-03T14:57:34.426448,7390,0.019317,0.079559,0.113864,-0.016280,-0.021140,0.998123
2011-10-03T14:57:34.436448,7400,-0.008138,0.091774,0.113314,-0.016446,-0.021808,0.998354
2011-10-03T14:57:34.446448,7410,-0.035593,0.103989,0.112763,-0.016613,-0.022475,0.998585
2011-10-03T14:57:34.456448,7420,-0.063048,0.116204,0.112212,-0.016779,-0.023143,0.998816
2011-10-03T14:57:34.466448,7430,-0.090503,0.128419,0.111661,-0.016946,-0.023810,0.999046
2011-10-03T14:57:34.476448,7440,-0.117958,0.140634,0.111110,-0.017112,-0.024478,0.999277
2011-10-03T14:57:34.486448,7450,-0.145413,0.152849,0.110559,-0.017279,-0.025145,0.999508
2011-10-03T14:57:34.496448,7460,-0.171059,0.163916,0.110980,-0.017463,-0.025804,0.999712
2011-10-03T14:57:34.506448,7470,-0.179089,0.163800,0.120873,-0.017823,-0.026382,0.999654
2011-10-03T14:57:34.516448,7480,-0.187118,0.163684,0.130766,-0.018184,-0.026961,0.999595
2011-10-03T14:57:34.526448,7490,-0.195148,0.163568,0.140658,-0.018544,-0.027539,0.999537
2011-10-03T14:57:34.536448,7500,-0.203177,0.163452,0.150551,-0.018904,-0.028117,0.999478
2011-10-03T14:57:34.546448,7510,-0.211207,0.163336,0.160444,-0.019264,-0.028695,0.999420
2011-10-03T14:57:34.556448,7520,-0.219236,0.163220,0.170337,-0.019624,-0.029273,0.999362
2011-10-03T14:57:34.566448,7530,-0.227266,0.163104,0.180229,-0.019985,-0.029851,0.999303
2011-10-03T14:57:34.576448,7540,-0.235295,0.162988,0.190122,-0.020345,-0.030429,0.999245
2011-10-03T14:57:34.586448,7550,-0.243325,0.162871,0.200015,-0.020705,-0.031007,0.999186
2011-10-03T14:57:34.596448,7560,-0.251355,0.162755,0.209907,-0.021065,-0.031586,0.999128
2011-10-03T14:57:34.606448,7570,-0.256333,0.160114,0.217738,-0.021442,-0.032090,0.999132
2011-10-03T14:57:34.616448,7580,-0.227739,0.129686,0.202876,-0.022005,-0.031778,0.999821
2011-10-03T14:57:34.626448,7590,-0.199144,0.099258,0.188014,-0.022568,-0.031467,1.000510
2011-10-03T14:57:34.636448,7600,-0.170549,0.068830,0.173152,-0.023132,-0.031155,1.001199
2011-10-03T14:57:34.646448,7610,-0.141954,0.038402,0.158290,-0.023695,-0.030844,1.001888
2011-10-03T14:57:34.656448,7620,-0.113360,0.007974,0.143428,-0.024258,-0.030533,1.002577
2011-10-03T14:57:34.666448,7630,-0.084765,-0.022454,0.128566,-0.024821,-0.030221,1.003266
2011-10-03T14:57:34.676448,7640,-0.056170,-0.052882,0.113705,-0.025384,-0.029910,1.003956
2011-10-03T14:57:34.686448,7650,-0.027575,-0.083310,0.098843,-0.025947,-0.029598,1.004645
2011-10-03T14:57:34.696448,7660,0.001019,-0.113738,0.083981,-0.026510,-0.029287,1.005334
2011-10-03T14:57:34.706448,7670,0.026811,-0.139720,0.070460,-0.027014,-0.028990,1.005873
2011-10-03T14:57:34.716448,7680,0.024738,-0.121509,0.070270,-0.026931,-0.028835,1.004919
2011-10-03T14:57:34.726448,7690,0.022664,-0.103298,0.070081,-0.026848,-0.028681,1.003965
2011-10-03T14:57:34.736448,7700,0.020591,-0.085087,0.069891,-0.026765,-0.028526,1.003012
2011-10-03T14:57:34.746448,7710,0.018517,-0.066876,0.069701,-0.026682,-0.028372,1.002058
2011-10-03T14:57:34.756448,7720,0.016444,-0.048665,0.069511,-0.026599,-0.028217,1.001104
2011-10-03T14:57:34.766448,7730,0.014370,-0.030454,0.069322,-0.026516,-0.028063,1.000150
2011-10-03T14:57:34.776448,7740,0.012297,-0.012243,0.069132,-0.026433,-0.027908,0.999196
2011-10-03T14:57:34.786448,7750,0.010223,0.005968,0.068942,-0.026350,-0.027754,0.998243
2011-10-03T14:57:34.796448,7760,0.008150,0.024179,0.068753,-0.026267,-0.027599,0.997289
2011-10-03T14:57:34.806448,7770,0.006077,0.042390,0.068563,-0.026184,-0.027445,0.996335
2011-10-03T14:57:34.816448,7780,0.001929,0.059925,0.070178,-0.026161,-0.027286,0.995490
2011-10-03T14:57:34.826448,7790,-0.021750,0.071091,0.088792,-0.026695,-0.027089,0.995666
2011-10-03T14:57:34.836448,7800,-0.045428,0.082258,0.107405,-0.027229,-0.026892,0.995841
2011-10-03T14:57:34.846448,7810,-0.069107,0.093424,0.126019,-0.027763,-0.026695,0.996017
2011-10-03T14:57:34.856448,7820,-0.092786,0.104591,0.144633,-0.028297,-0.026498,0.996193
2011-10-03T14:57:34.866448,7830,-0.116464,0.115757,0.163246,-0.028831,-0.026301,0.996369
2011-10-03T14:57:34.876448,7840,-0.140143,0.126923,0.181860,-0.029365,-0.026104,0.996545
2011-10-03T14:57:34.886448,7850,-0.163822,0.138090,0.200473,-0.029900,-0.025907,0.996721
2011-10-03T14:57:34.896448,7860,-0.187500,0.149256,0.219087,-0.030434,-0.025710,0.996897
2011-10-03T14:57:34.906448,7870,-0.211179,0.160423,0.237700,-0.030968,-0.025513,0.997073
2011-10-03T14:57:34.916448,7880,-0.231656,0.168540,0.253617,-0.031438,-0.025321,0.997220
2011-10-03T14:57:34.926448,7890,-0.220905,0.146912,0.243229,-0.031288,-0.025179,0.997096
2011-10-03T14:57:34.936448,7900,-0.210155,0.125284,0.232840,-0.031138,-0.025037,0.996971
2011-10-03T14:57:34.946448,7910,-0.199404,0.103657,0.222452,-0.030989,-0.024896,0.996846
2011-10-03T14:57:34.956448,7920,-0.188653,0.082029,0.212064,-0.030839,-0.024754,0.996722
2011-10-03T14:57:34.966448,7930,-0.177903,0.060401,0.201675,-0.030689,-0.024612,0.996597
2011-10-03T14:57:34.976448,7940,-0.167152,0.038773,0.191287,-0.030539,-0.024470,0.996472
2011-10-03T14:57:34.986448,7950,-0.156401,0.017146,0.180898,-0.030389,-0.024329,0.996348
2011-10-03T14:57:34.996448,7960,-0.145650,-0.004482,0.170510,-0.030239,-0.024187,0.996223
2011-10-03T14:57:35.006448,7970,-0.134900,-0.026110,0.160122,-0.030089,-0.024045,0.996098
2011-10-03T14:57:35.016448,7980,-0.124848,-0.045997,0.150147,-0.029930,-0.023949,0.996080
2011-10-03T14:57:35.026448,7990,-0.121248,-0.049824,0.143983,-0.029685,-0.024268,0.997039
2011-10-03T14:57:35.036448,8000,-0.117648,-0.053652,0.137819,-0.029439,-0.024587,0.997998
2011-10-03T14:57:35.046448,8010,-0.114047,-0.057480,0.131655,-0.029194,-0.024905,0.998957
2011-10-03T14:57:35.056448,8020,-0.110447,-0.061307,0.125491,-0.028949,-0.025224,0.999916
2011-10-03T14:57:35.066448,8030,-0.106847,-0.065135,0.119328,-0.028703,-0.025543,1.000875
2011-10-03T14:57:35.076448,8040,-0.103246,-0.068963,0.113164,-0.028458,-0.025862,1.001834
2011-10-03T14:57:35.086448,8050,-0.099646,-0.072790,0.107000,-0.028213,-0.026181,1.002793
2011-10-03T14:57:35.096448,8060,-0.096046,-0.076618,0.100836,-0.027967,-0.026500,1.003752
2011-10-03T14:57:35.106448,8070,-0.092445,-0.080446,0.094672,-0.027722,-0.026819,1.004711
2011-10-03T14:57:35.116448,8080,-0.088845,-0.084273,0.088509,-0.027477,-0.027138,1.005671
2011-10-03T14:57:35.126448,8090,-0.085556,-0.085641,0.083859,-0.027276,-0.027476,1.006548
2011-10-03T14:57:35.136448,8100,-0.085580,-0.060837,0.095317,-0.027550,-0.028018,1.006558
2011-10-03T14:57:35.146448,8110,-0.085603,-0.036033,0.106775,-0.027824,-0.028559,1.006568
2011-10-03T14:57:35.156448,8120,-0.085627,-0.011228,0.118233,-0.028098,-0.029101,1.006578
2011-10-03T14:57:35.166448,8130,-0.085651,0.013576,0.129690,-0.028372,-0.029642,1.006588
2011-10-03T14:57:35.176448,8140,-0.085674,0.038380,0.141148,-0.028646,-0.030183,1.006598
2011-10-03T14:57:35.186448,8150,-0.085698,0.063185,0.152606,-0.028920,-0.030725,1.006608
2011-10-03T14:57:35.196448,8160,-0.085722,0.087989,0.164064,-0.029195,-0.031266,1.006618
2011-10-03T14:57:35.206448,8170,-0.085745,0.112793,0.175522,-0.029469,-0.031807,1.006628
2011-10-03T14:57:35.216448,8180,-0.085769,0.137597,0.186980,-0.029743,-0.032349,1.006638
2011-10-03T14:57:35.226448,8190,-0.084993,0.159027,0.197853,-0.030005,-0.032763,1.006528
2011-10-03T14:57:35.236448,8200,-0.077014,0.150049,0.203454,-0.030162,-0.032027,1.005329
2011-10-03T14:57:35.246448,8210,-0.069036,0.141070,0.209055,-0.030320,-0.031292,1.004130
2011-10-03T14:57:35.256448,8220,-0.061057,0.132092,0.214656,-0.030477,-0.030556,1.002931
2011-10-03T14:57:35.266448,8230,-0.053079,0.123114,0.220257,-0.030634,-0.029821,1.001732
2011-10-03T14:57:35.276448,8240,-0.045100,0.114136,0.225857,-0.030791,-0.029085,1.000533
2011-10-03T14:57:35.286448,8250,-0.037122,0.105158,0.231458,-0.030948,-0.028350,0.999334
2011-10-03T14:57:35.296448,8260,-0.029143,0.096180,0.237059,-0.031105,-0.027614,0.998135
2011-10-03T14:57:35.306448,8270,-0.021164,0.087202,0.242660,-0.031263,-0.026879,0.996936
2011-10-03T14:57:35.316448,8280,-0.013186,0.078224,0.248261,-0.031420,-0.026143,0.995737
2011-10-03T14:57:35.326448,8290,-0.004158,0.065441,0.251810,-0.031549,-0.025471,0.994645
2011-10-03T14:57:35.336448,8300,0.014317,0.018424,0.236891,-0.031431,-0.025368,0.994515
2011-10-03T14:57:35.346448,8310,0.032792,-0.028594,0.221973,-0.031312,-0.025265,0.994385
2011-10-03T14:57:35.356448,8320,0.051267,-0.075612,0.207054,-0.031193,-0.025162,0.994255
2011-10-03T14:57:35.366448,8330,0.069742,-0.122630,0.192136,-0.031075,-0.025059,0.994125
2011-10-03T14:57:35.376448,8340,0.088217,-0.169648,0.177217,-0.030956,-0.024956,0.993995
2011-10-03T14:57:35.386448,8350,0.106692,-0.216666,0.162298,-0.030837,-0.024853,0.993865
2011-10-03T14:57:35.396448,8360,0.125167,-0.263684,0.147380,-0.030719,-0.024750,0.993735
2011-10-03T14:57:35.406448,8370,0.143642,-0.310701,0.132461,-0.030600,-0.024647,0.993605
2011-10-03T14:57:35.416448,8380,0.162117,-0.357719,0.117543,-0.030481,-0.024544,0.993475
2011-10-03T14:57:35.426448,8390,0.180591,-0.404737,0.102624,-0.030363,-0.024441,0.993345
2011-10-03T14:57:35.436448,8400,0.194788,-0.446926,0.089659,-0.030198,-0.024414,0.993287
2011-10-03T14:57:35.446448,8410,0.169735,-0.444816,0.094613,-0.029606,-0.025091,0.993884
2011-10-03T14:57:35.456448,8420,0.144682,-0.442707,0.099567,-0.029015,-0.025768,0.994482
2011-10-03T14:57:35.466448,8430,0.119630,-0.440597,0.104522,-0.028423,-0.026445,0.995080
2011-10-03T14:57:35.476448,8440,0.094577,-0.438487,0.109476,-0.027832,-0.027122,0.995678
2011-10-03T14:57:35.486448,8450,0.069524,-0.436377,0.114430,-0.027240,-0.027799,0.996275
2011-10-03T14:57:35.496448,8460,0.044471,-0.434267,0.119385,-0.026649,-0.028476,0.996873
2011-10-03T14:57:35.506448,8470,0.019419,-0.432157,0.124339,-0.026057,-0.029153,0.997471
2011-10-03T14:57:35.516448,8480,-0.005634,-0.430048,0.129293,-0.025466,-0.029830,0.998068
2011-10-03T14:57:35.526448,8490,-0.030687,-0.427938,0.134248,-0.024874,-0.030507,0.998666
2011-10-03T14:57:35.536448,8500,-0.052450,-0.423184,0.139947,-0.024336,-0.031069,0.999197
2011-10-03T14:57:35.546448,8510,-0.045683,-0.395500,0.152102,-0.024257,-0.030633,0.999147
2011-10-03T14:57:35.556448,8520,-0.038917,-0.367816,0.164257,-0.024179,-0.030196,0.999097
2011-10-03T14:57:35.566448,8530,-0.032151,-0.340132,0.176413,-0.024101,-0.029759,0.999048
2011-10-03T14:57:35.576448,8540,-0.025385,-0.312448,0.188568,-0.024022,-0.029323,0.998998
2011-10-03T14:57:35.586448,8550,-0.018618,-0.284764,0.200723,-0.023944,-0.028886,0.998948
2011-10-03T14:57:35.596448,8560,-0.011852,-0.257080,0.212879,-0.023866,-0.028450,0.998898
2011-10-03T14:57:35.606448,8570,-0.005086,-0.229396,0.225034,-0.023787,-0.028013,0.998848
2011-10-03T14:57:35.616448,8580,0.001680,-0.201712,0.237190,-0.023709,-0.027577,0.998798
2011-10-03T14:57:35.626448,8590,0.008447,-0.174028,0.249345,-0.023631,-0.027140,0.998749
2011-10-03T14:57:35.636448,8600,0.015213,-0.146344,0.261500,-0.023553,-0.026704,0.998699
2011-10-03T14:57:35.646448,8610,0.022678,-0.122392,0.271683,-0.023452,-0.026285,0.998689
2011-10-03T14:57:35.656448,8620,0.037750,-0.139083,0.260379,-0.023109,-0.026065,0.999110
2011-10-03T14:57:35.666448,8630,0.052823,-0.155774,0.249076,-0.022767,-0.025845,0.999531
2011-10-03T14:57:35.676448,8640,0.067895,-0.172465,0.237773,-0.022424,-0.025625,0.999952
2011-10-03T14:57:35.686448,8650,0.082967,-0.189157,0.226469,-0.022081,-0.025405,1.000374
2011-10-03T14:57:35.696448,8660,0.098040,-0.205848,0.215166,-0.021738,-0.025185,1.000795
2011-10-03T14:57:35.706448,8670,0.113112,-0.222539,0.203862,-0.021396,-0.024965,1.001216
2011-10-03T14:57:35.716448,8680,0.128185,-0.239230,0.192559,-0.021053,-0.024744,1.001637
2011-10-03T14:57:35.726448,8690,0.143257,-0.255921,0.181256,-0.020710,-0.024524,1.002059
2011-10-03T14:57:35.736448,8700,0.158330,-0.272612,0.169952,-0.020368,-0.024304,1.002480
2011-10-03T14:57:35.746448,8710,0.168633,-0.286487,0.158849,-0.020041,-0.024077,1.002884
2011-10-03T14:57:35.756448,8720,0.138885,-0.276707,0.149429,-0.019854,-0.023788,1.003146
2011-10-03T14:57:35.766448,8730,0.109137,-0.266927,0.140008,-0.019667,-0.023499,1.003407
2011-10-03T14:57:35.776448,8740,0.079389,-0.257146,0.130588,-0.019480,-0.023210,1.003669
2011-10-03T14:57:35.786448,8750,0.049641,-0.247366,0.121168,-0.019294,-0.022922,1.003930
2011-10-03T14:57:35.796448,8760,0.019893,-0.237586,0.111747,-0.019107,-0.022633,1.004192
2011-10-03T14:57:35.806448,8770,-0.009855,-0.227805,0.102327,-0.018920,-0.022344,1.004454
2011-10-03T14:57:35.816448,8780,-0.039603,-0.218025,0.092906,-0.018733,-0.022056,1.004715
2011-10-03T14:57:35.826448,8790,-0.069351,-0.208245,0.083486,-0.018546,-0.021767,1.004977
2011-10-03T14:57:35.836448,8800,-0.099099,-0.198465,0.074065,-0.018359,-0.021478,1.005238
2011-10-03T14:57:35.846448,8810,-0.126178,-0.187397,0.065604,-0.018111,-0.021324,1.005447
2011-10-03T14:57:35.856448,8820,-0.130650,-0.165425,0.065266,-0.017355,-0.022315,1.005208
2011-10-03T14:57:35.866448,8830,-0.135121,-0.143454,0.064928,-0.016598,-0.023306,1.004970
2011-10-03T14:57:35.876448,8840,-0.139593,-0.121482,0.064590,-0.015842,-0.024296,1.004731
2011-10-03T14:57:35.886448,8850,-0.144065,-0.099511,0.064251,-0.015085,-0.025287,1.004493
2011-10-03T14:57:35.896448,8860,-0.148537,-0.077539,0.063913,-0.014328,-0.026278,1.004254
2011-10-03T14:57:35.906448,8870,-0.153009,-0.055567,0.063575,-0.013572,-0.027268,1.004015
2011-10-03T14:57:35.916448,8880,-0.157480,-0.033596,0.063237,-0.012815,-0.028259,1.003777
2011-10-03T14:57:35.926448,8890,-0.161952,-0.011624,0.062899,-0.012058,-0.029249,1.003538
2011-10-03T14:57:35.936448,8900,-0.166424,0.010347,0.062561,-0.011302,-0.030240,1.003299
2011-10-03T14:57:35.946448,8910,-0.170896,0.032319,0.062223,-0.010545,-0.031231,1.003061
2011-10-03T14:57:35.956448,8920,-0.173550,0.052263,0.061406,-0.009867,-0.032064,1.002825
2011-10-03T14:57:35.966448,8930,-0.160531,0.054724,0.056459,-0.009863,-0.031545,1.002618
2011-10-03T14:57:35.976448,8940,-0.147512,0.057184,0.051513,-0.009859,-0.031025,1.002410
2011-10-03T14:57:35.986448,8950,-0.134494,0.059645,0.046566,-0.009856,-0.030506,1.002202
2011-10-03T14:57:35.996448,8960,-0.121475,0.062106,0.041619,-0.009852,-0.029987,1.001994
2011-10-03T14:57:36.006448,8970,-0.108456,0.064566,0.036673,-0.009849,-0.029467,1.001786
2011-10-03T14:57:36.016448,8980,-0.095438,0.067027,0.031726,-0.009845,-0.028948,1.001578
2011-10-03T14:57:36.026448,8990,-0.082419,0.069487,0.026779,-0.009842,-0.028428,1.001370
2011-10-03T14:57:36.036448,9000,-0.069400,0.071948,0.021833,-0.009838,-0.027909,1.001162
2011-10-03T14:57:36.046448,9010,-0.056381,0.074409,0.016886,-0.009835,-0.027389,1.000954
2011-10-03T14:57:36.056448,9020,-0.042727,0.074378,0.010666,-0.009868,-0.027012,1.000734
2011-10-03T14:57:36.066448,9030,-0.023980,0.054394,-0.005750,-0.010197,-0.027772,1.000415
2011-10-03T14:57:36.076448,9040,-0.005234,0.034410,-0.022166,-0.010526,-0.028532,1.000095
2011-10-03T14:57:36.086448,9050,0.013513,0.014426,-0.038583,-0.010855,-0.029292,0.999776
2011-10-03T14:57:36.096448,9060,0.032259,-0.005558,-0.054999,-0.011184,-0.030051,0.999456
2011-10-03T14:57:36.106448,9070,0.051006,-0.025542,-0.071415,-0.011513,-0.030811,0.999136
2011-10-03T14:57:36.116448,9080,0.069752,-0.045526,-0.087831,-0.011842,-0.031571,0.998817
2011-10-03T14:57:36.126448,9090,0.088498,-0.065510,-0.104247,-0.012171,-0.032331,0.998497
2011-10-03T14:57:36.136448,9100,0.107245,-0.085494,-0.120664,-0.012500,-0.033091,0.998178
2011-10-03T14:57:36.146448,9110,0.125991,-0.105478,-0.137080,-0.012829,-0.033851,0.997858
2011-10-03T14:57:36.156448,9120,0.141522,-0.124545,-0.151031,-0.013121,-0.034466,0.997631
2011-10-03T14:57:36.166448,9130,0.130238,-0.135967,-0.144428,-0.013101,-0.033878,0.998175
2011-10-03T14:57:36.176448,9140,0.118955,-0.147389,-0.137825,-0.013080,-0.033289,0.998720
2011-10-03T14:57:36.186448,9150,0.107671,-0.158811,-0.131223,-0.013060,-0.032701,0.999264
2011-10-03T14:57:36.196448,9160,0.096388,-0.170233,-0.124620,-0.013040,-0.032112,0.999808
2011-10-03T14:57:36.206448,9170,0.085104,-0.181655,-0.118017,-0.013019,-0.031524,1.000352
2011-10-03T14:57:36.216448,9180,0.073821,-0.193077,-0.111415,-0.012999,-0.030935,1.000896
2011-10-03T14:57:36.226448,9190,0.062537,-0.204499,-0.104812,-0.012978,-0.030346,1.001440
2011-10-03T14:57:36.236448,9200,0.051254,-0.215921,-0.098209,-0.012958,-0.029758,1.001985
2011-10-03T14:57:36.246448,9210,0.039970,-0.227343,-0.091607,-0.012938,-0.029169,1.002529
2011-10-03T14:57:36.256448,9220,0.028687,-0.238766,-0.085004,-0.012917,-0.028581,1.003073
2011-10-03T14:57:36.266448,9230,0.018192,-0.247047,-0.077967,-0.012904,-0.028081,1.003545
2011-10-03T14:57:36.276448,9240,0.013965,-0.230371,-0.067479,-0.012947,-0.028288,1.003447
2011-10-03T14:57:36.286448,9250,0.009738,-0.213696,-0.056991,-0.012989,-0.028495,1.003349
2011-10-03T14:57:36.296448,9260,0.005512,-0.197021,-0.046502,-0.013032,-0.028702,1.003251
2011-10-03T14:57:36.306448,9270,0.001285,-0.180346,-0.036014,-0.013074,-0.028909,1.003153
2011-10-03T14:57:36.316448,9280,-0.002942,-0.163671,-0.025526,-0.013117,-0.029116,1.003054
2011-10-03T14:57:36.326448,9290,-0.007169,-0.146996,-0.015038,-0.013159,-0.029323,1.002956
2011-10-03T14:57:36.336448,9300,-0.011396,-0.130321,-0.004550,-0.013202,-0.029529,1.002858
2011-10-03T14:57:36.346448,9310,-0.015623,-0.113646,0.005938,-0.013244,-0.029736,1.002760
2011-10-03T14:57:36.356448,9320,-0.019850,-0.096971,0.016426,-0.013287,-0.029943,1.002662
2011-10-03T14:57:36.366448,9330,-0.024306,-0.081112,0.024430,-0.013345,-0.030095,1.002529
2011-10-03T14:57:36.376448,9340,-0.030587,-0.071748,0.012661,-0.013527,-0.029809,1.002122
2011-10-03T14:57:36.386448,9350,-0.036869,-0.062384,0.000893,-0.013710,-0.029524,1.001715
2011-10-03T14:57:36.396448,9360,-0.043150,-0.053021,-0.010876,-0.013893,-0.029238,1.001308
2011-10-03T14:57:36.406448,9370,-0.049431,-0.043657,-0.022644,-0.014076,-0.028953,1.000900
2011-10-03T14:57:36.416448,9380,-0.055712,-0.034293,-0.034413,-0.014258,-0.028667,1.000493
2011-10-03T14:57:36.426448,9390,-0.061993,-0.024929,-0.046182,-0.014441,-0.028381,1.000086
2011-10-03T14:57:36.436448,9400,-0.068275,-0.015566,-0.057950,-0.014624,-0.028096,0.999679
2011-10-03T14:57:36.446448,9410,-0.074556,-0.006202,-0.069719,-0.014807,-0.027810,0.999272
2011-10-03T14:57:36.456448,9420,-0.080837,0.003162,-0.081487,-0.014989,-0.027525,0.998865
2011-10-03T14:57:36.466448,9430,-0.085112,0.011336,-0.092240,-0.015122,-0.027306,0.998545
2011-10-03T14:57:36.476448,9440,-0.073946,0.010360,-0.095172,-0.014868,-0.027606,0.998900
2011-10-03T14:57:36.486448,9450,-0.062781,0.009384,-0.098104,-0.014615,-0.027906,0.999255
2011-10-03T14:57:36.496448,9460,-0.051616,0.008408,-0.101036,-0.014361,-0.028205,0.999609
2011-10-03T14:57:36.506448,9470,-0.040451,0.007431,-0.103968,-0.014107,-0.028505,0.999964
2011-10-03T14:57:36.516448,9480,-0.029286,0.006455,-0.106901,-0.013854,-0.028805,1.000319
2011-10-03T14:57:36.526448,9490,-0.018120,0.005479,-0.109833,-0.013600,-0.029104,1.000673
2011-10-03T14:57:36.536448,9500,-0.006955,0.004503,-0.112765,-0.013347,-0.029404,1.001028
2011-10-03T14:57:36.546448,9510,0.004210,0.003526,-0.115697,-0.013093,-0.029704,1.001383
2011-10-03T14:57:36.556448,9520,0.015375,0.002550,-0.118629,-0.012839,-0.030003,1.001737
2011-10-03T14:57:36.566448,9530,0.026541,0.001574,-0.121561,-0.012586,-0.030303,1.002092
2011-10-03T14:57:36.576448,9540,0.033596,0.002613,-0.122423,-0.012401,-0.030557,1.002407
2011-10-03T14:57:36.586448,9550,0.009048,0.019146,-0.107363,-0.012746,-0.030457,1.002412
2011-10-03T14:57:36.596448,9560,-0.015500,0.035679,-0.092303,-0.013091,-0.030356,1.002418
2011-10-03T14:57:36.606448,9570,-0.040048,0.052212,-0.077244,-0.013437,-0.030256,1.002424
2011-10-03T14:57:36.616448,9580,-0.064596,0.068745,-0.062184,-0.013782,-0.030156,1.002429
2011-10-03T14:57:36.626448,9590,-0.089143,0.085278,-0.047124,-0.014127,-0.030056,1.002435
2011-10-03T14:57:36.636448,9600,-0.113691,0.101812,-0.032064,-0.014472,-0.029956,1.002441
2011-10-03T14:57:36.646448,9610,-0.138239,0.118345,-0.017004,-0.014817,-0.029856,1.002447
2011-10-03T14:57:36.656448,9620,-0.162787,0.134878,-0.001945,-0.015163,-0.029756,1.002452
2011-10-03T14:57:36.666448,9630,-0.187335,0.151411,0.013115,-0.015508,-0.029655,1.002458
2011-10-03T14:57:36.676448,9640,-0.207750,0.166660,0.026327,-0.015844,-0.029596,1.002466
2011-10-03T14:57:36.686448,9650,-0.189733,0.169965,0.022355,-0.016095,-0.029918,1.002501
2011-10-03T14:57:36.696448,9660,-0.171715,0.173270,0.018382,-0.016346,-0.030240,1.002536
2011-10-03T14:57:36.706448,9670,-0.153698,0.176575,0.014409,-0.016598,-0.030561,1.002570
2011-10-03T14:57:36.716448,9680,-0.135681,0.179881,0.010437,-0.016849,-0.030883,1.002605
2011-10-03T14:57:36.726448,9690,-0.117664,0.183186,0.006464,-0.017100,-0.031205,1.002639
2011-10-03T14:57:36.736448,9700,-0.099647,0.186491,0.002491,-0.017352,-0.031527,1.002674
2011-10-03T14:57:36.746448,9710,-0.081630,0.189796,-0.001481,-0.017603,-0.031848,1.002708
2011-10-03T14:57:36.756448,9720,-0.063613,0.193101,-0.005454,-0.017854,-0.032170,1.002743
2011-10-03T14:57:36.766448,9730,-0.045596,0.196407,-0.009427,-0.018106,-0.032492,1.002778
2011-10-03T14:57:36.776448,9740,-0.027579,0.199712,-0.013399,-0.018357,-0.032814,1.002812
2011-10-03T14:57:36.786448,9750,-0.009324,0.200001,-0.018245,-0.018549,-0.033032,1.002826
2011-10-03T14:57:36.796448,9760,0.010759,0.177126,-0.029795,-0.018287,-0.032456,1.002679
2011-10-03T14:57:36.806448,9770,0.030841,0.154251,-0.041345,-0.018024,-0.031880,1.002533
2011-10-03T14:57:36.816448,9780,0.050924,0.131376,-0.052895,-0.017761,-0.031304,1.002387
2011-10-03T14:57:36.826448,9790,0.071006,0.108501,-0.064445,-0.017499,-0.030727,1.002240
2011-10-03T14:57:36.836448,9800,0.091089,0.085626,-0.075996,-0.017236,-0.030151,1.002094
2011-10-03T14:57:36.846448,9810,0.111171,0.062752,-0.087546,-0.016973,-0.029575,1.001947
2011-10-03T14:57:36.856448,9820,0.131254,0.039877,-0.099096,-0.016711,-0.028999,1.001801
2011-10-03T14:57:36.866448,9830,0.151336,0.017002,-0.110646,-0.016448,-0.028423,1.001654
2011-10-03T14:57:36.876448,9840,0.171418,-0.005873,-0.122196,-0.016186,-0.027847,1.001508
2011-10-03T14:57:36.886448,9850,0.188856,-0.025092,-0.132051,-0.015975,-0.027391,1.001327
2011-10-03T14:57:36.896448,9860,0.184190,-0.013757,-0.127743,-0.016203,-0.027938,1.000854
2011-10-03T14:57:36.906448,9870,0.179524,-0.002422,-0.123435,-0.016431,-0.028486,1.000381
2011-10-03T14:57:36.916448,9880,0.174858,0.008912,-0.119127,-0.016659,-0.029033,0.999908
2011-10-03T14:57:36.926448,9890,0.170193,0.020247,-0.114818,-0.016887,-0.029581,0.999435
2011-10-03T14:57:36.936448,9900,0.165527,0.031582,-0.110510,-0.017115,-0.030128,0.998962
2011-10-03T14:57:36.946448,9910,0.160861,0.042916,-0.106202,-0.017343,-0.030676,0.998489
2011-10-03T14:57:36.956448,9920,0.156195,0.054251,-0.101893,-0.017571,-0.031223,0.998016
2011-10-03T14:57:36.966448,9930,0.151529,0.065586,-0.097585,-0.017799,-0.031771,0.997543
2011-10-03T14:57:36.976448,9940,0.146864,0.076920,-0.093277,-0.018026,-0.032318,0.997070
2011-10-03T14:57:36.986448,9950,0.141301,0.085829,-0.088700,-0.018240,-0.032678,0.996563
2011-10-03T14:57:36.996448,9960,0.128940,0.076360,-0.082089,-0.018341,-0.031617,0.995795
2011-10-03T14:57:37.006448,9970,0.116579,0.066892,-0.075477,-0.018443,-0.030556,0.995027
2011-10-03T14:57:37.016448,9980,0.104218,0.057423,-0.068865,-0.018545,-0.029494,0.994259
2011-10-03T14:57:37.026448,9990,0.091857,0.047954,-0.062254,-0.018647,-0.028433,0.993490
2011-10-03T14:57:37.036448,10000,0.079497,0.038485,-0.055642,-0.018749,-0.027372,0.992722
2011-10-03T14:57:37.046448,10010,0.067136,0.029016,-0.049031,-0.018850,-0.026310,0.991954
2011-10-03T14:57:37.056448,10020,0.054775,0.019547,-0.042419,-0.018952,-0.025249,0.991186
2011-10-03T14:57:37.066448,10030,0.042414,0.010078,-0.035808,-0.019054,-0.024188,0.990418
2011-10-03T14:57:37.076448,10040,0.030053,0.000609,-0.029196,-0.019156,-0.023126,0.989650
2011-10-03T14:57:37.086448,10050,0.017693,-0.008859,-0.022584,-0.019258,-0.022065,0.988882
2011-10-03T14:57:37.096448,10060,0.005455,-0.017844,-0.017174,-0.019291,-0.021128,0.988274
2011-10-03T14:57:37.106448,10070,-0.005742,-0.022762,-0.021860,-0.018754,-0.021234,0.989021
2011-10-03T14:57:37.116448,10080,-0.016940,-0.027679,-0.026546,-0.018216,-0.021341,0.989768
2011-10-03T14:57:37.126448,10090,-0.028137,-0.032597,-0.031233,-0.017678,-0.021447,0.990515
2011-10-03T14:57:37.136448,10100,-0.039335,-0.037514,-0.035919,-0.017141,-0.021554,0.991262
2011-10-03T14:57:37.146448,10110,-0.050532,-0.042431,-0.040605,-0.016603,-0.021660,0.992009
2011-10-03T14:57:37.156448,10120,-0.061730,-0.047349,-0.045292,-0.016065,-0.021767,0.992756
2011-10-03T14:57:37.166448,10130,-0.072927,-0.052266,-0.049978,-0.015527,-0.021873,0.993503
2011-10-03T14:57:37.176448,10140,-0.084125,-0.057184,-0.054664,-0.014990,-0.021980,0.994250
2011-10-03T14:57:37.186448,10150,-0.095322,-0.062101,-0.059351,-0.014452,-0.022086,0.994997
2011-10-03T14:57:37.196448,10160,-0.104325,-0.065391,-0.063701,-0.014023,-0.022292,0.995794
2011-10-03T14:57:37.206448,10170,-0.096388,-0.056123,-0.065458,-0.014436,-0.023263,0.996972
2011-10-03T14:57:37.216448,10180,-0.088450,-0.046855,-0.067215,-0.014848,-0.024234,0.998150
2011-10-03T14:57:37.226448,10190,-0.080513,-0.037587,-0.068972,-0.015260,-0.025205,0.999328
2011-10-03T14:57:37.236448,10200,-0.072576,-0.028319,-0.070730,-0.015672,-0.026176,1.000507
2011-10-03T14:57:37.246448,10210,-0.064638,-0.019050,-0.072487,-0.016085,-0.027147,1.001685
2011-10-03T14:57:37.256448,10220,-0.056701,-0.009782,-0.074244,-0.016497,-0.028118,1.002863
2011-10-03T14:57:37.266448,10230,-0.048764,-0.000514,-0.076001,-0.016909,-0.029089,1.004041
2011-10-03T14:57:37.276448,10240,-0.040826,0.008754,-0.077758,-0.017321,-0.030060,1.005219
2011-10-03T14:57:37.286448,10250,-0.032889,0.018022,-0.079515,-0.017734,-0.031031,1.006397
2011-10-03T14:57:37.296448,10260,-0.025702,0.027412,-0.080222,-0.018105,-0.031927,1.007408
2011-10-03T14:57:37.306448,10270,-0.023960,0.037681,-0.073310,-0.018179,-0.032283,1.007206
2011-10-03T14:57:37.316448,10280,-0.022218,0.047951,-0.066398,-0.018254,-0.032638,1.007003
2011-10-03T14:57:37.326448,10290,-0.020476,0.058220,-0.059486,-0.018328,-0.032993,1.006800
2011-10-03T14:57:37.336448,10300,-0.018734,0.068490,-0.052574,-0.018402,-0.033349,1.006598
2011-10-03T14:57:37.346448,10310,-0.016993,0.078759,-0.045662,-0.018477,-0.033704,1.006395
2011-10-03T14:57:37.356448,10320,-0.015251,0.089028,-0.038750,-0.018551,-0.034060,1.006193
2011-10-03T14:57:37.366448,10330,-0.013509,0.099298,-0.031838,-0.018626,-0.034415,1.005990
2011-10-03T14:57:37.376448,10340,-0.011767,0.109567,-0.024926,-0.018700,-0.034770,1.005787
2011-10-03T14:57:37.386448,10350,-0.010025,0.119837,-0.018015,-0.018774,-0.035126,1.005585
2011-10-03T14:57:37.396448,10360,-0.008283,0.130106,-0.011103,-0.018849,-0.035481,1.005382
2011-10-03T14:57:37.406448,10370,-0.006473,0.138793,-0.003574,-0.019014,-0.035731,1.005203
2011-10-03T14:57:37.416448,10380,-0.004192,0.136553,0.008214,-0.019807,-0.035252,1.005185
2011-10-03T14:57:37.426448,10390,-0.001911,0.134313,0.020001,-0.020600,-0.034772,1.005167
2011-10-03T14:57:37.436448,10400,0.000370,0.132073,0.031789,-0.021393,-0.034292,1.005149
2011-10-03T14:57:37.446448,10410,0.002651,0.129833,0.043576,-0.022186,-0.033813,1.005131
2011-10-03T14:57:37.456448,10420,0.004931,0.127593,0.055364,-0.022979,-0.033333,1.005113
2011-10-03T14:57:37.466448,10430,0.007212,0.125353,0.067151,-0.023772,-0.032854,1.005095
2011-10-03T14:57:37.476448,10440,0.009493,0.123113,0.078939,-0.024565,-0.032374,1.005077
2011-10-03T14:57:37.486448,10450,0.011774,0.120873,0.090727,-0.025358,-0.031895,1.005059
2011-10-03T14:57:37.496448,10460,0.014055,0.118633,0.102514,-0.026151,-0.031415,1.005041
2011-10-03T14:57:37.506448,10470,0.019285,0.115980,0.111825,-0.026841,-0.030938,1.004916
2011-10-03T14:57:37.516448,10480,0.044971,0.110459,0.103953,-0.026814,-0.030479,1.004052
2011-10-03T14:57:37.526448,10490,0.070657,0.104939,0.096081,-0.026787,-0.030020,1.003188
2011-10-03T14:57:37.536448,10500,0.096343,0.099418,0.088209,-0.026760,-0.029561,1.002324
2011-10-03T14:57:37.546448,10510,0.122029,0.093898,0.080336,-0.026733,-0.029102,1.001459
2011-10-03T14:57:37.556448,10520,0.147715,0.088378,0.072464,-0.026706,-0.028643,1.000595
2011-10-03T14:57:37.566448,10530,0.173401,0.082857,0.064592,-0.026679,-0.028184,0.999731
2011-10-03T14:57:37.576448,10540,0.199087,0.077337,0.056720,-0.026652,-0.027725,0.998866
2011-10-03T14:57:37.586448,10550,0.224773,0.071817,0.048848,-0.026625,-0.027266,0.998002
2011-10-03T14:57:37.596448,10560,0.250459,0.066296,0.040976,-0.026598,-0.026807,0.997138
2011-10-03T14:57:37.606448,10570,0.276145,0.060776,0.033104,-0.026571,-0.026348,0.996274
2011-10-03T14:57:37.616448,10580,0.296355,0.057785,0.026558,-0.026491,-0.025888,0.995419
2011-10-03T14:57:37.626448,10590,0.274553,0.074198,0.030185,-0.025998,-0.025418,0.994638
2011-10-03T14:57:37.636448,10600,0.252750,0.090611,0.033812,-0.025505,-0.024948,0.993856
2011-10-03T14:57:37.646448,10610,0.230947,0.107024,0.037439,-0.025012,-0.024477,0.993075
2011-10-03T14:57:37.656448,10620,0.209145,0.123437,0.041066,-0.024519,-0.024007,0.992293
2011-10-03T14:57:37.666448,10630,0.187342,0.139850,0.044693,-0.024025,-0.023537,0.991512
2011-10-03T14:57:37.676448,10640,0.165539,0.156263,0.048320,-0.023532,-0.023066,0.990731
2011-10-03T14:57:37.686448,10650,0.143736,0.172676,0.051947,-0.023039,-0.022596,0.989949
2011-10-03T14:57:37.696448,10660,0.121934,0.189089,0.055574,-0.022546,-0.022126,0.989168
2011-10-03T14:57:37.706448,10670,0.100131,0.205502,0.059201,-0.022053,-0.021655,0.988386
2011-10-03T14:57:37.716448,10680,0.078990,0.219629,0.064377,-0.021680,-0.021315,0.987747
2011-10-03T14:57:37.726448,10690,0.062463,0.217794,0.080361,-0.022139,-0.021878,0.988095
2011-10-03T14:57:37.736448,10700,0.045936,0.215960,0.096345,-0.022598,-0.022441,0.988443
2011-10-03T14:57:37.746448,10710,0.029409,0.214125,0.112329,-0.023057,-0.023004,0.988791
2011-10-03T14:57:37.756448,10720,0.012882,0.212291,0.128313,-0.023516,-0.023567,0.989139
2011-10-03T14:57:37.766448,10730,-0.003645,0.210456,0.144297,-0.023975,-0.024129,0.989488
2011-10-03T14:57:37.776448,10740,-0.020172,0.208622,0.160281,-0.024434,-0.024692,0.989836
2011-10-03T14:57:37.786448,10750,-0.036698,0.206787,0.176265,-0.024893,-0.025255,0.990184
2011-10-03T14:57:37.796448,10760,-0.053225,0.204953,0.192249,-0.025352,-0.025818,0.990532
2011-10-03T14:57:37.806448,10770,-0.069752,0.203118,0.208233,-0.025811,-0.026381,0.990880
2011-10-03T14:57:37.816448,10780,-0.084119,0.198169,0.222947,-0.026200,-0.026882,0.991329
2011-10-03T14:57:37.826448,10790,-0.083890,0.172164,0.229072,-0.026122,-0.026958,0.992452
2011-10-03T14:57:37.836448,10800,-0.083660,0.146160,0.235197,-0.026043,-0.027035,0.993575
2011-10-03T14:57:37.846448,10810,-0.083431,0.120155,0.241323,-0.025965,-0.027111,0.994698
2011-10-03T14:57:37.856448,10820,-0.083201,0.094151,0.247448,-0.025887,-0.027188,0.995821
2011-10-03T14:57:37.866448,10830,-0.082972,0.068146,0.253573,-0.025808,-0.027264,0.996944
2011-10-03T14:57:37.876448,10840,-0.082742,0.042142,0.259699,-0.025730,-0.027341,0.998067
2011-10-03T14:57:37.886448,10850,-0.082513,0.016137,0.265824,-0.025651,-0.027417,0.999190
2011-10-03T14:57:37.896448,10860,-0.082283,-0.009867,0.271950,-0.025573,-0.027494,1.000313
2011-10-03T14:57:37.906448,10870,-0.082054,-0.035872,0.278075,-0.025495,-0.027570,1.001437
2011-10-03T14:57:37.916448,10880,-0.081824,-0.061877,0.284200,-0.025416,-0.027647,1.002560
2011-10-03T14:57:37.926448,10890,-0.078902,-0.085460,0.288720,-0.025333,-0.027691,1.003604
2011-10-03T14:57:37.936448,10900,-0.058011,-0.092881,0.282518,-0.025217,-0.027515,1.004121
2011-10-03T14:57:37.946448,10910,-0.037120,-0.100303,0.276317,-0.025101,-0.027339,1.004639
2011-10-03T14:57:37.956448,10920,-0.016228,-0.107725,0.270116,-0.024986,-0.027163,1.005156
2011-10-03T14:57:37.966448,10930,0.004663,-0.115146,0.263915,-0.024870,-0.026988,1.005674
2011-10-03T14:57:37.976448,10940,0.025555,-0.122568,0.257713,-0.024754,-0.026812,1.006191
2011-10-03T14:57:37.986448,10950,0.046446,-0.129990,0.251512,-0.024638,-0.026636,1.006709
2011-10-03T14:57:37.996448,10960,0.067337,-0.137412,0.245311,-0.024523,-0.026460,1.007227
2011-10-03T14:57:38.006448,10970,0.088229,-0.144833,0.239109,-0.024407,-0.026285,1.007744
2011-10-03T14:57:38.016448,10980,0.109120,-0.152255,0.232908,-0.024291,-0.026109,1.008262
2011-10-03T14:57:38.026448,10990,0.128095,-0.152382,0.228676,-0.024204,-0.025950,1.008651
2011-10-03T14:57:38.036448,11000,0.134429,-0.104379,0.237433,-0.024308,-0.025902,1.008192
2011-10-03T14:57:38.046448,11010,0.140762,-0.056377,0.246191,-0.024411,-0.025854,1.007734
2011-10-03T14:57:38.056448,11020,0.147095,-0.008374,0.254948,-0.024514,-0.025805,1.007276
2011-10-03T14:57:38.066448,11030,0.153428,0.039628,0.263706,-0.024617,-0.025757,1.006817
2011-10-03T14:57:38.076448,11040,0.159762,0.087631,0.272464,-0.024721,-0.025709,1.006359
2011-10-03T14:57:38.086448,11050,0.166095,0.135633,0.281221,-0.024824,-0.025661,1.005901
2011-10-03T14:57:38.096448,11060,0.172428,0.183636,0.289979,-0.024927,-0.025613,1.005442
2011-10-03T14:57:38.106448,11070,0.178761,0.231639,0.298736,-0.025031,-0.025565,1.004984
2011-10-03T14:57:38.116448,11080,0.185094,0.279641,0.307494,-0.025134,-0.025517,1.004526
2011-10-03T14:57:38.126448,11090,0.189101,0.321993,0.317070,-0.025243,-0.025423,1.004001
2011-10-03T14:57:38.136448,11100,0.174671,0.319580,0.333134,-0.025393,-0.024973,1.002955
2011-10-03T14:57:38.146448,11110,0.160242,0.317168,0.349199,-0.025544,-0.024523,1.001908
2011-10-03T14:57:38.156448,11120,0.145812,0.314755,0.365263,-0.025695,-0.024072,1.000862
2011-10-03T14:57:38.166448,11130,0.131383,0.312342,0.381327,-0.025846,-0.023622,0.999815
2011-10-03T14:57:38.176448,11140,0.116953,0.309930,0.397391,-0.025997,-0.023172,0.998768
2011-10-03T14:57:38.186448,11150,0.102524,0.307517,0.413456,-0.026148,-0.022721,0.997722
2011-10-03T14:57:38.196448,11160,0.088095,0.305104,0.429520,-0.026299,-0.022271,0.996675
2011-10-03T14:57:38.206448,11170,0.073665,0.302692,0.445584,-0.026450,-0.021821,0.995629
2011-10-03T14:57:38.216448,11180,0.059236,0.300279,0.461648,-0.026601,-0.021370,0.994582
2011-10-03T14:57:38.226448,11190,0.044806,0.297866,0.477713,-0.026751,-0.020920,0.993535
2011-10-03T14:57:38.236448,11200,0.031089,0.292189,0.491723,-0.026847,-0.020566,0.992578
2011-10-03T14:57:38.246448,11210,0.022062,0.265021,0.492212,-0.026574,-0.020847,0.992207
2011-10-03T14:57:38.256448,11220,0.013035,0.237852,0.492701,-0.026301,-0.021127,0.991837
2011-10-03T14:57:38.266448,11230,0.004008,0.210684,0.493191,-0.026029,-0.021408,0.991466
2011-10-03T14:57:38.276448,11240,-0.005019,0.183516,0.493680,-0.025756,-0.021689,0.991096
2011-10-03T14:57:38.286448,11250,-0.014046,0.156347,0.494169,-0.025484,-0.021969,0.990725
2011-10-03T14:57:38.296448,11260,-0.023074,0.129179,0.494658,-0.025211,-0.022250,0.990354
2011-10-03T14:57:38.306448,11270,-0.032101,0.102011,0.495148,-0.024938,-0.022531,0.989984
2011-10-03T14:57:38.316448,11280,-0.041128,0.074842,0.495637,-0.024666,-0.022812,0.989613
2011-10-03T14:57:38.326448,11290,-0.050155,0.047674,0.496126,-0.024393,-0.023092,0.989243
2011-10-03T14:57:38.336448,11300,-0.054462,0.021527,0.495313,-0.024149,-0.023364,0.989101
2011-10-03T14:57:38.346448,11310,-0.028782,0.001872,0.486220,-0.024082,-0.023577,0.990412
2011-10-03T14:57:38.356448,11320,-0.003102,-0.017783,0.477128,-0.024016,-0.023790,0.991723
2011-10-03T14:57:38.366448,11330,0.022578,-0.037438,0.468036,-0.023949,-0.024003,0.993034
2011-10-03T14:57:38.376448,11340,0.048258,-0.057093,0.458943,-0.023883,-0.024217,0.994345
2011-10-03T14:57:38.386448,11350,0.073937,-0.076748,0.449851,-0.023816,-0.024430,0.995656
2011-10-03T14:57:38.396448,11360,0.099617,-0.096403,0.440759,-0.023750,-0.024643,0.996967
2011-10-03T14:57:38.406448,11370,0.125297,-0.116058,0.431666,-0.023683,-0.024856,0.998278
2011-10-03T14:57:38.416448,11380,0.150977,-0.135713,0.422574,-0.023617,-0.025070,0.999588
2011-10-03T14:57:38.426448,11390,0.176657,-0.155367,0.413482,-0.023550,-0.025283,1.000899
2011-10-03T14:57:38.436448,11400,0.196495,-0.169942,0.406381,-0.023496,-0.025417,1.002011
2011-10-03T14:57:38.446448,11410,0.179340,-0.152354,0.411889,-0.023521,-0.025045,1.001857
2011-10-03T14:57:38.456448,11420,0.162185,-0.134766,0.417397,-0.023546,-0.024674,1.001704
2011-10-03T14:57:38.466448,11430,0.145030,-0.117178,0.422905,-0.023572,-0.024302,1.001550
2011-10-03T14:57:38.476448,11440,0.127875,-0.099590,0.428414,-0.023597,-0.023931,1.001397
2011-10-03T14:57:38.486448,11450,0.110720,-0.082002,0.433922,-0.023622,-0.023559,1.001244
2011-10-03T14:57:38.496448,11460,0.093565,-0.064414,0.439430,-0.023647,-0.023188,1.001090
2011-10-03T14:57:38.506448,11470,0.076411,-0.046825,0.444938,-0.023672,-0.022817,1.000937
2011-10-03T14:57:38.516448,11480,0.059256,-0.029237,0.450446,-0.023697,-0.022445,1.000784
2011-10-03T14:57:38.526448,11490,0.042101,-0.011649,0.455955,-0.023722,-0.022074,1.000630
2011-10-03T14:57:38.536448,11500,0.024946,0.005939,0.461463,-0.023748,-0.021702,1.000477
2011-10-03T14:57:38.546448,11510,0.007701,0.024193,0.466656,-0.023774,-0.021361,1.000347
2011-10-03T14:57:38.556448,11520,-0.010109,0.046627,0.469871,-0.023812,-0.021210,1.000369
2011-10-03T14:57:38.566448,11530,-0.027919,0.069060,0.473086,-0.023850,-0.021058,1.000391
2011-10-03T14:57:38.576448,11540,-0.045729,0.091493,0.476301,-0.023887,-0.020907,1.000413
2011-10-03T14:57:38.586448,11550,-0.063539,0.113927,0.479516,-0.023925,-0.020756,1.000435
2011-10-03T14:57:38.596448,11560,-0.081349,0.136360,0.482731,-0.023963,-0.020604,1.000457
2011-10-03T14:57:38.606448,11570,-0.099159,0.158793,0.485946,-0.024000,-0.020453,1.000478
2011-10-03T14:57:38.616448,11580,-0.116968,0.181227,0.489161,-0.024038,-0.020301,1.000500
2011-10-03T14:57:38.626448,11590,-0.134778,0.203660,0.492376,-0.024076,-0.020150,1.000522
2011-10-03T14:57:38.636448,11600,-0.152588,0.226093,0.495591,-0.024113,-0.019998,1.000544
2011-10-03T14:57:38.646448,11610,-0.167409,0.243553,0.498808,-0.024160,-0.019930,1.000597
2011-10-03T14:57:38.656448,11620,-0.158260,0.221129,0.502042,-0.024279,-0.020522,1.000901
2011-10-03T14:57:38.666448,11630,-0.149111,0.198706,0.505276,-0.024398,-0.021115,1.001206
2011-10-03T14:57:38.676448,11640,-0.139962,0.176282,0.508510,-0.024517,-0.021708,1.001510
2011-10-03T14:57:38.686448,11650,-0.130813,0.153859,0.511744,-0.024636,-0.022301,1.001815
2011-10-03T14:57:38.696448,11660,-0.121665,0.131436,0.514978,-0.024755,-0.022894,1.002119
2011-10-03T14:57:38.706448,11670,-0.112516,0.109012,0.518212,-0.024874,-0.023486,1.002423
2011-10-03T14:57:38.716448,11680,-0.103367,0.086589,0.521447,-0.024993,-0.024079,1.002728
2011-10-03T14:57:38.726448,11690,-0.094218,0.064165,0.524681,-0.025112,-0.024672,1.003032
2011-10-03T14:57:38.736448,11700,-0.085069,0.041742,0.527915,-0.025232,-0.025265,1.003336
2011-10-03T14:57:38.746448,11710,-0.075920,0.019319,0.531149,-0.025351,-0.025858,1.003641
2011-10-03T14:57:38.756448,11720,-0.066177,-0.002667,0.532613,-0.025453,-0.026376,1.003861
2011-10-03T14:57:38.766448,11730,-0.052720,-0.021919,0.523019,-0.025453,-0.026426,1.003559
2011-10-03T14:57:38.776448,11740,-0.039263,-0.041171,0.513426,-0.025452,-0.026477,1.003257
2011-10-03T14:57:38.786448,11750,-0.025806,-0.060423,0.503832,-0.025452,-0.026527,1.002954
2011-10-03T14:57:38.796448,11760,-0.012349,-0.079675,0.494238,-0.025451,-0.026577,1.002652
2011-10-03T14:57:38.806448,11770,0.001108,-0.098927,0.484644,-0.025451,-0.026628,1.002350
2011-10-03T14:57:38.816448,11780,0.014565,-0.118179,0.475051,-0.025450,-0.026678,1.002047
2011-10-03T14:57:38.826448,11790,0.028022,-0.137431,0.465457,-0.025450,-0.026729,1.001745
2011-10-03T14:57:38.836448,11800,0.041479,-0.156683,0.455863,-0.025449,-0.026779,1.001443
2011-10-03T14:57:38.846448,11810,0.054936,-0.175935,0.446269,-0.025449,-0.026830,1.001140
2011-10-03T14:57:38.856448,11820,0.065859,-0.189958,0.438450,-0.025490,-0.026802,1.000821
2011-10-03T14:57:38.866448,11830,0.060827,-0.171072,0.441798,-0.025792,-0.026279,1.000392
2011-10-03T14:57:38.876448,11840,0.055795,-0.152185,0.445146,-0.026094,-0.025756,0.999964
2011-10-03T14:57:38.886448,11850,0.050763,-0.133298,0.448494,-0.026396,-0.025233,0.999535
2011-10-03T14:57:38.896448,11860,0.045731,-0.114411,0.451842,-0.026698,-0.024710,0.999107
2011-10-03T14:57:38.906448,11870,0.040699,-0.095525,0.455190,-0.027000,-0.024187,0.998678
2011-10-03T14:57:38.916448,11880,0.035667,-0.076638,0.458538,-0.027302,-0.023664,0.998250
2011-10-03T14:57:38.926448,11890,0.030635,-0.057751,0.461886,-0.027604,-0.023141,0.997821
2011-10-03T14:57:38.936448,11900,0.025603,-0.038865,0.465234,-0.027906,-0.022618,0.997392
2011-10-03T14:57:38.946448,11910,0.020571,-0.019978,0.468581,-0.028208,-0.022095,0.996964
2011-10-03T14:57:38.956448,11920,0.013999,-0.004024,0.472843,-0.028504,-0.021656,0.996640
2011-10-03T14:57:38.966448,11930,-0.002074,-0.006164,0.482738,-0.028763,-0.021735,0.996959
2011-10-03T14:57:38.976448,11940,-0.018147,-0.008303,0.492633,-0.029022,-0.021815,0.997279
2011-10-03T14:57:38.986448,11950,-0.034220,-0.010442,0.502529,-0.029281,-0.021895,0.997598
2011-10-03T14:57:38.996448,11960,-0.050293,-0.012581,0.512424,-0.029541,-0.021974,0.997918
2011-10-03T14:57:39.006448,11970,-0.066366,-0.014721,0.522319,-0.029800,-0.022054,0.998237
2011-10-03T14:57:39.016448,11980,-0.082439,-0.016860,0.532214,-0.030059,-0.022133,0.998557
2011-10-03T14:57:39.026448,11990,-0.098512,-0.018999,0.542110,-0.030318,-0.022213,0.998877
2011-10-03T14:57:39.036448,12000,-0.114585,-0.021138,0.552005,-0.030577,-0.022292,0.999196
2011-10-03T14:57:39.046448,12010,-0.130658,-0.023278,0.561900,-0.030836,-0.022372,0.999516
2011-10-03T14:57:39.056448,12020,-0.146731,-0.025417,0.571795,-0.031095,-0.022452,0.999835
2011-10-03T14:57:39.066448,12030,-0.158341,-0.027846,0.578758,-0.031288,-0.022547,1.000124
2011-10-03T14:57:39.076448,12040,-0.143394,-0.031996,0.568275,-0.031086,-0.022738,1.000230
2011-10-03T14:57:39.086448,12050,-0.128448,-0.036146,0.557791,-0.030884,-0.022929,1.000336
2011-10-03T14:57:39.096448,12060,-0.113501,-0.040296,0.547308,-0.030682,-0.023120,1.000443
2011-10-03T14:57:39.106448,12070,-0.098555,-0.044446,0.536824,-0.030481,-0.023311,1.000549
2011-10-03T14:57:39.116448,12080,-0.083608,-0.048596,0.526341,-0.030279,-0.023502,1.000655
2011-10-03T14:57:39.126448,12090,-0.068661,-0.052747,0.515857,-0.030077,-0.023694,1.000761
2011-10-03T14:57:39.136448,12100,-0.053715,-0.056897,0.505374,-0.029875,-0.023885,1.000867
2011-10-03T14:57:39.146448,12110,-0.038768,-0.061047,0.494890,-0.029674,-0.024076,1.000973
2011-10-03T14:57:39.156448,12120,-0.023822,-0.065197,0.484407,-0.029472,-0.024267,1.001080
2011-10-03T14:57:39.166448,12130,-0.009945,-0.070094,0.473606,-0.029322,-0.024429,1.001076
2011-10-03T14:57:39.176448,12140,-0.002584,-0.079532,0.460869,-0.029489,-0.024417,1.000406
2011-10-03T14:57:39.186448,12150,0.004778,-0.088971,0.448132,-0.029655,-0.024404,0.999735
2011-10-03T14:57:39.196448,12160,0.012140,-0.098410,0.435395,-0.029822,-0.024392,0.999064
2011-10-03T14:57:39.206448,12170,0.019502,-0.107848,0.422658,-0.029988,-0.024380,0.998394
2011-10-03T14:57:39.216448,12180,0.026864,-0.117287,0.409921,-0.030155,-0.024367,0.997723
2011-10-03T14:57:39.226448,12190,0.034226,-0.126726,0.397185,-0.030321,-0.024355,0.997052
2011-10-03T14:57:39.236448,12200,0.041587,-0.136164,0.384448,-0.030488,-0.024343,0.996382
2011-10-03T14:57:39.246448,12210,0.048949,-0.145603,0.371711,-0.030654,-0.024330,0.995711
2011-10-03T14:57:39.256448,12220,0.056311,-0.155042,0.358974,-0.030821,-0.024318,0.995040
2011-10-03T14:57:39.266448,12230,0.061385,-0.159159,0.348677,-0.031006,-0.024311,0.994554
2011-10-03T14:57:39.276448,12240,0.052796,-0.131493,0.352951,-0.031303,-0.024339,0.995171
2011-10-03T14:57:39.286448,12250,0.044207,-0.103826,0.357224,-0.031599,-0.024367,0.995788
2011-10-03T14:57:39.296448,12260,0.035618,-0.076160,0.361498,-0.031896,-0.024395,0.996405
2011-10-03T14:57:39.306448,12270,0.027029,-0.048493,0.365771,-0.032193,-0.024423,0.997022
2011-10-03T14:57:39.316448,12280,0.018440,-0.020827,0.370045,-0.032490,-0.024451,0.997639
2011-10-03T14:57:39.326448,12290,0.009851,0.006840,0.374319,-0.032787,-0.024478,0.998256
2011-10-03T14:57:39.336448,12300,0.001262,0.034506,0.378592,-0.033083,-0.024506,0.998873
2011-10-03T14:57:39.346448,12310,-0.007327,0.062173,0.382866,-0.033380,-0.024534,0.999490
2011-10-03T14:57:39.356448,12320,-0.015916,0.089839,0.387140,-0.033677,-0.024562,1.000107
2011-10-03T14:57:39.366448,12330,-0.024505,0.117506,0.391413,-0.033974,-0.024590,1.000724
2011-10-03T14:57:39.376448,12340,-0.034739,0.139296,0.397408,-0.034299,-0.024663,1.001249
2011-10-03T14:57:39.386448,12350,-0.054718,0.126295,0.413592,-0.034796,-0.025002,1.001232
2011-10-03T14:57:39.396448,12360,-0.074698,0.113293,0.429775,-0.035292,-0.025342,1.001215
2011-10-03T14:57:39.406448,12370,-0.094677,0.100291,0.445959,-0.035789,-0.025681,1.001198
2011-10-03T14:57:39.416448,12380,-0.114656,0.087290,0.462143,-0.036286,-0.026021,1.001180
2011-10-03T14:57:39.426448,12390,-0.134635,0.074288,0.478327,-0.036782,-0.026360,1.001163
2011-10-03T14:57:39.436448,12400,-0.154614,0.061286,0.494510,-0.037279,-0.026700,1.001146
2011-10-03T14:57:39.446448,12410,-0.174593,0.048285,0.510694,-0.037775,-0.027039,1.001128
2011-10-03T14:57:39.456448,12420,-0.194573,0.035283,0.526878,-0.038272,-0.027379,1.001111
2011-10-03T14:57:39.466448,12430,-0.214552,0.022281,0.543062,-0.038768,-0.027718,1.001094
2011-10-03T14:57:39.476448,12440,-0.229948,0.012757,0.556111,-0.039216,-0.027892,1.001083
2011-10-03T14:57:39.486448,12450,-0.218363,0.023701,0.550705,-0.039372,-0.027090,1.001114
2011-10-03T14:57:39.496448,12460,-0.206778,0.034646,0.545300,-0.039529,-0.026288,1.001145
2011-10-03T14:57:39.506448,12470,-0.195193,0.045590,0.539895,-0.039686,-0.025486,1.001175
2011-10-03T14:57:39.516448,12480,-0.183608,0.056535,0.534489,-0.039842,-0.024684,1.001206
2011-10-03T14:57:39.526448,12490,-0.172023,0.067479,0.529084,-0.039999,-0.023882,1.001236
2011-10-03T14:57:39.536448,12500,-0.160438,0.078424,0.523678,-0.040156,-0.023080,1.001267
2011-10-03T14:57:39.546448,12510,-0.148853,0.089368,0.518273,-0.040312,-0.022278,1.001298
2011-10-03T14:57:39.556448,12520,-0.137268,0.100313,0.512868,-0.040469,-0.021476,1.001328
2011-10-03T14:57:39.566448,12530,-0.125683,0.111257,0.507462,-0.040626,-0.020674,1.001359
2011-10-03T14:57:39.576448,12540,-0.114593,0.120225,0.500367,-0.040812,-0.020032,1.001405
2011-10-03T14:57:39.586448,12550,-0.106335,0.117883,0.483603,-0.041168,-0.020308,1.001537
2011-10-03T14:57:39.596448,12560,-0.098077,0.115540,0.466839,-0.041523,-0.020583,1.001669
2011-10-03T14:57:39.606448,12570,-0.089819,0.113198,0.450075,-0.041879,-0.020859,1.001801
2011-10-03T14:57:39.616448,12580,-0.081561,0.110856,0.433311,-0.042234,-0.021134,1.001934
2011-10-03T14:57:39.626448,12590,-0.073303,0.108514,0.416547,-0.042590,-0.021409,1.002066
2011-10-03T14:57:39.636448,12600,-0.065045,0.106172,0.399783,-0.042945,-0.021685,1.002198
2011-10-03T14:57:39.646448,12610,-0.056787,0.103830,0.383020,-0.043301,-0.021960,1.002330
2011-10-03T14:57:39.656448,12620,-0.048529,0.101488,0.366256,-0.043656,-0.022236,1.002462
2011-10-03T14:57:39.666448,12630,-0.040271,0.099146,0.349492,-0.044012,-0.022511,1.002595
2011-10-03T14:57:39.676448,12640,-0.032013,0.096804,0.332728,-0.044367,-0.022786,1.002727
2011-10-03T14:57:39.686448,12650,-0.025801,0.096194,0.318457,-0.044673,-0.023128,1.002797
2011-10-03T14:57:39.696448,12660,-0.031427,0.105616,0.318616,-0.044689,-0.023856,1.002506
2011-10-03T14:57:39.706448,12670,-0.037052,0.115038,0.318775,-0.044706,-0.024583,1.002214
2011-10-03T14:57:39.716448,12680,-0.042678,0.124460,0.318934,-0.044722,-0.025311,1.001923
2011-10-03T14:57:39.726448,12690,-0.048304,0.133882,0.319093,-0.044738,-0.026039,1.001632
2011-10-03T14:57:39.736448,12700,-0.053930,0.143303,0.319252,-0.044755,-0.026766,1.001341
2011-10-03T14:57:39.746448,12710,-0.059556,0.152725,0.319412,-0.044771,-0.027494,1.001050
2011-10-03T14:57:39.756448,12720,-0.065181,0.162147,0.319571,-0.044788,-0.028221,1.000759
2011-10-03T14:57:39.766448,12730,-0.070807,0.171569,0.319730,-0.044804,-0.028949,1.000467
2011-10-03T14:57:39.776448,12740,-0.076433,0.180990,0.319889,-0.044820,-0.029677,1.000176
2011-10-03T14:57:39.786448,12750,-0.084597,0.190617,0.319310,-0.044885,-0.030212,0.999835
2011-10-03T14:57:39.796448,12760,-0.107351,0.201420,0.314489,-0.045229,-0.029643,0.999202
2011-10-03T14:57:39.806448,12770,-0.130106,0.212224,0.309669,-0.045573,-0.029073,0.998570
2011-10-03T14:57:39.816448,12780,-0.152860,0.223027,0.304848,-0.045917,-0.028504,0.997937
2011-10-03T14:57:39.826448,12790,-0.175614,0.233830,0.300027,-0.046261,-0.027935,0.997305
2011-10-03T14:57:39.836448,12800,-0.198368,0.244634,0.295207,-0.046605,-0.027366,0.996673
2011-10-03T14:57:39.846448,12810,-0.221123,0.255437,0.290386,-0.046948,-0.026796,0.996040
2011-10-03T14:57:39.856448,12820,-0.243877,0.266241,0.285566,-0.047292,-0.026227,0.995408
2011-10-03T14:57:39.866448,12830,-0.266631,0.277044,0.280745,-0.047636,-0.025658,0.994776
2011-10-03T14:57:39.876448,12840,-0.289385,0.287847,0.275924,-0.047980,-0.025089,0.994143
2011-10-03T14:57:39.886448,12850,-0.312139,0.298651,0.271104,-0.048324,-0.024519,0.993511
2011-10-03T14:57:39.896448,12860,-0.328985,0.301983,0.265983,-0.048575,-0.024152,0.993116
2011-10-03T14:57:39.906448,12870,-0.313959,0.265013,0.259247,-0.048328,-0.024877,0.994004
2011-10-03T14:57:39.916448,12880,-0.298933,0.228042,0.252510,-0.048081,-0.025601,0.994892
2011-10-03T14:57:39.926448,12890,-0.283907,0.191072,0.245773,-0.047833,-0.026326,0.995779
2011-10-03T14:57:39.936448,12900,-0.268881,0.154102,0.239036,-0.047586,-0.027050,0.996667
2011-10-03T14:57:39.946448,12910,-0.253854,0.117132,0.232299,-0.047339,-0.027775,0.997555
2011-10-03T14:57:39.956448,12920,-0.238828,0.080162,0.225562,-0.047091,-0.028499,0.998442
2011-10-03T14:57:39.966448,12930,-0.223802,0.043192,0.218825,-0.046844,-0.029224,0.999330
2011-10-03T14:57:39.976448,12940,-0.208776,0.006222,0.212088,-0.046597,-0.029948,1.000218
2011-10-03T14:57:39.986448,12950,-0.193750,-0.030748,0.205352,-0.046350,-0.030673,1.001106
2011-10-03T14:57:39.996448,12960,-0.180124,-0.064512,0.197320,-0.046091,-0.031320,1.001893
2011-10-03T14:57:40.006448,12970,-0.174399,-0.080177,0.181978,-0.045767,-0.031531,1.002114
2011-10-03T14:57:40.016448,12980,-0.168674,-0.095843,0.166636,-0.045443,-0.031742,1.002335
2011-10-03T14:57:40.026448,12990,-0.162948,-0.111508,0.151294,-0.045120,-0.031953,1.002556
2011-10-03T14:57:40.036448,13000,-0.157223,-0.127174,0.135952,-0.044796,-0.032164,1.002777
2011-10-03T14:57:40.046448,13010,-0.151498,-0.142840,0.120611,-0.044472,-0.032375,1.002998
2011-10-03T14:57:40.056448,13020,-0.145773,-0.158505,0.105269,-0.044148,-0.032586,1.003219
2011-10-03T14:57:40.066448,13030,-0.140048,-0.174171,0.089927,-0.043825,-0.032797,1.003440
2011-10-03T14:57:40.076448,13040,-0.134323,-0.189836,0.074585,-0.043501,-0.033008,1.003661
2011-10-03T14:57:40.086448,13050,-0.128598,-0.205502,0.059244,-0.043177,-0.033219,1.003882
2011-10-03T14:57:40.096448,13060,-0.121726,-0.216634,0.044458,-0.042851,-0.033380,1.003993
2011-10-03T14:57:40.106448,13070,-0.107626,-0.199188,0.033177,-0.042508,-0.033232,1.003416
2011-10-03T14:57:40.116448,13080,-0.093526,-0.181742,0.021897,-0.042165,-0.033083,1.002839
2011-10-03T14:57:40.126448,13090,-0.079427,-0.164296,0.010617,-0.041823,-0.032935,1.002262
2011-10-03T14:57:40.136448,13100,-0.065327,-0.146850,-0.000664,-0.041480,-0.032786,1.001685
2011-10-03T14:57:40.146448,13110,-0.051227,-0.129404,-0.011944,-0.041137,-0.032637,1.001108
2011-10-03T14:57:40.156448,13120,-0.037128,-0.111958,-0.023225,-0.040794,-0.032489,1.000531
2011-10-03T14:57:40.166448,13130,-0.023028,-0.094512,-0.034505,-0.040451,-0.032340,0.999954
2011-10-03T14:57:40.176448,13140,-0.008928,-0.077066,-0.045786,-0.040109,-0.032191,0.999377
2011-10-03T14:57:40.186448,13150,0.005171,-0.059620,-0.057066,-0.039766,-0.032043,0.998800
2011-10-03T14:57:40.196448,13160,0.019271,-0.042174,-0.068347,-0.039423,-0.031894,0.998223
2011-10-03T14:57:40.206448,13170,0.030283,-0.024657,-0.077154,-0.039172,-0.031783,0.997753
2011-10-03T14:57:40.216448,13180,0.024004,-0.006748,-0.072112,-0.039438,-0.031879,0.997883
2011-10-03T14:57:40.226448,13190,0.017726,0.011161,-0.067070,-0.039703,-0.031975,0.998014
2011-10-03T14:57:40.236448,13200,0.011447,0.029071,-0.062027,-0.039968,-0.032071,0.998144
2011-10-03T14:57:40.246448,13210,0.005169,0.046980,-0.056985,-0.040233,-0.032167,0.998274
2011-10-03T14:57:40.256448,13220,-0.001110,0.064889,-0.051943,-0.040498,-0.032264,0.998405
2011-10-03T14:57:40.266448,13230,-0.007388,0.082799,-0.046901,-0.040763,-0.032360,0.998535
2011-10-03T14:57:40.276448,13240,-0.013667,0.100708,-0.041859,-0.041028,-0.032456,0.998665
2011-10-03T14:57:40.286448,13250,-0.019946,0.118617,-0.036817,-0.041293,-0.032552,0.998796
2011-10-03T14:57:40.296448,13260,-0.026224,0.136526,-0.031774,-0.041558,-0.032648,0.998926
2011-10-03T14:57:40.306448,13270,-0.035925,0.148931,-0.026312,-0.041799,-0.032681,0.998905
2011-10-03T14:57:40.316448,13280,-0.063501,0.132587,-0.018655,-0.041917,-0.032383,0.998094
2011-10-03T14:57:40.326448,13290,-0.091078,0.116243,-0.010999,-0.042035,-0.032084,0.997283
2011-10-03T14:57:40.336448,13300,-0.118654,0.099899,-0.003342,-0.042152,-0.031786,0.996471
2011-10-03T14:57:40.346448,13310,-0.146230,0.083555,0.004315,-0.042270,-0.031487,0.995660
2011-10-03T14:57:40.356448,13320,-0.173807,0.067210,0.011972,-0.042388,-0.031189,0.994849
2011-10-03T14:57:40.366448,13330,-0.201383,0.050866,0.019629,-0.042505,-0.030890,0.994038
2011-10-03T14:57:40.376448,13340,-0.228959,0.034522,0.027285,-0.042623,-0.030592,0.993226
2011-10-03T14:57:40.386448,13350,-0.256536,0.018178,0.034942,-0.042741,-0.030293,0.992415
2011-10-03T14:57:40.396448,13360,-0.284112,0.001834,0.042599,-0.042858,-0.029995,0.991604
2011-10-03T14:57:40.406448,13370,-0.306814,-0.013865,0.047041,-0.042890,-0.029741,0.990973
2011-10-03T14:57:40.416448,13380,-0.303864,-0.026169,0.034564,-0.042474,-0.029719,0.991290
2011-10-03T14:57:40.426448,13390,-0.300915,-0.038472,0.022087,-0.042057,-0.029698,0.991607
2011-10-03T14:57:40.436448,13400,-0.297966,-0.050775,0.009610,-0.041640,-0.029677,0.991924
2011-10-03T14:57:40.446448,13410,-0.295017,-0.063079,-0.002867,-0.041223,-0.029655,0.992241
2011-10-03T14:57:40.456448,13420,-0.292068,-0.075382,-0.015344,-0.040806,-0.029634,0.992559
