pc_time,ts_ms,gyroX,gyroY,gyroZ,accelX,accelY,accelZ
2011-09-26T13:17:59.293761,0,-0.036174,-0.764186,12.900872,0.068974,0.084307,0.950693
2011-09-26T13:17:59.303761,10,0.157644,-0.703414,12.840051,0.068975,0.087104,0.961624
2011-09-26T13:17:59.313761,20,0.351461,-0.642641,12.779230,0.068977,0.089902,0.972555
2011-09-26T13:17:59.323761,30,0.545279,-0.581868,12.718410,0.068978,0.092699,0.983486
2011-09-26T13:17:59.333761,40,0.739097,-0.521096,12.657589,0.068979,0.095497,0.994418
2011-09-26T13:17:59.343761,50,0.932914,-0.460323,12.596768,0.068980,0.098294,1.005349
2011-09-26T13:17:59.353761,60,1.126732,-0.399550,12.535947,0.068982,0.101091,1.016280
2011-09-26T13:17:59.363761,70,1.320549,-0.338777,12.475126,0.068983,0.103889,1.027211
2011-09-26T13:17:59.373761,80,1.514367,-0.278005,12.414305,0.068984,0.106686,1.038142
2011-09-26T13:17:59.383761,90,1.708184,-0.217232,12.353484,0.068985,0.109483,1.049074
2011-09-26T13:17:59.393761,100,1.898753,-0.154796,12.292181,0.069020,0.112285,1.059777
2011-09-26T13:17:59.403761,110,1.890615,0.009346,12.201393,0.071121,0.115344,1.056546
2011-09-26T13:17:59.413761,120,1.882478,0.173488,12.110606,0.073222,0.118404,1.053315
2011-09-26T13:17:59.423761,130,1.874341,0.337631,12.019818,0.075322,0.121463,1.050084
2011-09-26T13:17:59.433761,140,1.866204,0.501773,11.929031,0.077423,0.124522,1.046853
2011-09-26T13:17:59.443761,150,1.858066,0.665915,11.838243,0.079523,0.127582,1.043621
2011-09-26T13:17:59.453761,160,1.849929,0.830057,11.747456,0.081624,0.130641,1.040390
2011-09-26T13:17:59.463761,170,1.841792,0.994200,11.656668,0.083725,0.133700,1.037159
2011-09-26T13:17:59.473761,180,1.833654,1.158342,11.565881,0.085825,0.136760,1.033928
2011-09-26T13:17:59.483761,190,1.825517,1.322484,11.475093,0.087926,0.139819,1.030697
2011-09-26T13:17:59.493761,200,1.817380,1.486626,11.384305,0.090026,0.142878,1.027466
2011-09-26T13:17:59.503761,210,1.805826,1.649952,11.293637,0.092080,0.145922,1.024181
2011-09-26T13:17:59.513761,220,1.555602,1.756233,11.211262,0.090852,0.147906,1.017156
2011-09-26T13:17:59.523761,230,1.305378,1.862514,11.128886,0.089624,0.149889,1.010131
2011-09-26T13:17:59.533761,240,1.055153,1.968795,11.046511,0.088396,0.151873,1.003106
2011-09-26T13:17:59.543761,250,0.804929,2.075076,10.964136,0.087167,0.153857,0.996081
2011-09-26T13:17:59.553761,260,0.554705,2.181357,10.881761,0.085939,0.155840,0.989057
2011-09-26T13:17:59.563761,270,0.304481,2.287638,10.799386,0.084711,0.157824,0.982032
2011-09-26T13:17:59.573761,280,0.054256,2.393919,10.717011,0.083483,0.159807,0.975007
2011-09-26T13:17:59.583761,290,-0.195968,2.500200,10.634636,0.082255,0.161791,0.967982
2011-09-26T13:17:59.593761,300,-0.446192,2.606481,10.552261,0.081027,0.163774,0.960957
2011-09-26T13:17:59.603761,310,-0.696135,2.711638,10.469932,0.079792,0.165725,0.954046
2011-09-26T13:17:59.613761,320,-0.925334,2.734093,10.391053,0.078034,0.165308,0.955496
2011-09-26T13:17:59.623761,330,-1.154534,2.756548,10.312174,0.076277,0.164891,0.956946
2011-09-26T13:17:59.633761,340,-1.383733,2.779003,10.233295,0.074520,0.164473,0.958396
2011-09-26T13:17:59.643761,350,-1.612933,2.801458,10.154415,0.072763,0.164056,0.959846
2011-09-26T13:17:59.653761,360,-1.842132,2.823913,10.075536,0.071005,0.163639,0.961296
2011-09-26T13:17:59.663761,370,-2.071332,2.846367,9.996657,0.069248,0.163221,0.962746
2011-09-26T13:17:59.673761,380,-2.300531,2.868822,9.917777,0.067491,0.162804,0.964196
2011-09-26T13:17:59.683761,390,-2.529731,2.891277,9.838898,0.065734,0.162387,0.965646
2011-09-26T13:17:59.693761,400,-2.758930,2.913732,9.760019,0.063976,0.161969,0.967096
2011-09-26T13:17:59.703761,410,-2.988130,2.936187,9.681139,0.062219,0.161552,0.968547
2011-09-26T13:17:59.713761,420,-3.215044,2.958208,9.602465,0.060447,0.161065,0.970025
2011-09-26T13:17:59.723761,430,-3.193242,2.933079,9.546122,0.057077,0.152971,0.974595
2011-09-26T13:17:59.733761,440,-3.171441,2.907950,9.489778,0.053706,0.144877,0.979165
2011-09-26T13:17:59.743761,450,-3.149640,2.882821,9.433434,0.050335,0.136783,0.983735
2011-09-26T13:17:59.753761,460,-3.127839,2.857692,9.377091,0.046965,0.128689,0.988305
2011-09-26T13:17:59.763761,470,-3.106038,2.832562,9.320747,0.043594,0.120595,0.992875
2011-09-26T13:17:59.773761,480,-3.084236,2.807433,9.264404,0.040223,0.112501,0.997445
2011-09-26T13:17:59.783761,490,-3.062435,2.782304,9.208060,0.036853,0.104407,1.002014
2011-09-26T13:17:59.793761,500,-3.040634,2.757175,9.151716,0.033482,0.096313,1.006584
2011-09-26T13:17:59.803761,510,-3.018833,2.732046,9.095373,0.030111,0.088219,1.011154
2011-09-26T13:17:59.813761,520,-2.995229,2.706314,9.039443,0.026762,0.080177,1.015643
2011-09-26T13:17:59.823761,530,-2.821817,2.630537,9.017907,0.025179,0.076393,1.013388
2011-09-26T13:17:59.833761,540,-2.648404,2.554760,8.996371,0.023597,0.072609,1.011133
2011-09-26T13:17:59.843761,550,-2.474992,2.478983,8.974835,0.022014,0.068825,1.008878
2011-09-26T13:17:59.853761,560,-2.301580,2.403206,8.953299,0.020431,0.065041,1.006623
2011-09-26T13:17:59.863761,570,-2.128168,2.327430,8.931763,0.018849,0.061257,1.004368
2011-09-26T13:17:59.873761,580,-1.954756,2.251653,8.910227,0.017266,0.057474,1.002112
2011-09-26T13:17:59.883761,590,-1.781343,2.175876,8.888691,0.015683,0.053690,0.999857
2011-09-26T13:17:59.893761,600,-1.607931,2.100099,8.867155,0.014101,0.049906,0.997602
2011-09-26T13:17:59.903761,610,-1.434519,2.024322,8.845619,0.012518,0.046122,0.995347
2011-09-26T13:17:59.913761,620,-1.260501,1.947526,8.823212,0.010945,0.042462,0.993127
2011-09-26T13:17:59.923761,630,-1.043895,1.799032,8.739492,0.010029,0.047496,0.993362
2011-09-26T13:17:59.933761,640,-0.827288,1.650538,8.655772,0.009112,0.052531,0.993596
2011-09-26T13:17:59.943761,650,-0.610681,1.502044,8.572053,0.008196,0.057566,0.993831
2011-09-26T13:17:59.953761,660,-0.394074,1.353550,8.488333,0.007279,0.062600,0.994066
2011-09-26T13:17:59.963761,670,-0.177467,1.205055,8.404613,0.006363,0.067635,0.994300
2011-09-26T13:17:59.973761,680,0.039140,1.056561,8.320893,0.005446,0.072669,0.994535
2011-09-26T13:17:59.983761,690,0.255747,0.908067,8.237174,0.004530,0.077704,0.994770
2011-09-26T13:17:59.993761,700,0.472354,0.759573,8.153454,0.003613,0.082739,0.995004
2011-09-26T13:18:00.003761,710,0.688961,0.611079,8.069734,0.002697,0.087773,0.995239
2011-09-26T13:18:00.013761,720,0.905568,0.462585,7.986015,0.001780,0.092808,0.995474
2011-09-26T13:18:00.023761,730,1.116687,0.314986,7.901424,0.000850,0.097865,0.995633
2011-09-26T13:18:00.033761,740,0.883770,0.239776,7.746333,-0.001251,0.104721,0.989655
2011-09-26T13:18:00.043761,750,0.650852,0.164567,7.591241,-0.003352,0.111577,0.983677
2011-09-26T13:18:00.053761,760,0.417935,0.089358,7.436150,-0.005452,0.118433,0.977699
2011-09-26T13:18:00.063761,770,0.185017,0.014148,7.281059,-0.007553,0.125289,0.971721
2011-09-26T13:18:00.073761,780,-0.047901,-0.061061,7.125968,-0.009653,0.132145,0.965743
2011-09-26T13:18:00.083761,790,-0.280818,-0.136271,6.970877,-0.011754,0.139001,0.959765
2011-09-26T13:18:00.093761,800,-0.513736,-0.211480,6.815786,-0.013854,0.145857,0.953787
2011-09-26T13:18:00.103761,810,-0.746653,-0.286689,6.660695,-0.015955,0.152713,0.947809
2011-09-26T13:18:00.113761,820,-0.979571,-0.361899,6.505604,-0.018055,0.159570,0.941831
2011-09-26T13:18:00.123761,830,-1.211753,-0.439031,6.351004,-0.020128,0.166217,0.935913
2011-09-26T13:18:00.133761,840,-1.388045,-0.662254,6.233723,-0.020077,0.156994,0.934604
2011-09-26T13:18:00.143761,850,-1.564338,-0.885477,6.116442,-0.020025,0.147770,0.933294
2011-09-26T13:18:00.153761,860,-1.740630,-1.108700,5.999160,-0.019974,0.138547,0.931985
2011-09-26T13:18:00.163761,870,-1.916922,-1.331923,5.881879,-0.019922,0.129324,0.930675
2011-09-26T13:18:00.173761,880,-2.093215,-1.555146,5.764598,-0.019871,0.120101,0.929366
2011-09-26T13:18:00.183761,890,-2.269507,-1.778369,5.647317,-0.019820,0.110878,0.928057
2011-09-26T13:18:00.193761,900,-2.445800,-2.001593,5.530035,-0.019768,0.101655,0.926747
2011-09-26T13:18:00.203761,910,-2.622092,-2.224816,5.412754,-0.019717,0.092431,0.925438
2011-09-26T13:18:00.213761,920,-2.798385,-2.448039,5.295473,-0.019666,0.083208,0.924128
2011-09-26T13:18:00.223761,930,-2.974677,-2.671262,5.178192,-0.019614,0.073985,0.922819
2011-09-26T13:18:00.233761,940,-3.150970,-2.894485,5.060910,-0.019563,0.064762,0.921509
2011-09-26T13:18:00.243761,950,-3.297498,-3.059474,5.052976,-0.018411,0.060931,0.932565
2011-09-26T13:18:00.253761,960,-3.444001,-3.224415,5.045130,-0.017259,0.057105,0.943630
2011-09-26T13:18:00.263761,970,-3.590505,-3.389357,5.037283,-0.016107,0.053278,0.954695
2011-09-26T13:18:00.273761,980,-3.737009,-3.554299,5.029437,-0.014954,0.049452,0.965760
2011-09-26T13:18:00.283761,990,-3.883513,-3.719240,5.021590,-0.013802,0.045625,0.976825
2011-09-26T13:18:00.293761,1000,-4.030017,-3.884182,5.013744,-0.012649,0.041799,0.987891
2011-09-26T13:18:00.303761,1010,-4.176520,-4.049124,5.005898,-0.011497,0.037972,0.998956
2011-09-26T13:18:00.313761,1020,-4.323024,-4.214065,4.998051,-0.010344,0.034146,1.010021
2011-09-26T13:18:00.323761,1030,-4.469528,-4.379007,4.990205,-0.009192,0.030320,1.021086
2011-09-26T13:18:00.333761,1040,-4.611964,-4.538874,4.981398,-0.008038,0.026585,1.032061
2011-09-26T13:18:00.343761,1050,-4.485295,-4.363050,4.909083,-0.006773,0.028900,1.037067
2011-09-26T13:18:00.353761,1060,-4.358626,-4.187227,4.836768,-0.005508,0.031215,1.042072
2011-09-26T13:18:00.363761,1070,-4.231957,-4.011403,4.764452,-0.004244,0.033530,1.047078
2011-09-26T13:18:00.373761,1080,-4.105288,-3.835580,4.692137,-0.002979,0.035846,1.052083
2011-09-26T13:18:00.383761,1090,-3.978620,-3.659756,4.619822,-0.001714,0.038161,1.057089
2011-09-26T13:18:00.393761,1100,-3.851951,-3.483932,4.547506,-0.000450,0.040476,1.062094
2011-09-26T13:18:00.403761,1110,-3.725282,-3.308109,4.475191,0.000815,0.042792,1.067100
2011-09-26T13:18:00.413761,1120,-3.598613,-3.132285,4.402876,0.002080,0.045107,1.072105
2011-09-26T13:18:00.423761,1130,-3.471945,-2.956462,4.330560,0.003344,0.047422,1.077110
2011-09-26T13:18:00.433761,1140,-3.346402,-2.778872,4.257994,0.004616,0.049691,1.082026
2011-09-26T13:18:00.443761,1150,-3.322940,-2.441255,4.162677,0.006485,0.047737,1.078749
2011-09-26T13:18:00.453761,1160,-3.299477,-2.103637,4.067360,0.008355,0.045782,1.075472
2011-09-26T13:18:00.463761,1170,-3.276015,-1.766019,3.972043,0.010225,0.043828,1.072196
2011-09-26T13:18:00.473761,1180,-3.252552,-1.428401,3.876726,0.012094,0.041874,1.068919
2011-09-26T13:18:00.483761,1190,-3.229090,-1.090783,3.781409,0.013964,0.039920,1.065643
2011-09-26T13:18:00.493761,1200,-3.205627,-0.753166,3.686092,0.015833,0.037966,1.062366
2011-09-26T13:18:00.503761,1210,-3.182165,-0.415548,3.590775,0.017703,0.036012,1.059090
2011-09-26T13:18:00.513761,1220,-3.158702,-0.077930,3.495458,0.019572,0.034057,1.055813
2011-09-26T13:18:00.523761,1230,-3.135240,0.259688,3.400141,0.021442,0.032103,1.052537
2011-09-26T13:18:00.533761,1240,-3.109096,0.595677,3.304611,0.023235,0.030105,1.049212
2011-09-26T13:18:00.543761,1250,-2.924123,0.835189,3.196430,0.020464,0.025490,1.043023
2011-09-26T13:18:00.553761,1260,-2.739149,1.074701,3.088249,0.017694,0.020875,1.036834
2011-09-26T13:18:00.563761,1270,-2.554176,1.314213,2.980068,0.014923,0.016259,1.030645
2011-09-26T13:18:00.573761,1280,-2.369202,1.553726,2.871887,0.012153,0.011644,1.024456
2011-09-26T13:18:00.583761,1290,-2.184229,1.793238,2.763706,0.009383,0.007029,1.018267
2011-09-26T13:18:00.593761,1300,-1.999256,2.032750,2.655525,0.006612,0.002414,1.012078
2011-09-26T13:18:00.603761,1310,-1.814282,2.272262,2.547344,0.003842,-0.002201,1.005889
2011-09-26T13:18:00.613761,1320,-1.629309,2.511774,2.439164,0.001072,-0.006816,0.999700
2011-09-26T13:18:00.623761,1330,-1.444336,2.751287,2.330983,-0.001699,-0.011432,0.993511
2011-09-26T13:18:00.633761,1340,-1.259362,2.990799,2.222802,-0.004469,-0.016047,0.987322
2011-09-26T13:18:00.643761,1350,-1.074942,3.229437,2.114702,-0.007231,-0.020621,0.981244
2011-09-26T13:18:00.653761,1360,-0.959255,3.359502,2.016625,-0.008935,-0.020160,0.989019
2011-09-26T13:18:00.663761,1370,-0.843569,3.489567,1.918548,-0.010639,-0.019698,0.996794
2011-09-26T13:18:00.673761,1380,-0.727882,3.619632,1.820470,-0.012343,-0.019237,1.004569
2011-09-26T13:18:00.683761,1390,-0.612196,3.749696,1.722393,-0.014048,-0.018775,1.012344
2011-09-26T13:18:00.693761,1400,-0.496509,3.879761,1.624316,-0.015752,-0.018314,1.020119
2011-09-26T13:18:00.703761,1410,-0.380822,4.009826,1.526239,-0.017456,-0.017852,1.027894
2011-09-26T13:18:00.713761,1420,-0.265136,4.139891,1.428162,-0.019160,-0.017391,1.035669
2011-09-26T13:18:00.723761,1430,-0.149449,4.269956,1.330085,-0.020864,-0.016929,1.043444
2011-09-26T13:18:00.733761,1440,-0.033762,4.400020,1.232008,-0.022568,-0.016468,1.051219
2011-09-26T13:18:00.743761,1450,0.079806,4.530349,1.134200,-0.024249,-0.015956,1.058908
2011-09-26T13:18:00.753761,1460,-0.053844,4.691495,1.067710,-0.023211,-0.009662,1.056536
2011-09-26T13:18:00.763761,1470,-0.187494,4.852641,1.001221,-0.022173,-0.003367,1.054164
2011-09-26T13:18:00.773761,1480,-0.321144,5.013786,0.934732,-0.021135,0.002927,1.051792
2011-09-26T13:18:00.783761,1490,-0.454794,5.174932,0.868242,-0.020097,0.009222,1.049420
2011-09-26T13:18:00.793761,1500,-0.588444,5.336078,0.801753,-0.019059,0.015516,1.047048
2011-09-26T13:18:00.803761,1510,-0.722093,5.497224,0.735264,-0.018021,0.021811,1.044676
2011-09-26T13:18:00.813761,1520,-0.855743,5.658369,0.668775,-0.016983,0.028106,1.042304
2011-09-26T13:18:00.823761,1530,-0.989393,5.819515,0.602285,-0.015945,0.034400,1.039932
2011-09-26T13:18:00.833761,1540,-1.123043,5.980661,0.535796,-0.014907,0.040695,1.037560
2011-09-26T13:18:00.843761,1550,-1.256693,6.141806,0.469307,-0.013869,0.046989,1.035188
2011-09-26T13:18:00.853761,1560,-1.390989,6.302088,0.403369,-0.012873,0.053198,1.032747
2011-09-26T13:18:00.863761,1570,-1.593328,6.371357,0.395576,-0.016210,0.050347,1.023021
2011-09-26T13:18:00.873761,1580,-1.795668,6.440625,0.387783,-0.019548,0.047496,1.013295
2011-09-26T13:18:00.883761,1590,-1.998008,6.509894,0.379991,-0.022886,0.044644,1.003569
2011-09-26T13:18:00.893761,1600,-2.200348,6.579162,0.372198,-0.026224,0.041793,0.993843
2011-09-26T13:18:00.903761,1610,-2.402688,6.648431,0.364405,-0.029561,0.038942,0.984117
2011-09-26T13:18:00.913761,1620,-2.605027,6.717699,0.356612,-0.032899,0.036091,0.974391
2011-09-26T13:18:00.923761,1630,-2.807367,6.786968,0.348819,-0.036237,0.033239,0.964665
2011-09-26T13:18:00.933761,1640,-3.009707,6.856236,0.341026,-0.039575,0.030388,0.954939
2011-09-26T13:18:00.943761,1650,-3.212047,6.925505,0.333233,-0.042912,0.027537,0.945213
2011-09-26T13:18:00.953761,1660,-3.411142,6.992473,0.325527,-0.046223,0.024652,0.935557
2011-09-26T13:18:00.963761,1670,-3.341113,6.868695,0.325003,-0.047303,0.019011,0.931705
2011-09-26T13:18:00.973761,1680,-3.271084,6.744916,0.324479,-0.048384,0.013371,0.927852
2011-09-26T13:18:00.983761,1690,-3.201055,6.621138,0.323955,-0.049464,0.007730,0.923999
2011-09-26T13:18:00.993761,1700,-3.131026,6.497359,0.323431,-0.050544,0.002089,0.920146
2011-09-26T13:18:01.003761,1710,-3.060997,6.373581,0.322907,-0.051624,-0.003552,0.916293
2011-09-26T13:18:01.013761,1720,-2.990969,6.249802,0.322383,-0.052704,-0.009193,0.912441
2011-09-26T13:18:01.023761,1730,-2.920940,6.126023,0.321859,-0.053784,-0.014834,0.908588
2011-09-26T13:18:01.033761,1740,-2.850911,6.002245,0.321335,-0.054865,-0.020475,0.904735
2011-09-26T13:18:01.043761,1750,-2.780882,5.878466,0.320811,-0.055945,-0.026115,0.900882
2011-09-26T13:18:01.053761,1760,-2.707192,5.752714,0.320380,-0.057093,-0.031749,0.897134
2011-09-26T13:18:01.063761,1770,-2.278429,5.435521,0.328935,-0.064833,-0.036714,0.903466
2011-09-26T13:18:01.073761,1780,-1.849665,5.118328,0.337490,-0.072572,-0.041679,0.909798
2011-09-26T13:18:01.083761,1790,-1.420902,4.801135,0.346045,-0.080312,-0.046644,0.916130
2011-09-26T13:18:01.093761,1800,-0.992138,4.483941,0.354600,-0.088051,-0.051608,0.922463
2011-09-26T13:18:01.103761,1810,-0.563375,4.166748,0.363155,-0.095791,-0.056573,0.928795
2011-09-26T13:18:01.113761,1820,-0.134611,3.849555,0.371710,-0.103531,-0.061538,0.935127
2011-09-26T13:18:01.123761,1830,0.294152,3.532362,0.380265,-0.111270,-0.066503,0.941460
2011-09-26T13:18:01.133761,1840,0.722916,3.215169,0.388821,-0.119010,-0.071467,0.947792
2011-09-26T13:18:01.143761,1850,1.151679,2.897976,0.397376,-0.126750,-0.076432,0.954124
2011-09-26T13:18:01.153761,1860,1.580443,2.580783,0.405931,-0.134489,-0.081397,0.960456
2011-09-26T13:18:01.163761,1870,2.007464,2.262361,0.414846,-0.142177,-0.086318,0.966767
2011-09-26T13:18:01.173761,1880,2.176745,1.762162,0.476978,-0.142252,-0.084778,0.969816
2011-09-26T13:18:01.183761,1890,2.346026,1.261963,0.539110,-0.142326,-0.083237,0.972864
2011-09-26T13:18:01.193761,1900,2.515306,0.761764,0.601242,-0.142401,-0.081697,0.975913
2011-09-26T13:18:01.203761,1910,2.684587,0.261565,0.663374,-0.142475,-0.080156,0.978962
2011-09-26T13:18:01.213761,1920,2.853868,-0.238635,0.725506,-0.142550,-0.078616,0.982011
2011-09-26T13:18:01.223761,1930,3.023149,-0.738834,0.787639,-0.142624,-0.077075,0.985060
2011-09-26T13:18:01.233761,1940,3.192429,-1.239033,0.849771,-0.142699,-0.075535,0.988109
2011-09-26T13:18:01.243761,1950,3.361710,-1.739232,0.911903,-0.142773,-0.073994,0.991158
2011-09-26T13:18:01.253761,1960,3.530991,-2.239431,0.974035,-0.142848,-0.072454,0.994207
2011-09-26T13:18:01.263761,1970,3.700271,-2.739630,1.036167,-0.142922,-0.070913,0.997256
2011-09-26T13:18:01.273761,1980,3.403850,-3.350190,1.020216,-0.137894,-0.055485,0.991323
2011-09-26T13:18:01.283761,1990,3.098553,-3.962854,1.002777,-0.132768,-0.039791,0.985218
2011-09-26T13:18:01.293761,2000,2.793256,-4.575517,0.985337,-0.127642,-0.024098,0.979114
2011-09-26T13:18:01.303761,2010,2.487959,-5.188180,0.967898,-0.122517,-0.008404,0.973010
2011-09-26T13:18:01.313761,2020,2.182662,-5.800843,0.950459,-0.117391,0.007289,0.966905
2011-09-26T13:18:01.323761,2030,1.877366,-6.413507,0.933020,-0.112265,0.022982,0.960801
2011-09-26T13:18:01.333761,2040,1.572069,-7.026170,0.915580,-0.107140,0.038676,0.954697
2011-09-26T13:18:01.343761,2050,1.266772,-7.638833,0.898141,-0.102014,0.054369,0.948593
2011-09-26T13:18:01.353761,2060,0.961475,-8.251496,0.880702,-0.096888,0.070063,0.942488
2011-09-26T13:18:01.363761,2070,0.656138,-8.862501,0.862933,-0.091765,0.085623,0.936422
2011-09-26T13:18:01.373761,2080,0.344233,-9.203376,0.791603,-0.087030,0.079522,0.936546
2011-09-26T13:18:01.383761,2090,0.032329,-9.544252,0.720273,-0.082294,0.073420,0.936669
2011-09-26T13:18:01.393761,2100,-0.279576,-9.885127,0.648943,-0.077559,0.067319,0.936793
2011-09-26T13:18:01.403761,2110,-0.591480,-10.226003,0.577612,-0.072823,0.061218,0.936916
2011-09-26T13:18:01.413761,2120,-0.903385,-10.566878,0.506282,-0.068088,0.055117,0.937040
2011-09-26T13:18:01.423761,2130,-1.215289,-10.907754,0.434952,-0.063352,0.049015,0.937164
2011-09-26T13:18:01.433761,2140,-1.527194,-11.248630,0.363621,-0.058616,0.042914,0.937287
2011-09-26T13:18:01.443761,2150,-1.839098,-11.589505,0.292291,-0.053881,0.036813,0.937411
2011-09-26T13:18:01.453761,2160,-2.151003,-11.930381,0.220961,-0.049145,0.030712,0.937534
2011-09-26T13:18:01.463761,2170,-2.462907,-12.271256,0.149630,-0.044410,0.024610,0.937658
2011-09-26T13:18:01.473761,2180,-2.772790,-12.606112,0.079920,-0.039678,0.018485,0.937803
2011-09-26T13:18:01.483761,2190,-2.893883,-12.378849,0.161435,-0.035300,0.010097,0.939921
2011-09-26T13:18:01.493761,2200,-3.014976,-12.151587,0.242951,-0.030923,0.001710,0.942039
2011-09-26T13:18:01.503761,2210,-3.136069,-11.924324,0.324467,-0.026545,-0.006678,0.944157
2011-09-26T13:18:01.513761,2220,-3.257162,-11.697061,0.405983,-0.022167,-0.015065,0.946274
2011-09-26T13:18:01.523761,2230,-3.378255,-11.469799,0.487498,-0.017789,-0.023453,0.948392
2011-09-26T13:18:01.533761,2240,-3.499348,-11.242536,0.569014,-0.013411,-0.031840,0.950510
2011-09-26T13:18:01.543761,2250,-3.620441,-11.015273,0.650530,-0.009033,-0.040228,0.952628
2011-09-26T13:18:01.553761,2260,-3.741534,-10.788011,0.732045,-0.004656,-0.048615,0.954746
2011-09-26T13:18:01.563761,2270,-3.862627,-10.560748,0.813561,-0.000278,-0.057003,0.956864
2011-09-26T13:18:01.573761,2280,-3.981319,-10.333668,0.894903,0.004083,-0.065384,0.959015
2011-09-26T13:18:01.583761,2290,-3.419258,-10.158440,0.926830,0.003476,-0.071984,0.970496
2011-09-26T13:18:01.593761,2300,-2.857197,-9.983213,0.958758,0.002869,-0.078584,0.981977
2011-09-26T13:18:01.603761,2310,-2.295137,-9.807985,0.990685,0.002262,-0.085184,0.993458
2011-09-26T13:18:01.613761,2320,-1.733076,-9.632758,1.022613,0.001655,-0.091784,1.004939
2011-09-26T13:18:01.623761,2330,-1.171016,-9.457530,1.054540,0.001048,-0.098384,1.016420
2011-09-26T13:18:01.633761,2340,-0.608955,-9.282302,1.086468,0.000441,-0.104984,1.027901
2011-09-26T13:18:01.643761,2350,-0.046895,-9.107075,1.118396,-0.000166,-0.111584,1.039382
2011-09-26T13:18:01.653761,2360,0.515166,-8.931847,1.150323,-0.000773,-0.118184,1.050863
2011-09-26T13:18:01.663761,2370,1.077226,-8.756620,1.182251,-0.001379,-0.124784,1.062344
2011-09-26T13:18:01.673761,2380,1.638815,-8.580294,1.214006,-0.001979,-0.131347,1.073850
2011-09-26T13:18:01.683761,2390,1.975934,-7.882356,1.163657,0.000804,-0.120097,1.097428
2011-09-26T13:18:01.693761,2400,2.313053,-7.184418,1.113308,0.003587,-0.108847,1.121005
2011-09-26T13:18:01.703761,2410,2.650173,-6.486479,1.062958,0.006370,-0.097597,1.144583
2011-09-26T13:18:01.713761,2420,2.987292,-5.788541,1.012609,0.009153,-0.086347,1.168160
2011-09-26T13:18:01.723761,2430,3.324411,-5.090602,0.962260,0.011936,-0.075097,1.191738
2011-09-26T13:18:01.733761,2440,3.661531,-4.392664,0.911911,0.014720,-0.063847,1.215315
2011-09-26T13:18:01.743761,2450,3.998650,-3.694725,0.861562,0.017503,-0.052597,1.238892
2011-09-26T13:18:01.753761,2460,4.335770,-2.996787,0.811213,0.020286,-0.041347,1.262470
2011-09-26T13:18:01.763761,2470,4.672889,-2.298848,0.760864,0.023069,-0.030097,1.286047
2011-09-26T13:18:01.773761,2480,5.010008,-1.600910,0.710515,0.025852,-0.018847,1.309625
2011-09-26T13:18:01.783761,2490,5.347128,-0.902972,0.660166,0.028635,-0.007597,1.333202
2011-09-26T13:18:01.793761,2500,5.061930,-0.250568,0.590127,0.027452,-0.001655,1.319941
2011-09-26T13:18:01.803761,2510,4.776610,0.401827,0.520083,0.026268,0.004286,1.306673
2011-09-26T13:18:01.813761,2520,4.491291,1.054221,0.450039,0.025084,0.010227,1.293404
2011-09-26T13:18:01.823761,2530,4.205971,1.706616,0.379996,0.023900,0.016168,1.280136
2011-09-26T13:18:01.833761,2540,3.920652,2.359011,0.309952,0.022716,0.022109,1.266867
2011-09-26T13:18:01.843761,2550,3.635332,3.011405,0.239909,0.021532,0.028050,1.253599
2011-09-26T13:18:01.853761,2560,3.350013,3.663800,0.169865,0.020348,0.033991,1.240330
2011-09-26T13:18:01.863761,2570,3.064693,4.316195,0.099822,0.019163,0.039932,1.227062
2011-09-26T13:18:01.873761,2580,2.779374,4.968589,0.029778,0.017979,0.045873,1.213793
2011-09-26T13:18:01.883761,2590,2.493686,5.615658,-0.039317,0.016788,0.051750,1.200422
2011-09-26T13:18:01.893761,2600,2.171237,5.730735,-0.013624,0.014896,0.051166,1.176767
2011-09-26T13:18:01.903761,2610,1.848788,5.845811,0.012069,0.013003,0.050583,1.153112
2011-09-26T13:18:01.913761,2620,1.526340,5.960888,0.037762,0.011111,0.049999,1.129458
2011-09-26T13:18:01.923761,2630,1.203891,6.075965,0.063455,0.009218,0.049416,1.105803
2011-09-26T13:18:01.933761,2640,0.881442,6.191041,0.089148,0.007325,0.048832,1.082148
2011-09-26T13:18:01.943761,2650,0.558993,6.306118,0.114841,0.005433,0.048249,1.058494
2011-09-26T13:18:01.953761,2660,0.236544,6.421195,0.140534,0.003540,0.047665,1.034839
2011-09-26T13:18:01.963761,2670,-0.085905,6.536271,0.166227,0.001648,0.047082,1.011184
2011-09-26T13:18:01.973761,2680,-0.408353,6.651348,0.191920,-0.000245,0.046498,0.987530
2011-09-26T13:18:01.983761,2690,-0.730802,6.766425,0.217613,-0.002137,0.045915,0.963875
2011-09-26T13:18:01.993761,2700,-1.053251,6.881501,0.243306,-0.004030,0.045331,0.940220
2011-09-26T13:18:02.003761,2710,-1.197767,6.509359,0.259463,-0.000798,0.044039,0.931183
2011-09-26T13:18:02.013761,2720,-1.341405,6.134815,0.275573,0.002458,0.042743,0.922217
2011-09-26T13:18:02.023761,2730,-1.485043,5.760270,0.291683,0.005715,0.041447,0.913252
2011-09-26T13:18:02.033761,2740,-1.628682,5.385726,0.307792,0.008972,0.040151,0.904287
2011-09-26T13:18:02.043761,2750,-1.772320,5.011181,0.323902,0.012229,0.038855,0.895321
2011-09-26T13:18:02.053761,2760,-1.915958,4.636636,0.340012,0.015486,0.037559,0.886356
2011-09-26T13:18:02.063761,2770,-2.059596,4.262092,0.356121,0.018743,0.036263,0.877391
2011-09-26T13:18:02.073761,2780,-2.203235,3.887547,0.372231,0.022000,0.034967,0.868426
2011-09-26T13:18:02.083761,2790,-2.346873,3.513003,0.388341,0.025257,0.033671,0.859460
2011-09-26T13:18:02.093761,2800,-2.489749,3.139086,0.404398,0.028494,0.032337,0.850553
2011-09-26T13:18:02.103761,2810,-2.426594,2.934834,0.406188,0.026383,0.020976,0.857299
2011-09-26T13:18:02.113761,2820,-2.363440,2.730582,0.407977,0.024272,0.009614,0.864045
2011-09-26T13:18:02.123761,2830,-2.300285,2.526330,0.409767,0.022161,-0.001747,0.870791
2011-09-26T13:18:02.133761,2840,-2.237131,2.322078,0.411557,0.020050,-0.013109,0.877537
2011-09-26T13:18:02.143761,2850,-2.173977,2.117826,0.413346,0.017939,-0.024471,0.884283
2011-09-26T13:18:02.153761,2860,-2.110822,1.913574,0.415136,0.015828,-0.035832,0.891029
2011-09-26T13:18:02.163761,2870,-2.047668,1.709322,0.416926,0.013717,-0.047194,0.897776
2011-09-26T13:18:02.173761,2880,-1.984513,1.505070,0.418715,0.011606,-0.058555,0.904522
2011-09-26T13:18:02.183761,2890,-1.921359,1.300818,0.420505,0.009495,-0.069917,0.911268
2011-09-26T13:18:02.193761,2900,-1.858204,1.096566,0.422295,0.007384,-0.081278,0.918014
2011-09-26T13:18:02.203761,2910,-1.594964,0.802485,0.459268,0.008208,-0.078340,0.922357
2011-09-26T13:18:02.213761,2920,-1.330737,0.507961,0.496415,0.009048,-0.075332,0.926688
2011-09-26T13:18:02.223761,2930,-1.066511,0.213437,0.533562,0.009887,-0.072323,0.931019
2011-09-26T13:18:02.233761,2940,-0.802284,-0.081087,0.570709,0.010726,-0.069315,0.935351
2011-09-26T13:18:02.243761,2950,-0.538057,-0.375611,0.607856,0.011565,-0.066306,0.939682
2011-09-26T13:18:02.253761,2960,-0.273830,-0.670135,0.645003,0.012404,-0.063298,0.944013
2011-09-26T13:18:02.263761,2970,-0.009604,-0.964659,0.682150,0.013244,-0.060289,0.948344
2011-09-26T13:18:02.273761,2980,0.254623,-1.259184,0.719297,0.014083,-0.057281,0.952675
2011-09-26T13:18:02.283761,2990,0.518850,-1.553708,0.756444,0.014922,-0.054272,0.957007
2011-09-26T13:18:02.293761,3000,0.783076,-1.848232,0.793590,0.015761,-0.051264,0.961338
2011-09-26T13:18:02.303761,3010,1.047168,-2.142588,0.830672,0.016603,-0.048254,0.965670
2011-09-26T13:18:02.313761,3020,1.188335,-2.284518,0.807882,0.019922,-0.044158,0.970740
2011-09-26T13:18:02.323761,3030,1.329502,-2.426449,0.785092,0.023241,-0.040062,0.975811
2011-09-26T13:18:02.333761,3040,1.470669,-2.568379,0.762302,0.026559,-0.035966,0.980881
2011-09-26T13:18:02.343761,3050,1.611835,-2.710309,0.739512,0.029878,-0.031869,0.985952
2011-09-26T13:18:02.353761,3060,1.753002,-2.852239,0.716722,0.033197,-0.027773,0.991022
2011-09-26T13:18:02.363761,3070,1.894169,-2.994169,0.693932,0.036516,-0.023677,0.996093
2011-09-26T13:18:02.373761,3080,2.035336,-3.136099,0.671142,0.039834,-0.019581,1.001163
2011-09-26T13:18:02.383761,3090,2.176503,-3.278029,0.648352,0.043153,-0.015485,1.006234
2011-09-26T13:18:02.393761,3100,2.317670,-3.419959,0.625562,0.046472,-0.011389,1.011304
2011-09-26T13:18:02.403761,3110,2.456752,-3.559949,0.602998,0.049779,-0.007297,1.016319
2011-09-26T13:18:02.413761,3120,2.368435,-3.488193,0.605188,0.051754,-0.003687,1.015290
2011-09-26T13:18:02.423761,3130,2.280118,-3.416438,0.607377,0.053729,-0.000078,1.014262
2011-09-26T13:18:02.433761,3140,2.191801,-3.344683,0.609567,0.055705,0.003531,1.013233
2011-09-26T13:18:02.443761,3150,2.103484,-3.272927,0.611756,0.057680,0.007141,1.012204
2011-09-26T13:18:02.453761,3160,2.015167,-3.201172,0.613946,0.059655,0.010750,1.011175
2011-09-26T13:18:02.463761,3170,1.926850,-3.129417,0.616135,0.061631,0.014360,1.010147
2011-09-26T13:18:02.473761,3180,1.838533,-3.057661,0.618325,0.063606,0.017969,1.009118
2011-09-26T13:18:02.483761,3190,1.750216,-2.985906,0.620514,0.065581,0.021579,1.008089
2011-09-26T13:18:02.493761,3200,1.661899,-2.914150,0.622704,0.067557,0.025188,1.007061
2011-09-26T13:18:02.503761,3210,1.573399,-2.841993,0.624786,0.069526,0.028764,1.006021
2011-09-26T13:18:02.513761,3220,1.457390,-2.709310,0.610732,0.070630,0.027207,1.003402
2011-09-26T13:18:02.523761,3230,1.341381,-2.576627,0.596679,0.071733,0.025650,1.000782
2011-09-26T13:18:02.533761,3240,1.225371,-2.443944,0.582625,0.072837,0.024093,0.998162
2011-09-26T13:18:02.543761,3250,1.109362,-2.311261,0.568572,0.073940,0.022536,0.995543
2011-09-26T13:18:02.553761,3260,0.993353,-2.178577,0.554518,0.075043,0.020979,0.992923
2011-09-26T13:18:02.563761,3270,0.877343,-2.045894,0.540464,0.076147,0.019422,0.990303
2011-09-26T13:18:02.573761,3280,0.761334,-1.913211,0.526411,0.077250,0.017865,0.987684
2011-09-26T13:18:02.583761,3290,0.645325,-1.780528,0.512357,0.078354,0.016309,0.985064
2011-09-26T13:18:02.593761,3300,0.529315,-1.647845,0.498304,0.079457,0.014752,0.982444
2011-09-26T13:18:02.603761,3310,0.413306,-1.515161,0.484250,0.080560,0.013195,0.979825
2011-09-26T13:18:02.613761,3320,0.297565,-1.383879,0.470597,0.081636,0.011614,0.977241
2011-09-26T13:18:02.623761,3330,0.210700,-1.403405,0.500072,0.079704,0.007486,0.978569
2011-09-26T13:18:02.633761,3340,0.123836,-1.422931,0.529547,0.077771,0.003359,0.979897
2011-09-26T13:18:02.643761,3350,0.036971,-1.442456,0.559022,0.075839,-0.000769,0.981225
2011-09-26T13:18:02.653761,3360,-0.049893,-1.461982,0.588496,0.073907,-0.004897,0.982553
2011-09-26T13:18:02.663761,3370,-0.136758,-1.481508,0.617971,0.071975,-0.009024,0.983880
2011-09-26T13:18:02.673761,3380,-0.223622,-1.501034,0.647446,0.070043,-0.013152,0.985208
2011-09-26T13:18:02.683761,3390,-0.310486,-1.520559,0.676921,0.068111,-0.017280,0.986536
2011-09-26T13:18:02.693761,3400,-0.397351,-1.540085,0.706396,0.066178,-0.021407,0.987864
2011-09-26T13:18:02.703761,3410,-0.484215,-1.559611,0.735871,0.064246,-0.025535,0.989192
2011-09-26T13:18:02.713761,3420,-0.571080,-1.579136,0.765345,0.062314,-0.029663,0.990519
2011-09-26T13:18:02.723761,3430,-0.513194,-1.360239,0.814501,0.064051,-0.027461,1.008867
2011-09-26T13:18:02.733761,3440,-0.453830,-1.138907,0.863857,0.065825,-0.025194,1.027387
2011-09-26T13:18:02.743761,3450,-0.394467,-0.917575,0.913213,0.067600,-0.022928,1.045908
2011-09-26T13:18:02.753761,3460,-0.335103,-0.696243,0.962569,0.069374,-0.020661,1.064429
2011-09-26T13:18:02.763761,3470,-0.275739,-0.474911,1.011926,0.071148,-0.018395,1.082950
2011-09-26T13:18:02.773761,3480,-0.216376,-0.253579,1.061282,0.072923,-0.016129,1.101471
2011-09-26T13:18:02.783761,3490,-0.157012,-0.032247,1.110638,0.074697,-0.013862,1.119991
2011-09-26T13:18:02.793761,3500,-0.097648,0.189085,1.159994,0.076472,-0.011596,1.138512
2011-09-26T13:18:02.803761,3510,-0.038284,0.410417,1.209351,0.078246,-0.009329,1.157033
2011-09-26T13:18:02.813761,3520,0.020952,0.631808,1.258563,0.080018,-0.007063,1.175477
2011-09-26T13:18:02.823761,3530,0.024946,0.879118,1.245208,0.080606,-0.004976,1.160610
2011-09-26T13:18:02.833761,3540,0.028939,1.126427,1.231853,0.081195,-0.002889,1.145742
2011-09-26T13:18:02.843761,3550,0.032932,1.373736,1.218497,0.081784,-0.000802,1.130874
2011-09-26T13:18:02.853761,3560,0.036926,1.621046,1.205142,0.082373,0.001285,1.116007
2011-09-26T13:18:02.863761,3570,0.040919,1.868355,1.191787,0.082962,0.003373,1.101139
2011-09-26T13:18:02.873761,3580,0.044913,2.115664,1.178432,0.083551,0.005460,1.086271
2011-09-26T13:18:02.883761,3590,0.048906,2.362973,1.165077,0.084139,0.007547,1.071404
2011-09-26T13:18:02.893761,3600,0.052900,2.610283,1.151722,0.084728,0.009634,1.056536
2011-09-26T13:18:02.903761,3610,0.056893,2.857592,1.138367,0.085317,0.011722,1.041668
2011-09-26T13:18:02.913761,3620,0.060886,3.104901,1.125011,0.085906,0.013809,1.026801
2011-09-26T13:18:02.923761,3630,0.064875,3.352058,1.111665,0.086494,0.015894,1.011935
2011-09-26T13:18:02.933761,3640,0.056973,3.208638,1.120810,0.084864,0.013598,1.001766
2011-09-26T13:18:02.943761,3650,0.049071,3.065218,1.129955,0.083233,0.011302,0.991597
2011-09-26T13:18:02.953761,3660,0.041169,2.921798,1.139100,0.081603,0.009006,0.981427
2011-09-26T13:18:02.963761,3670,0.033267,2.778378,1.148245,0.079973,0.006710,0.971258
2011-09-26T13:18:02.973761,3680,0.025365,2.634958,1.157390,0.078343,0.004414,0.961089
2011-09-26T13:18:02.983761,3690,0.017463,2.491538,1.166535,0.076713,0.002117,0.950920
2011-09-26T13:18:02.993761,3700,0.009561,2.348118,1.175680,0.075083,-0.000179,0.940751
2011-09-26T13:18:03.003761,3710,0.001659,2.204698,1.184825,0.073453,-0.002475,0.930582
2011-09-26T13:18:03.013761,3720,-0.006242,2.061278,1.193971,0.071822,-0.004771,0.920413
2011-09-26T13:18:03.023761,3730,-0.014144,1.917858,1.203116,0.070192,-0.007067,0.910244
2011-09-26T13:18:03.033761,3740,0.052859,1.756444,1.232077,0.071405,-0.005880,0.914189
2011-09-26T13:18:03.043761,3750,0.120148,1.594962,1.261114,0.072628,-0.004679,0.918188
2011-09-26T13:18:03.053761,3760,0.187436,1.433480,1.290151,0.073851,-0.003478,0.922187
2011-09-26T13:18:03.063761,3770,0.254724,1.271998,1.319188,0.075074,-0.002278,0.926186
2011-09-26T13:18:03.073761,3780,0.322012,1.110516,1.348225,0.076297,-0.001077,0.930185
2011-09-26T13:18:03.083761,3790,0.389301,0.949034,1.377261,0.077520,0.000124,0.934184
2011-09-26T13:18:03.093761,3800,0.456589,0.787552,1.406298,0.078743,0.001324,0.938184
2011-09-26T13:18:03.103761,3810,0.523877,0.626069,1.435335,0.079967,0.002525,0.942183
2011-09-26T13:18:03.113761,3820,0.591166,0.464587,1.464372,0.081190,0.003726,0.946182
2011-09-26T13:18:03.123761,3830,0.658035,0.303845,1.493372,0.082412,0.004925,0.950183
2011-09-26T13:18:03.133761,3840,0.653010,0.270190,1.516030,0.083410,0.005845,0.954646
2011-09-26T13:18:03.143761,3850,0.647985,0.236535,1.538688,0.084409,0.006766,0.959108
2011-09-26T13:18:03.153761,3860,0.642960,0.202880,1.561346,0.085408,0.007687,0.963571
2011-09-26T13:18:03.163761,3870,0.637934,0.169225,1.584004,0.086406,0.008608,0.968033
2011-09-26T13:18:03.173761,3880,0.632909,0.135570,1.606662,0.087405,0.009528,0.972496
2011-09-26T13:18:03.183761,3890,0.627884,0.101915,1.629320,0.088404,0.010449,0.976958
2011-09-26T13:18:03.193761,3900,0.622858,0.068260,1.651978,0.089403,0.011370,0.981421
2011-09-26T13:18:03.203761,3910,0.617833,0.034605,1.674636,0.090401,0.012291,0.985883
2011-09-26T13:18:03.213761,3920,0.612808,0.000950,1.697294,0.091400,0.013211,0.990346
2011-09-26T13:18:03.223761,3930,0.607782,-0.032705,1.719952,0.092399,0.014132,0.994808
2011-09-26T13:18:03.233761,3940,0.602757,-0.066359,1.742610,0.093398,0.015053,0.999271
2011-09-26T13:18:03.243761,3950,0.552626,-0.043773,1.771782,0.093830,0.016330,1.000506
2011-09-26T13:18:03.253761,3960,0.502150,-0.020757,1.801004,0.094257,0.017610,1.001716
2011-09-26T13:18:03.263761,3970,0.451674,0.002260,1.830225,0.094685,0.018891,1.002926
2011-09-26T13:18:03.273761,3980,0.401198,0.025276,1.859447,0.095113,0.020171,1.004137
2011-09-26T13:18:03.283761,3990,0.350722,0.048293,1.888669,0.095541,0.021451,1.005347
2011-09-26T13:18:03.293761,4000,0.300246,0.071310,1.917890,0.095969,0.022731,1.006557
2011-09-26T13:18:03.303761,4010,0.249770,0.094326,1.947112,0.096396,0.024011,1.007768
2011-09-26T13:18:03.313761,4020,0.199294,0.117343,1.976334,0.096824,0.025292,1.008978
2011-09-26T13:18:03.323761,4030,0.148818,0.140359,2.005555,0.097252,0.026572,1.010188
2011-09-26T13:18:03.333761,4040,0.098342,0.163376,2.034777,0.097680,0.027852,1.011399
2011-09-26T13:18:03.343761,4050,0.047866,0.186392,2.063999,0.098107,0.029132,1.012609
2011-09-26T13:18:03.353761,4060,0.000201,0.197120,2.092338,0.097836,0.028247,1.011358
2011-09-26T13:18:03.363761,4070,-0.047456,0.207815,2.120676,0.097563,0.027355,1.010101
2011-09-26T13:18:03.373761,4080,-0.095113,0.218510,2.149013,0.097289,0.026464,1.008843
2011-09-26T13:18:03.383761,4090,-0.142771,0.229204,2.177350,0.097016,0.025572,1.007586
2011-09-26T13:18:03.393761,4100,-0.190428,0.239899,2.205687,0.096743,0.024681,1.006329
2011-09-26T13:18:03.403761,4110,-0.238086,0.250594,2.234024,0.096469,0.023790,1.005071
2011-09-26T13:18:03.413761,4120,-0.285743,0.261289,2.262362,0.096196,0.022898,1.003814
2011-09-26T13:18:03.423761,4130,-0.333400,0.271983,2.290699,0.095923,0.022007,1.002556
2011-09-26T13:18:03.433761,4140,-0.381058,0.282678,2.319036,0.095649,0.021115,1.001299
2011-09-26T13:18:03.443761,4150,-0.428715,0.293373,2.347373,0.095376,0.020224,1.000042
2011-09-26T13:18:03.453761,4160,-0.400992,0.279128,2.375302,0.095709,0.019566,0.999915
2011-09-26T13:18:03.463761,4170,-0.373064,0.264816,2.403230,0.096045,0.018909,0.999792
2011-09-26T13:18:03.473761,4180,-0.345136,0.250504,2.431158,0.096380,0.018252,0.999669
2011-09-26T13:18:03.483761,4190,-0.317208,0.236192,2.459086,0.096715,0.017594,0.999546
2011-09-26T13:18:03.493761,4200,-0.289280,0.221880,2.487014,0.097050,0.016937,0.999423
2011-09-26T13:18:03.503761,4210,-0.261352,0.207568,2.514942,0.097386,0.016280,0.999300
2011-09-26T13:18:03.513761,4220,-0.233424,0.193256,2.542870,0.097721,0.015623,0.999177
2011-09-26T13:18:03.523761,4230,-0.205496,0.178943,2.570798,0.098056,0.014966,0.999054
2011-09-26T13:18:03.533761,4240,-0.177568,0.164631,2.598725,0.098391,0.014308,0.998931
2011-09-26T13:18:03.543761,4250,-0.149640,0.150319,2.626653,0.098727,0.013651,0.998808
2011-09-26T13:18:03.553761,4260,-0.098490,0.118370,2.614217,0.098846,0.014049,0.997826
2011-09-26T13:18:03.563761,4270,-0.047168,0.086291,2.601484,0.098963,0.014454,0.996837
2011-09-26T13:18:03.573761,4280,0.004153,0.054212,2.588751,0.099080,0.014860,0.995848
2011-09-26T13:18:03.583761,4290,0.055475,0.022134,2.576018,0.099198,0.015265,0.994859
2011-09-26T13:18:03.593761,4300,0.106796,-0.009945,2.563285,0.099315,0.015671,0.993870
2011-09-26T13:18:03.603761,4310,0.158118,-0.042024,2.550552,0.099433,0.016076,0.992880
2011-09-26T13:18:03.613761,4320,0.209439,-0.074103,2.537820,0.099550,0.016482,0.991891
2011-09-26T13:18:03.623761,4330,0.260761,-0.106181,2.525087,0.099668,0.016887,0.990902
2011-09-26T13:18:03.633761,4340,0.312082,-0.138260,2.512354,0.099785,0.017293,0.989913
2011-09-26T13:18:03.643761,4350,0.363403,-0.170339,2.499621,0.099903,0.017698,0.988924
2011-09-26T13:18:03.653761,4360,0.344050,-0.198379,2.495021,0.100487,0.018356,0.988942
2011-09-26T13:18:03.663761,4370,0.324505,-0.226408,2.490443,0.101072,0.019015,0.988962
2011-09-26T13:18:03.673761,4380,0.304960,-0.254437,2.485866,0.101658,0.019673,0.988982
2011-09-26T13:18:03.683761,4390,0.285415,-0.282466,2.481288,0.102243,0.020332,0.989002
2011-09-26T13:18:03.693761,4400,0.265870,-0.310495,2.476711,0.102829,0.020990,0.989022
2011-09-26T13:18:03.703761,4410,0.246324,-0.338524,2.472133,0.103414,0.021649,0.989042
2011-09-26T13:18:03.713761,4420,0.226779,-0.366553,2.467555,0.104000,0.022307,0.989062
2011-09-26T13:18:03.723761,4430,0.207234,-0.394582,2.462978,0.104585,0.022966,0.989082
2011-09-26T13:18:03.733761,4440,0.187689,-0.422611,2.458400,0.105171,0.023624,0.989102
2011-09-26T13:18:03.743761,4450,0.168144,-0.450640,2.453823,0.105756,0.024283,0.989122
2011-09-26T13:18:03.753761,4460,0.148599,-0.478669,2.449245,0.106342,0.024942,0.989142
2011-09-26T13:18:03.763761,4470,0.081211,-0.471114,2.460187,0.106247,0.026540,0.990141
2011-09-26T13:18:03.773761,4480,0.013402,-0.463247,2.471264,0.106146,0.028147,0.991148
2011-09-26T13:18:03.783761,4490,-0.054406,-0.455380,2.482342,0.106045,0.029754,0.992156
2011-09-26T13:18:03.793761,4500,-0.122214,-0.447513,2.493420,0.105944,0.031361,0.993163
2011-09-26T13:18:03.803761,4510,-0.190023,-0.439645,2.504498,0.105843,0.032968,0.994171
2011-09-26T13:18:03.813761,4520,-0.257831,-0.431778,2.515576,0.105742,0.034575,0.995178
2011-09-26T13:18:03.823761,4530,-0.325639,-0.423911,2.526654,0.105641,0.036182,0.996185
2011-09-26T13:18:03.833761,4540,-0.393448,-0.416044,2.537732,0.105541,0.037789,0.997193
2011-09-26T13:18:03.843761,4550,-0.461256,-0.408176,2.548810,0.105440,0.039396,0.998200
2011-09-26T13:18:03.853761,4560,-0.529065,-0.400309,2.559888,0.105339,0.041003,0.999208
2011-09-26T13:18:03.863761,4570,-0.556392,-0.354914,2.541483,0.104225,0.038614,1.001108
2011-09-26T13:18:03.873761,4580,-0.583565,-0.309375,2.522966,0.103107,0.036209,1.003011
2011-09-26T13:18:03.883761,4590,-0.610738,-0.263836,2.504448,0.101989,0.033805,1.004915
2011-09-26T13:18:03.893761,4600,-0.637911,-0.218297,2.485931,0.100871,0.031400,1.006819
2011-09-26T13:18:03.903761,4610,-0.665084,-0.172758,2.467413,0.099753,0.028996,1.008723
2011-09-26T13:18:03.913761,4620,-0.692257,-0.127219,2.448896,0.098635,0.026591,1.010626
2011-09-26T13:18:03.923761,4630,-0.719430,-0.081680,2.430378,0.097517,0.024186,1.012530
2011-09-26T13:18:03.933761,4640,-0.746603,-0.036141,2.411861,0.096400,0.021782,1.014434
2011-09-26T13:18:03.943761,4650,-0.773775,0.009398,2.393343,0.095282,0.019377,1.016337
2011-09-26T13:18:03.953761,4660,-0.800948,0.054937,2.374826,0.094164,0.016973,1.018241
2011-09-26T13:18:03.963761,4670,-0.828121,0.100476,2.356309,0.093046,0.014568,1.020145
2011-09-26T13:18:03.973761,4680,-0.784680,0.155427,2.362248,0.089887,0.013308,1.020539
2011-09-26T13:18:03.983761,4690,-0.740934,0.210418,2.368293,0.086720,0.012052,1.020926
2011-09-26T13:18:03.993761,4700,-0.697188,0.265410,2.374339,0.083552,0.010797,1.021314
2011-09-26T13:18:04.003761,4710,-0.653442,0.320401,2.380384,0.080385,0.009542,1.021701
2011-09-26T13:18:04.013761,4720,-0.609695,0.375393,2.386429,0.077217,0.008286,1.022089
2011-09-26T13:18:04.023761,4730,-0.565949,0.430384,2.392474,0.074050,0.007031,1.022476
2011-09-26T13:18:04.033761,4740,-0.522203,0.485375,2.398520,0.070882,0.005775,1.022864
2011-09-26T13:18:04.043761,4750,-0.478457,0.540367,2.404565,0.067715,0.004520,1.023251
2011-09-26T13:18:04.053761,4760,-0.434711,0.595358,2.410610,0.064547,0.003265,1.023639
2011-09-26T13:18:04.063761,4770,-0.390965,0.650349,2.416655,0.061380,0.002009,1.024026
2011-09-26T13:18:04.073761,4780,-0.325312,0.685223,2.406498,0.058496,0.003327,1.023136
2011-09-26T13:18:04.083761,4790,-0.259482,0.719934,2.396209,0.055615,0.004666,1.022235
2011-09-26T13:18:04.093761,4800,-0.193653,0.754645,2.385921,0.052734,0.006005,1.021334
2011-09-26T13:18:04.103761,4810,-0.127823,0.789356,2.375633,0.049853,0.007344,1.020433
2011-09-26T13:18:04.113761,4820,-0.061993,0.824067,2.365344,0.046973,0.008682,1.019532
2011-09-26T13:18:04.123761,4830,0.003837,0.858778,2.355056,0.044092,0.010021,1.018631
2011-09-26T13:18:04.133761,4840,0.069666,0.893488,2.344767,0.041211,0.011360,1.017730
2011-09-26T13:18:04.143761,4850,0.135496,0.928199,2.334479,0.038330,0.012699,1.016829
2011-09-26T13:18:04.153761,4860,0.201326,0.962910,2.324191,0.035449,0.014038,1.015928
2011-09-26T13:18:04.163761,4870,0.267155,0.997621,2.313902,0.032568,0.015376,1.015027
2011-09-26T13:18:04.173761,4880,0.235828,0.987063,2.296090,0.030634,0.016747,1.011065
2011-09-26T13:18:04.183761,4890,0.203886,0.976218,2.278231,0.028705,0.018118,1.007084
2011-09-26T13:18:04.193761,4900,0.171943,0.965373,2.260371,0.026777,0.019489,1.003102
2011-09-26T13:18:04.203761,4910,0.140001,0.954528,2.242511,0.024849,0.020859,0.999121
2011-09-26T13:18:04.213761,4920,0.108058,0.943683,2.224651,0.022921,0.022230,0.995140
2011-09-26T13:18:04.223761,4930,0.076115,0.932838,2.206792,0.020992,0.023601,0.991159
2011-09-26T13:18:04.233761,4940,0.044173,0.921993,2.188932,0.019064,0.024972,0.987178
2011-09-26T13:18:04.243761,4950,0.012230,0.911148,2.171072,0.017136,0.026343,0.983196
2011-09-26T13:18:04.253761,4960,-0.019712,0.900303,2.153213,0.015208,0.027714,0.979215
2011-09-26T13:18:04.263761,4970,-0.051655,0.889458,2.135353,0.013279,0.029084,0.975234
2011-09-26T13:18:04.273761,4980,-0.070969,0.866688,2.122464,0.012240,0.028603,0.975609
2011-09-26T13:18:04.283761,4990,-0.090161,0.843803,2.109623,0.011209,0.028103,0.976027
2011-09-26T13:18:04.293761,5000,-0.109353,0.820917,2.096782,0.010179,0.027603,0.976444
2011-09-26T13:18:04.303761,5010,-0.128545,0.798032,2.083941,0.009148,0.027104,0.976862
2011-09-26T13:18:04.313761,5020,-0.147737,0.775146,2.071099,0.008117,0.026604,0.977279
2011-09-26T13:18:04.323761,5030,-0.166928,0.752261,2.058258,0.007086,0.026104,0.977697
2011-09-26T13:18:04.333761,5040,-0.186120,0.729375,2.045417,0.006056,0.025604,0.978114
2011-09-26T13:18:04.343761,5050,-0.205312,0.706489,2.032576,0.005025,0.025105,0.978532
2011-09-26T13:18:04.353761,5060,-0.224504,0.683604,2.019735,0.003994,0.024605,0.978949
2011-09-26T13:18:04.363761,5070,-0.243696,0.660718,2.006894,0.002963,0.024105,0.979367
2011-09-26T13:18:04.373761,5080,-0.262888,0.637833,1.994053,0.001933,0.023605,0.979784
2011-09-26T13:18:04.383761,5090,-0.311295,0.611980,2.005245,0.002029,0.023202,0.981868
2011-09-26T13:18:04.393761,5100,-0.359977,0.586099,2.016663,0.002136,0.022798,0.983969
2011-09-26T13:18:04.403761,5110,-0.408659,0.560219,2.028081,0.002244,0.022395,0.986069
2011-09-26T13:18:04.413761,5120,-0.457341,0.534338,2.039498,0.002351,0.021992,0.988169
2011-09-26T13:18:04.423761,5130,-0.506023,0.508458,2.050916,0.002458,0.021589,0.990269
2011-09-26T13:18:04.433761,5140,-0.554705,0.482577,2.062334,0.002565,0.021186,0.992369
2011-09-26T13:18:04.443761,5150,-0.603387,0.456696,2.073752,0.002672,0.020783,0.994469
2011-09-26T13:18:04.453761,5160,-0.652069,0.430816,2.085169,0.002779,0.020380,0.996569
2011-09-26T13:18:04.463761,5170,-0.700751,0.404935,2.096587,0.002886,0.019977,0.998669
2011-09-26T13:18:04.473761,5180,-0.749433,0.379055,2.108005,0.002994,0.019574,1.000769
2011-09-26T13:18:04.483761,5190,-0.736983,0.430956,2.104985,0.002582,0.018733,1.001625
2011-09-26T13:18:04.493761,5200,-0.724243,0.483226,2.101898,0.002167,0.017890,1.002474
2011-09-26T13:18:04.503761,5210,-0.711504,0.535496,2.098810,0.001753,0.017047,1.003323
2011-09-26T13:18:04.513761,5220,-0.698765,0.587766,2.095723,0.001339,0.016204,1.004173
2011-09-26T13:18:04.523761,5230,-0.686026,0.640036,2.092635,0.000925,0.015361,1.005022
2011-09-26T13:18:04.533761,5240,-0.673286,0.692306,2.089548,0.000511,0.014518,1.005872
2011-09-26T13:18:04.543761,5250,-0.660547,0.744576,2.086460,0.000096,0.013675,1.006721
2011-09-26T13:18:04.553761,5260,-0.647808,0.796846,2.083373,-0.000318,0.012832,1.007570
2011-09-26T13:18:04.563761,5270,-0.635068,0.849116,2.080285,-0.000732,0.011989,1.008420
2011-09-26T13:18:04.573761,5280,-0.622329,0.901386,2.077197,-0.001146,0.011145,1.009269
2011-09-26T13:18:04.583761,5290,-0.609590,0.953656,2.074110,-0.001561,0.010302,1.010119
2011-09-26T13:18:04.593761,5300,-0.567429,0.934847,2.085358,-0.001752,0.009792,1.008724
2011-09-26T13:18:04.603761,5310,-0.524978,0.915336,2.096748,-0.001942,0.009286,1.007307
2011-09-26T13:18:04.613761,5320,-0.482527,0.895825,2.108138,-0.002132,0.008779,1.005890
2011-09-26T13:18:04.623761,5330,-0.440075,0.876314,2.119528,-0.002321,0.008272,1.004473
2011-09-26T13:18:04.633761,5340,-0.397624,0.856803,2.130918,-0.002511,0.007765,1.003056
2011-09-26T13:18:04.643761,5350,-0.355172,0.837292,2.142308,-0.002700,0.007259,1.001640
2011-09-26T13:18:04.653761,5360,-0.312721,0.817781,2.153698,-0.002890,0.006752,1.000223
2011-09-26T13:18:04.663761,5370,-0.270270,0.798270,2.165088,-0.003080,0.006245,0.998806
2011-09-26T13:18:04.673761,5380,-0.227818,0.778759,2.176478,-0.003269,0.005738,0.997389
2011-09-26T13:18:04.683761,5390,-0.185367,0.759248,2.187868,-0.003459,0.005232,0.995972
2011-09-26T13:18:04.693761,5400,-0.115542,0.727190,2.181272,-0.003871,0.006234,0.994798
2011-09-26T13:18:04.703761,5410,-0.045418,0.694995,2.174481,-0.004286,0.007253,0.993627
2011-09-26T13:18:04.713761,5420,0.024706,0.662801,2.167690,-0.004701,0.008272,0.992456
2011-09-26T13:18:04.723761,5430,0.094830,0.630606,2.160898,-0.005116,0.009291,0.991284
2011-09-26T13:18:04.733761,5440,0.164954,0.598411,2.154107,-0.005530,0.010311,0.990113
2011-09-26T13:18:04.743761,5450,0.235078,0.566216,2.147316,-0.005945,0.011330,0.988942
2011-09-26T13:18:04.753761,5460,0.305202,0.534022,2.140524,-0.006360,0.012349,0.987771
2011-09-26T13:18:04.763761,5470,0.375326,0.501827,2.133733,-0.006775,0.013368,0.986599
2011-09-26T13:18:04.773761,5480,0.445450,0.469632,2.126942,-0.007190,0.014387,0.985428
2011-09-26T13:18:04.783761,5490,0.515574,0.437438,2.120150,-0.007605,0.015406,0.984257
2011-09-26T13:18:04.793761,5500,0.494285,0.388398,2.114216,-0.007672,0.015711,0.983960
2011-09-26T13:18:04.803761,5510,0.471848,0.339147,2.108293,-0.007736,0.016007,0.983674
2011-09-26T13:18:04.813761,5520,0.449410,0.289895,2.102369,-0.007799,0.016303,0.983389
2011-09-26T13:18:04.823761,5530,0.426973,0.240644,2.096446,-0.007862,0.016599,0.983103
2011-09-26T13:18:04.833761,5540,0.404536,0.191393,2.090522,-0.007926,0.016895,0.982817
2011-09-26T13:18:04.843761,5550,0.382099,0.142141,2.084599,-0.007989,0.017191,0.982532
2011-09-26T13:18:04.853761,5560,0.359662,0.092890,2.078675,-0.008052,0.017487,0.982246
2011-09-26T13:18:04.863761,5570,0.337224,0.043639,2.072752,-0.008116,0.017783,0.981960
2011-09-26T13:18:04.873761,5580,0.314787,-0.005612,2.066828,-0.008179,0.018079,0.981675
2011-09-26T13:18:04.883761,5590,0.292350,-0.054864,2.060905,-0.008243,0.018376,0.981389
2011-09-26T13:18:04.893761,5600,0.269913,-0.104115,2.054981,-0.008306,0.018672,0.981103
2011-09-26T13:18:04.903761,5610,0.231015,-0.246392,2.061230,-0.009584,0.018826,0.981960
2011-09-26T13:18:04.913761,5620,0.191928,-0.389743,2.067619,-0.010876,0.018979,0.982831
2011-09-26T13:18:04.923761,5630,0.152840,-0.533093,2.074008,-0.012168,0.019131,0.983701
2011-09-26T13:18:04.933761,5640,0.113753,-0.676444,2.080397,-0.013460,0.019284,0.984571
2011-09-26T13:18:04.943761,5650,0.074665,-0.819794,2.086786,-0.014752,0.019437,0.985441
2011-09-26T13:18:04.953761,5660,0.035578,-0.963144,2.093175,-0.016044,0.019589,0.986311
2011-09-26T13:18:04.963761,5670,-0.003510,-1.106495,2.099564,-0.017336,0.019742,0.987181
2011-09-26T13:18:04.973761,5680,-0.042597,-1.249845,2.105953,-0.018629,0.019895,0.988051
2011-09-26T13:18:04.983761,5690,-0.081685,-1.393195,2.112342,-0.019921,0.020047,0.988922
2011-09-26T13:18:04.993761,5700,-0.120772,-1.536546,2.118732,-0.021213,0.020200,0.989792
2011-09-26T13:18:05.003761,5710,-0.089769,-1.645369,2.125200,-0.019533,0.018689,0.990125
2011-09-26T13:18:05.013761,5720,-0.057026,-1.753336,2.131670,-0.017779,0.017137,0.990445
2011-09-26T13:18:05.023761,5730,-0.024282,-1.861302,2.138141,-0.016025,0.015584,0.990765
2011-09-26T13:18:05.033761,5740,0.008461,-1.969269,2.144611,-0.014271,0.014032,0.991085
2011-09-26T13:18:05.043761,5750,0.041204,-2.077236,2.151081,-0.012518,0.012479,0.991404
2011-09-26T13:18:05.053761,5760,0.073948,-2.185202,2.157552,-0.010764,0.010927,0.991724
2011-09-26T13:18:05.063761,5770,0.106691,-2.293169,2.164022,-0.009010,0.009375,0.992044
2011-09-26T13:18:05.073761,5780,0.139434,-2.401135,2.170493,-0.007256,0.007822,0.992364
2011-09-26T13:18:05.083761,5790,0.172177,-2.509102,2.176963,-0.005503,0.006270,0.992684
2011-09-26T13:18:05.093761,5800,0.204921,-2.617068,2.183433,-0.003749,0.004718,0.993004
2011-09-26T13:18:05.103761,5810,0.237162,-2.637894,2.217697,-0.003596,0.004762,0.994715
2011-09-26T13:18:05.113761,5820,0.269392,-2.656786,2.252578,-0.003478,0.004842,0.996457
2011-09-26T13:18:05.123761,5830,0.301622,-2.675678,2.287459,-0.003361,0.004922,0.998200
2011-09-26T13:18:05.133761,5840,0.333853,-2.694570,2.322340,-0.003243,0.005002,0.999942
2011-09-26T13:18:05.143761,5850,0.366083,-2.713462,2.357220,-0.003125,0.005082,1.001684
2011-09-26T13:18:05.153761,5860,0.398313,-2.732354,2.392101,-0.003008,0.005162,1.003426
2011-09-26T13:18:05.163761,5870,0.430543,-2.751246,2.426982,-0.002890,0.005242,1.005168
2011-09-26T13:18:05.173761,5880,0.462773,-2.770138,2.461862,-0.002773,0.005322,1.006910
2011-09-26T13:18:05.183761,5890,0.495003,-2.789030,2.496743,-0.002655,0.005402,1.008652
2011-09-26T13:18:05.193761,5900,0.527234,-2.807922,2.531624,-0.002537,0.005482,1.010395
2011-09-26T13:18:05.203761,5910,0.559464,-2.826814,2.566505,-0.002420,0.005562,1.012137
2011-09-26T13:18:05.213761,5920,0.657175,-2.770402,2.618201,-0.002130,0.005905,1.013425
2011-09-26T13:18:05.223761,5930,0.756497,-2.712137,2.670311,-0.001835,0.006254,1.014702
2011-09-26T13:18:05.233761,5940,0.855819,-2.653873,2.722420,-0.001541,0.006604,1.015979
2011-09-26T13:18:05.243761,5950,0.955141,-2.595609,2.774530,-0.001246,0.006953,1.017256
2011-09-26T13:18:05.253761,5960,1.054463,-2.537344,2.826640,-0.000952,0.007302,1.018534
2011-09-26T13:18:05.263761,5970,1.153785,-2.479080,2.878750,-0.000657,0.007652,1.019811
2011-09-26T13:18:05.273761,5980,1.253106,-2.420816,2.930859,-0.000363,0.008001,1.021088
2011-09-26T13:18:05.283761,5990,1.352428,-2.362551,2.982969,-0.000068,0.008351,1.022365
2011-09-26T13:18:05.293761,6000,1.451750,-2.304287,3.035079,0.000226,0.008700,1.023642
2011-09-26T13:18:05.303761,6010,1.551072,-2.246023,3.087189,0.000521,0.009049,1.024919
2011-09-26T13:18:05.313761,6020,1.565987,-2.104756,3.120613,0.000900,0.012543,1.030594
2011-09-26T13:18:05.323761,6030,1.580195,-1.962795,3.153881,0.001279,0.016063,1.036306
2011-09-26T13:18:05.333761,6040,1.594403,-1.820833,3.187150,0.001659,0.019583,1.042018
2011-09-26T13:18:05.343761,6050,1.608612,-1.678872,3.220418,0.002039,0.023102,1.047730
2011-09-26T13:18:05.353761,6060,1.622820,-1.536910,3.253686,0.002418,0.026622,1.053442
2011-09-26T13:18:05.363761,6070,1.637029,-1.394949,3.286954,0.002798,0.030142,1.059154
2011-09-26T13:18:05.373761,6080,1.651237,-1.252988,3.320222,0.003178,0.033662,1.064866
2011-09-26T13:18:05.383761,6090,1.665445,-1.111026,3.353490,0.003557,0.037182,1.070578
2011-09-26T13:18:05.393761,6100,1.679654,-0.969065,3.386759,0.003937,0.040702,1.076290
2011-09-26T13:18:05.403761,6110,1.693862,-0.827103,3.420027,0.004316,0.044222,1.082002
2011-09-26T13:18:05.413761,6120,1.653488,-0.620554,3.470707,0.003695,0.045650,1.076329
2011-09-26T13:18:05.423761,6130,1.612824,-0.413661,3.521481,0.003068,0.047067,1.070595
2011-09-26T13:18:05.433761,6140,1.572159,-0.206768,3.572254,0.002441,0.048485,1.064861
2011-09-26T13:18:05.443761,6150,1.531494,0.000126,3.623028,0.001814,0.049902,1.059127
2011-09-26T13:18:05.453761,6160,1.490829,0.207019,3.673801,0.001188,0.051319,1.053393
2011-09-26T13:18:05.463761,6170,1.450165,0.413912,3.724575,0.000561,0.052737,1.047659
2011-09-26T13:18:05.473761,6180,1.409500,0.620805,3.775348,-0.000066,0.054154,1.041925
2011-09-26T13:18:05.483761,6190,1.368835,0.827699,3.826122,-0.000693,0.055571,1.036191
2011-09-26T13:18:05.493761,6200,1.328170,1.034592,3.876895,-0.001320,0.056988,1.030457
2011-09-26T13:18:05.503761,6210,1.287506,1.241485,3.927669,-0.001947,0.058406,1.024724
2011-09-26T13:18:05.513761,6220,1.246841,1.448378,3.978442,-0.002573,0.059823,1.018990
2011-09-26T13:18:05.523761,6230,1.146576,1.495559,4.050574,-0.003497,0.060616,1.016344
2011-09-26T13:18:05.533761,6240,1.045853,1.541513,4.122870,-0.004423,0.061404,1.013722
2011-09-26T13:18:05.543761,6250,0.945131,1.587467,4.195165,-0.005349,0.062191,1.011099
2011-09-26T13:18:05.553761,6260,0.844408,1.633421,4.267461,-0.006275,0.062979,1.008477
2011-09-26T13:18:05.563761,6270,0.743685,1.679375,4.339757,-0.007201,0.063767,1.005855
2011-09-26T13:18:05.573761,6280,0.642963,1.725329,4.412053,-0.008126,0.064555,1.003233
2011-09-26T13:18:05.583761,6290,0.542240,1.771284,4.484349,-0.009052,0.065343,1.000611
2011-09-26T13:18:05.593761,6300,0.441518,1.817238,4.556644,-0.009978,0.066131,0.997989
2011-09-26T13:18:05.603761,6310,0.340795,1.863192,4.628940,-0.010904,0.066918,0.995367
2011-09-26T13:18:05.613761,6320,0.240072,1.909146,4.701236,-0.011830,0.067706,0.992744
2011-09-26T13:18:05.623761,6330,0.218397,1.907431,4.764126,-0.010990,0.066610,0.991545
2011-09-26T13:18:05.633761,6340,0.197078,1.905501,4.826973,-0.010143,0.065505,0.990352
2011-09-26T13:18:05.643761,6350,0.175759,1.903570,4.889821,-0.009296,0.064401,0.989159
2011-09-26T13:18:05.653761,6360,0.154440,1.901640,4.952668,-0.008448,0.063296,0.987967
2011-09-26T13:18:05.663761,6370,0.133122,1.899710,5.015516,-0.007601,0.062191,0.986774
2011-09-26T13:18:05.673761,6380,0.111803,1.897780,5.078363,-0.006753,0.061086,0.985581
2011-09-26T13:18:05.683761,6390,0.090484,1.895849,5.141211,-0.005906,0.059982,0.984388
2011-09-26T13:18:05.693761,6400,0.069165,1.893919,5.204058,-0.005058,0.058877,0.983195
2011-09-26T13:18:05.703761,6410,0.047846,1.891989,5.266906,-0.004211,0.057772,0.982003
2011-09-26T13:18:05.713761,6420,0.026527,1.890059,5.329753,-0.003364,0.056668,0.980810
2011-09-26T13:18:05.723761,6430,0.005209,1.888128,5.392600,-0.002516,0.055563,0.979617
2011-09-26T13:18:05.733761,6440,0.001768,1.853480,5.435461,-0.002042,0.056650,0.978416
2011-09-26T13:18:05.743761,6450,-0.001308,1.818163,5.477913,-0.001575,0.057781,0.977214
2011-09-26T13:18:05.753761,6460,-0.004384,1.782846,5.520364,-0.001108,0.058912,0.976013
2011-09-26T13:18:05.763761,6470,-0.007459,1.747529,5.562816,-0.000641,0.060044,0.974812
2011-09-26T13:18:05.773761,6480,-0.010535,1.712212,5.605268,-0.000174,0.061175,0.973610
2011-09-26T13:18:05.783761,6490,-0.013611,1.676895,5.647720,0.000293,0.062307,0.972409
2011-09-26T13:18:05.793761,6500,-0.016687,1.641578,5.690172,0.000760,0.063438,0.971207
2011-09-26T13:18:05.803761,6510,-0.019762,1.606261,5.732624,0.001227,0.064569,0.970006
2011-09-26T13:18:05.813761,6520,-0.022838,1.570944,5.775076,0.001694,0.065701,0.968805
2011-09-26T13:18:05.823761,6530,-0.025914,1.535627,5.817528,0.002161,0.066832,0.967603
2011-09-26T13:18:05.833761,6540,-0.022623,1.455537,5.822635,0.002234,0.067926,0.967380
2011-09-26T13:18:05.843761,6550,-0.019257,1.374912,5.827296,0.002304,0.069020,0.967169
2011-09-26T13:18:05.853761,6560,-0.015890,1.294287,5.831958,0.002373,0.070113,0.966958
2011-09-26T13:18:05.863761,6570,-0.012524,1.213662,5.836619,0.002442,0.071206,0.966747
2011-09-26T13:18:05.873761,6580,-0.009158,1.133037,5.841280,0.002512,0.072300,0.966536
2011-09-26T13:18:05.883761,6590,-0.005791,1.052412,5.845942,0.002581,0.073393,0.966325
2011-09-26T13:18:05.893761,6600,-0.002425,0.971786,5.850603,0.002650,0.074487,0.966113
2011-09-26T13:18:05.903761,6610,0.000942,0.891161,5.855264,0.002720,0.075580,0.965902
2011-09-26T13:18:05.913761,6620,0.004308,0.810536,5.859926,0.002789,0.076673,0.965691
2011-09-26T13:18:05.923761,6630,0.007674,0.729911,5.864587,0.002858,0.077767,0.965480
2011-09-26T13:18:05.933761,6640,-0.033108,0.607472,5.868979,0.002746,0.077423,0.966711
2011-09-26T13:18:05.943761,6650,-0.074293,0.484653,5.873369,0.002632,0.077066,0.967956
2011-09-26T13:18:05.953761,6660,-0.115477,0.361833,5.877758,0.002518,0.076709,0.969200
2011-09-26T13:18:05.963761,6670,-0.156661,0.239014,5.882147,0.002404,0.076353,0.970445
2011-09-26T13:18:05.973761,6680,-0.197845,0.116195,5.886537,0.002290,0.075996,0.971689
2011-09-26T13:18:05.983761,6690,-0.239030,-0.006625,5.890926,0.002176,0.075639,0.972934
2011-09-26T13:18:05.993761,6700,-0.280214,-0.129444,5.895316,0.002062,0.075282,0.974178
2011-09-26T13:18:06.003761,6710,-0.321398,-0.252264,5.899705,0.001948,0.074925,0.975423
2011-09-26T13:18:06.013761,6720,-0.362582,-0.375083,5.904095,0.001834,0.074568,0.976667
2011-09-26T13:18:06.023761,6730,-0.403767,-0.497902,5.908484,0.001720,0.074211,0.977912
2011-09-26T13:18:06.033761,6740,-0.444951,-0.620722,5.912873,0.001606,0.073855,0.979156
2011-09-26T13:18:06.043761,6750,-0.459516,-0.665623,5.949391,0.002103,0.073488,0.981945
2011-09-26T13:18:06.053761,6760,-0.473904,-0.710005,5.986123,0.002604,0.073122,0.984744
2011-09-26T13:18:06.063761,6770,-0.488291,-0.754388,6.022855,0.003105,0.072755,0.987543
2011-09-26T13:18:06.073761,6780,-0.502679,-0.798770,6.059587,0.003605,0.072389,0.990341
2011-09-26T13:18:06.083761,6790,-0.517067,-0.843152,6.096319,0.004106,0.072022,0.993140
2011-09-26T13:18:06.093761,6800,-0.531455,-0.887535,6.133051,0.004607,0.071656,0.995939
2011-09-26T13:18:06.103761,6810,-0.545842,-0.931917,6.169783,0.005108,0.071290,0.998738
2011-09-26T13:18:06.113761,6820,-0.560230,-0.976299,6.206515,0.005609,0.070923,1.001537
2011-09-26T13:18:06.123761,6830,-0.574618,-1.020682,6.243247,0.006110,0.070557,1.004336
2011-09-26T13:18:06.133761,6840,-0.589006,-1.065064,6.279979,0.006610,0.070190,1.007135
2011-09-26T13:18:06.143761,6850,-0.630504,-0.997311,6.327929,0.007038,0.070522,1.006763
2011-09-26T13:18:06.153761,6860,-0.672324,-0.928231,6.376012,0.007466,0.070862,1.006354
2011-09-26T13:18:06.163761,6870,-0.714143,-0.859151,6.424095,0.007893,0.071201,1.005945
2011-09-26T13:18:06.173761,6880,-0.755963,-0.790072,6.472177,0.008320,0.071541,1.005536
2011-09-26T13:18:06.183761,6890,-0.797782,-0.720992,6.520260,0.008747,0.071881,1.005126
2011-09-26T13:18:06.193761,6900,-0.839602,-0.651912,6.568342,0.009174,0.072221,1.004717
2011-09-26T13:18:06.203761,6910,-0.881421,-0.582832,6.616425,0.009602,0.072561,1.004308
2011-09-26T13:18:06.213761,6920,-0.923241,-0.513752,6.664508,0.010029,0.072901,1.003898
2011-09-26T13:18:06.223761,6930,-0.965060,-0.444672,6.712590,0.010456,0.073241,1.003489
2011-09-26T13:18:06.233761,6940,-1.006879,-0.375593,6.760673,0.010883,0.073580,1.003080
2011-09-26T13:18:06.243761,6950,-0.746256,-0.361181,6.741694,0.011128,0.071274,1.003464
2011-09-26T13:18:06.253761,6960,-0.477271,-0.348282,6.720861,0.011369,0.068894,1.003870
2011-09-26T13:18:06.263761,6970,-0.208286,-0.335382,6.700028,0.011609,0.066514,1.004276
2011-09-26T13:18:06.273761,6980,0.060699,-0.322482,6.679194,0.011849,0.064134,1.004682
2011-09-26T13:18:06.283761,6990,0.329685,-0.309582,6.658361,0.012089,0.061754,1.005088
2011-09-26T13:18:06.293761,7000,0.598670,-0.296682,6.637528,0.012330,0.059374,1.005494
2011-09-26T13:18:06.303761,7010,0.867655,-0.283783,6.616695,0.012570,0.056994,1.005900
2011-09-26T13:18:06.313761,7020,1.136640,-0.270883,6.595862,0.012810,0.054614,1.006305
2011-09-26T13:18:06.323761,7030,1.405625,-0.257983,6.575029,0.013051,0.052234,1.006711
2011-09-26T13:18:06.333761,7040,1.674611,-0.245083,6.554195,0.013291,0.049854,1.007117
2011-09-26T13:18:06.343761,7050,1.943596,-0.232184,6.533362,0.013531,0.047474,1.007523
2011-09-26T13:18:06.353761,7060,1.703866,-0.237937,6.566861,0.014923,0.054913,1.009241
2011-09-26T13:18:06.363761,7070,1.454647,-0.244038,6.601374,0.016335,0.062536,1.010984
2011-09-26T13:18:06.373761,7080,1.205428,-0.250139,6.635886,0.017748,0.070159,1.012726
2011-09-26T13:18:06.383761,7090,0.956209,-0.256240,6.670399,0.019161,0.077782,1.014469
2011-09-26T13:18:06.393761,7100,0.706990,-0.262341,6.704911,0.020574,0.085404,1.016211
2011-09-26T13:18:06.403761,7110,0.457771,-0.268442,6.739424,0.021987,0.093027,1.017954
2011-09-26T13:18:06.413761,7120,0.208553,-0.274544,6.773936,0.023400,0.100650,1.019696
2011-09-26T13:18:06.423761,7130,-0.040666,-0.280645,6.808448,0.024813,0.108272,1.021439
2011-09-26T13:18:06.433761,7140,-0.289885,-0.286746,6.842961,0.026226,0.115895,1.023181
2011-09-26T13:18:06.443761,7150,-0.539104,-0.292847,6.877473,0.027639,0.123518,1.024924
2011-09-26T13:18:06.453761,7160,-0.419456,-0.360591,6.839994,0.027871,0.119861,1.023616
2011-09-26T13:18:06.463761,7170,-0.293767,-0.429345,6.801336,0.028085,0.116020,1.022259
2011-09-26T13:18:06.473761,7180,-0.168077,-0.498099,6.762678,0.028298,0.112178,1.020901
2011-09-26T13:18:06.483761,7190,-0.042388,-0.566853,6.724020,0.028511,0.108336,1.019543
2011-09-26T13:18:06.493761,7200,0.083301,-0.635607,6.685362,0.028724,0.104495,1.018186
2011-09-26T13:18:06.503761,7210,0.208990,-0.704361,6.646704,0.028938,0.100653,1.016828
2011-09-26T13:18:06.513761,7220,0.334679,-0.773115,6.608045,0.029151,0.096812,1.015471
2011-09-26T13:18:06.523761,7230,0.460369,-0.841869,6.569387,0.029364,0.092970,1.014113
2011-09-26T13:18:06.533761,7240,0.586058,-0.910623,6.530729,0.029578,0.089129,1.012755
2011-09-26T13:18:06.543761,7250,0.711747,-0.979377,6.492071,0.029791,0.085287,1.011398
2011-09-26T13:18:06.553761,7260,0.658502,-1.071729,6.507267,0.028089,0.083495,1.002554
2011-09-26T13:18:06.563761,7270,0.602032,-1.164507,6.523433,0.026352,0.081741,0.993576
2011-09-26T13:18:06.573761,7280,0.545563,-1.257285,6.539599,0.024615,0.079986,0.984597
2011-09-26T13:18:06.583761,7290,0.489094,-1.350064,6.555765,0.022878,0.078231,0.975619
2011-09-26T13:18:06.593761,7300,0.432624,-1.442842,6.571931,0.021141,0.076476,0.966640
2011-09-26T13:18:06.603761,7310,0.376155,-1.535620,6.588097,0.019404,0.074721,0.957662
2011-09-26T13:18:06.613761,7320,0.319685,-1.628398,6.604263,0.017668,0.072966,0.948683
2011-09-26T13:18:06.623761,7330,0.263216,-1.721176,6.620429,0.015931,0.071212,0.939705
2011-09-26T13:18:06.633761,7340,0.206746,-1.813954,6.636595,0.014194,0.069457,0.930726
2011-09-26T13:18:06.643761,7350,0.150277,-1.906732,6.652761,0.012457,0.067702,0.921748
2011-09-26T13:18:06.653761,7360,0.093808,-1.999510,6.668928,0.010720,0.065947,0.912769
2011-09-26T13:18:06.663761,7370,0.280334,-2.051711,6.720451,0.013374,0.061943,0.927745
2011-09-26T13:18:06.673761,7380,0.470187,-2.103357,6.772459,0.016088,0.057909,0.943049
2011-09-26T13:18:06.683761,7390,0.660039,-2.155003,6.824467,0.018802,0.053874,0.958353
2011-09-26T13:18:06.693761,7400,0.849892,-2.206649,6.876475,0.021516,0.049840,0.973657
2011-09-26T13:18:06.703761,7410,1.039744,-2.258295,6.928483,0.024229,0.045805,0.988961
2011-09-26T13:18:06.713761,7420,1.229597,-2.309941,6.980491,0.026943,0.041770,1.004265
2011-09-26T13:18:06.723761,7430,1.419449,-2.361587,7.032498,0.029657,0.037736,1.019568
2011-09-26T13:18:06.733761,7440,1.609302,-2.413233,7.084506,0.032371,0.033701,1.034872
2011-09-26T13:18:06.743761,7450,1.799154,-2.464878,7.136514,0.035085,0.029667,1.050176
2011-09-26T13:18:06.753761,7460,1.989007,-2.516524,7.188522,0.037799,0.025632,1.065480
2011-09-26T13:18:06.763761,7470,1.958910,-2.184071,7.151509,0.037590,0.030012,1.062833
2011-09-26T13:18:06.773761,7480,1.925327,-1.845531,7.113086,0.037335,0.034526,1.059901
2011-09-26T13:18:06.783761,7490,1.891744,-1.506991,7.074662,0.037080,0.039039,1.056969
2011-09-26T13:18:06.793761,7500,1.858161,-1.168451,7.036238,0.036825,0.043553,1.054038
2011-09-26T13:18:06.803761,7510,1.824578,-0.829911,6.997815,0.036570,0.048066,1.051106
2011-09-26T13:18:06.813761,7520,1.790996,-0.491371,6.959391,0.036315,0.052580,1.048174
2011-09-26T13:18:06.823761,7530,1.757413,-0.152831,6.920968,0.036060,0.057094,1.045243
2011-09-26T13:18:06.833761,7540,1.723830,0.185709,6.882544,0.035805,0.061607,1.042311
2011-09-26T13:18:06.843761,7550,1.690247,0.524249,6.844121,0.035550,0.066121,1.039379
2011-09-26T13:18:06.853761,7560,1.656664,0.862789,6.805697,0.035295,0.070634,1.036447
2011-09-26T13:18:06.863761,7570,1.623081,1.201329,6.767274,0.035040,0.075148,1.033516
2011-09-26T13:18:06.873761,7580,1.554551,1.390056,6.757855,0.032402,0.073216,1.031287
2011-09-26T13:18:06.883761,7590,1.485392,1.576083,6.748959,0.029720,0.071168,1.029071
2011-09-26T13:18:06.893761,7600,1.416232,1.762111,6.740063,0.027039,0.069121,1.026855
2011-09-26T13:18:06.903761,7610,1.347072,1.948138,6.731167,0.024358,0.067073,1.024640
2011-09-26T13:18:06.913761,7620,1.277913,2.134166,6.722271,0.021677,0.065025,1.022424
2011-09-26T13:18:06.923761,7630,1.208753,2.320193,6.713375,0.018996,0.062977,1.020208
2011-09-26T13:18:06.933761,7640,1.139593,2.506221,6.704479,0.016315,0.060929,1.017992
2011-09-26T13:18:06.943761,7650,1.070434,2.692248,6.695583,0.013634,0.058881,1.015776
2011-09-26T13:18:06.953761,7660,1.001274,2.878276,6.686686,0.010953,0.056833,1.013560
2011-09-26T13:18:06.963761,7670,0.932114,3.064303,6.677790,0.008272,0.054786,1.011344
2011-09-26T13:18:06.973761,7680,0.911745,3.083655,6.678702,0.008296,0.061673,1.007380
2011-09-26T13:18:06.983761,7690,0.892180,3.100260,6.679775,0.008364,0.068709,1.003387
2011-09-26T13:18:06.993761,7700,0.872614,3.116866,6.680848,0.008432,0.075744,0.999394
2011-09-26T13:18:07.003761,7710,0.853049,3.133471,6.681920,0.008501,0.082779,0.995401
2011-09-26T13:18:07.013761,7720,0.833484,3.150077,6.682993,0.008569,0.089814,0.991408
2011-09-26T13:18:07.023761,7730,0.813918,3.166682,6.684066,0.008637,0.096849,0.987415
2011-09-26T13:18:07.033761,7740,0.794353,3.183288,6.685139,0.008705,0.103884,0.983421
2011-09-26T13:18:07.043761,7750,0.774788,3.199893,6.686212,0.008773,0.110919,0.979428
2011-09-26T13:18:07.053761,7760,0.755222,3.216499,6.687285,0.008842,0.117954,0.975435
2011-09-26T13:18:07.063761,7770,0.735657,3.233104,6.688358,0.008910,0.124989,0.971442
2011-09-26T13:18:07.073761,7780,0.675206,3.064599,6.690960,0.007709,0.121559,0.969778
2011-09-26T13:18:07.083761,7790,0.613823,2.891874,6.693596,0.006480,0.117890,0.968167
2011-09-26T13:18:07.093761,7800,0.552440,2.719149,6.696233,0.005250,0.114221,0.966556
2011-09-26T13:18:07.103761,7810,0.491057,2.546424,6.698869,0.004021,0.110552,0.964945
2011-09-26T13:18:07.113761,7820,0.429674,2.373699,6.701506,0.002791,0.106883,0.963334
2011-09-26T13:18:07.123761,7830,0.368291,2.200974,6.704142,0.001562,0.103214,0.961723
2011-09-26T13:18:07.133761,7840,0.306908,2.028249,6.706779,0.000332,0.099545,0.960112
2011-09-26T13:18:07.143761,7850,0.245525,1.855524,6.709415,-0.000897,0.095876,0.958501
2011-09-26T13:18:07.153761,7860,0.184142,1.682799,6.712052,-0.002127,0.092208,0.956890
2011-09-26T13:18:07.163761,7870,0.122759,1.510074,6.714689,-0.003356,0.088539,0.955280
2011-09-26T13:18:07.173761,7880,0.061375,1.337349,6.717325,-0.004586,0.084870,0.953669
2011-09-26T13:18:07.183761,7890,0.063275,1.127538,6.722652,-0.004562,0.085888,0.954892
2011-09-26T13:18:07.193761,7900,0.066257,0.917094,6.728025,-0.004517,0.086987,0.956164
2011-09-26T13:18:07.203761,7910,0.069238,0.706650,6.733398,-0.004471,0.088086,0.957436
2011-09-26T13:18:07.213761,7920,0.072219,0.496206,6.738772,-0.004426,0.089185,0.958708
2011-09-26T13:18:07.223761,7930,0.075200,0.285762,6.744145,-0.004381,0.090284,0.959980
2011-09-26T13:18:07.233761,7940,0.078181,0.075318,6.749518,-0.004336,0.091383,0.961252
2011-09-26T13:18:07.243761,7950,0.081162,-0.135126,6.754891,-0.004290,0.092481,0.962524
2011-09-26T13:18:07.253761,7960,0.084144,-0.345570,6.760264,-0.004245,0.093580,0.963796
2011-09-26T13:18:07.263761,7970,0.087125,-0.556014,6.765637,-0.004200,0.094679,0.965068
2011-09-26T13:18:07.273761,7980,0.090106,-0.766458,6.771010,-0.004155,0.095778,0.966340
2011-09-26T13:18:07.283761,7990,0.182753,-0.839537,6.762846,-0.001945,0.094253,0.967992
2011-09-26T13:18:07.293761,8000,0.277420,-0.909522,6.754377,0.000313,0.092669,0.969652
2011-09-26T13:18:07.303761,8010,0.372086,-0.979507,6.745908,0.002571,0.091085,0.971312
2011-09-26T13:18:07.313761,8020,0.466753,-1.049492,6.737439,0.004829,0.089501,0.972972
2011-09-26T13:18:07.323761,8030,0.561419,-1.119477,6.728970,0.007087,0.087917,0.974632
2011-09-26T13:18:07.333761,8040,0.656086,-1.189463,6.720500,0.009345,0.086333,0.976292
2011-09-26T13:18:07.343761,8050,0.750752,-1.259448,6.712031,0.011603,0.084749,0.977952
2011-09-26T13:18:07.353761,8060,0.845419,-1.329433,6.703562,0.013861,0.083165,0.979612
2011-09-26T13:18:07.363761,8070,0.940085,-1.399418,6.695093,0.016119,0.081581,0.981272
2011-09-26T13:18:07.373761,8080,1.034752,-1.469404,6.686624,0.018377,0.079997,0.982931
2011-09-26T13:18:07.383761,8090,1.084737,-1.401876,6.694093,0.019274,0.080753,0.984977
2011-09-26T13:18:07.393761,8100,1.133756,-1.331370,6.701907,0.020140,0.081561,0.987031
2011-09-26T13:18:07.403761,8110,1.182774,-1.260865,6.709721,0.021007,0.082368,0.989085
2011-09-26T13:18:07.413761,8120,1.231792,-1.190360,6.717536,0.021873,0.083176,0.991139
2011-09-26T13:18:07.423761,8130,1.280810,-1.119854,6.725350,0.022740,0.083983,0.993193
2011-09-26T13:18:07.433761,8140,1.329829,-1.049349,6.733164,0.023607,0.084791,0.995247
2011-09-26T13:18:07.443761,8150,1.378847,-0.978844,6.740978,0.024473,0.085599,0.997301
2011-09-26T13:18:07.453761,8160,1.427865,-0.908338,6.748792,0.025340,0.086406,0.999355
2011-09-26T13:18:07.463761,8170,1.476883,-0.837833,6.756607,0.026206,0.087214,1.001409
2011-09-26T13:18:07.473761,8180,1.525902,-0.767328,6.764421,0.027073,0.088021,1.003463
2011-09-26T13:18:07.483761,8190,1.574920,-0.696822,6.772235,0.027940,0.088829,1.005517
2011-09-26T13:18:07.493761,8200,1.465512,-0.533766,6.759837,0.027478,0.093760,1.008519
2011-09-26T13:18:07.503761,8210,1.352936,-0.368859,6.747035,0.026991,0.098773,1.011541
2011-09-26T13:18:07.513761,8220,1.240360,-0.203952,6.734233,0.026503,0.103786,1.014562
2011-09-26T13:18:07.523761,8230,1.127784,-0.039045,6.721431,0.026015,0.108800,1.017583
2011-09-26T13:18:07.533761,8240,1.015208,0.125861,6.708629,0.025528,0.113813,1.020605
2011-09-26T13:18:07.543761,8250,0.902632,0.290768,6.695827,0.025040,0.118826,1.023626
2011-09-26T13:18:07.553761,8260,0.790056,0.455675,6.683024,0.024552,0.123840,1.026647
2011-09-26T13:18:07.563761,8270,0.677481,0.620582,6.670222,0.024065,0.128853,1.029669
2011-09-26T13:18:07.573761,8280,0.564905,0.785489,6.657420,0.023577,0.133866,1.032690
2011-09-26T13:18:07.583761,8290,0.452329,0.950396,6.644618,0.023089,0.138880,1.035711
2011-09-26T13:18:07.593761,8300,0.309750,1.027012,6.597278,0.022446,0.137754,1.036585
2011-09-26T13:18:07.603761,8310,0.166588,1.101909,6.549266,0.021800,0.136509,1.037417
2011-09-26T13:18:07.613761,8320,0.023426,1.176806,6.501253,0.021154,0.135264,1.038249
2011-09-26T13:18:07.623761,8330,-0.119737,1.251703,6.453241,0.020508,0.134019,1.039081
2011-09-26T13:18:07.633761,8340,-0.262899,1.326600,6.405229,0.019862,0.132774,1.039913
2011-09-26T13:18:07.643761,8350,-0.406061,1.401497,6.357216,0.019216,0.131529,1.040745
2011-09-26T13:18:07.653761,8360,-0.549224,1.476394,6.309204,0.018569,0.130284,1.041576
2011-09-26T13:18:07.663761,8370,-0.692386,1.551291,6.261191,0.017923,0.129039,1.042408
2011-09-26T13:18:07.673761,8380,-0.835548,1.626188,6.213179,0.017277,0.127793,1.043240
2011-09-26T13:18:07.683761,8390,-0.978711,1.701085,6.165167,0.016631,0.126548,1.044072
2011-09-26T13:18:07.693761,8400,-0.796702,1.657679,6.131562,0.016613,0.121060,1.037977
2011-09-26T13:18:07.703761,8410,-0.608192,1.611908,6.098246,0.016607,0.115486,1.031743
2011-09-26T13:18:07.713761,8420,-0.419682,1.566137,6.064930,0.016601,0.109912,1.025509
2011-09-26T13:18:07.723761,8430,-0.231172,1.520365,6.031614,0.016596,0.104338,1.019276
2011-09-26T13:18:07.733761,8440,-0.042661,1.474594,5.998297,0.016590,0.098765,1.013042
2011-09-26T13:18:07.743761,8450,0.145849,1.428823,5.964981,0.016584,0.093191,1.006808
2011-09-26T13:18:07.753761,8460,0.334359,1.383051,5.931665,0.016579,0.087617,1.000574
2011-09-26T13:18:07.763761,8470,0.522870,1.337280,5.898349,0.016573,0.082043,0.994341
2011-09-26T13:18:07.773761,8480,0.711380,1.291508,5.865032,0.016567,0.076470,0.988107
2011-09-26T13:18:07.783761,8490,0.899890,1.245737,5.831716,0.016562,0.070896,0.981873
2011-09-26T13:18:07.793761,8500,1.088401,1.199966,5.798400,0.016556,0.065322,0.975639
2011-09-26T13:18:07.803761,8510,1.085680,1.039408,5.777936,0.015820,0.067515,0.971106
2011-09-26T13:18:07.813761,8520,1.077043,0.875300,5.757870,0.015062,0.069948,0.966625
2011-09-26T13:18:07.823761,8530,1.068407,0.711192,5.737804,0.014304,0.072381,0.962145
2011-09-26T13:18:07.833761,8540,1.059770,0.547084,5.717737,0.013546,0.074814,0.957664
2011-09-26T13:18:07.843761,8550,1.051134,0.382975,5.697671,0.012788,0.077246,0.953183
2011-09-26T13:18:07.853761,8560,1.042497,0.218867,5.677605,0.012029,0.079679,0.948703
2011-09-26T13:18:07.863761,8570,1.033861,0.054759,5.657539,0.011271,0.082112,0.944222
2011-09-26T13:18:07.873761,8580,1.025224,-0.109349,5.637473,0.010513,0.084545,0.939741
2011-09-26T13:18:07.883761,8590,1.016588,-0.273457,5.617407,0.009755,0.086978,0.935261
2011-09-26T13:18:07.893761,8600,1.007952,-0.437565,5.597340,0.008996,0.089411,0.930780
2011-09-26T13:18:07.903761,8610,0.937321,-0.514847,5.531223,0.009712,0.090672,0.937905
2011-09-26T13:18:07.913761,8620,0.864237,-0.588691,5.463282,0.010486,0.091887,0.945491
2011-09-26T13:18:07.923761,8630,0.791152,-0.662535,5.395341,0.011260,0.093102,0.953076
2011-09-26T13:18:07.933761,8640,0.718067,-0.736378,5.327400,0.012034,0.094318,0.960661
2011-09-26T13:18:07.943761,8650,0.644983,-0.810222,5.259459,0.012808,0.095533,0.968246
2011-09-26T13:18:07.953761,8660,0.571898,-0.884066,5.191519,0.013582,0.096748,0.975831
2011-09-26T13:18:07.963761,8670,0.498813,-0.957910,5.123578,0.014356,0.097963,0.983417
2011-09-26T13:18:07.973761,8680,0.425728,-1.031754,5.055637,0.015130,0.099178,0.991002
2011-09-26T13:18:07.983761,8690,0.352644,-1.105597,4.987696,0.015904,0.100393,0.998587
2011-09-26T13:18:07.993761,8700,0.279559,-1.179441,4.919755,0.016679,0.101609,1.006172
2011-09-26T13:18:08.003761,8710,0.206474,-1.253285,4.851814,0.017453,0.102824,1.013757
2011-09-26T13:18:08.013761,8720,0.107740,-1.199440,4.799336,0.017030,0.099947,1.010942
2011-09-26T13:18:08.023761,8730,0.008561,-1.143385,4.747125,0.016586,0.097000,1.007947
2011-09-26T13:18:08.033761,8740,-0.090618,-1.087330,4.694914,0.016142,0.094053,1.004952
2011-09-26T13:18:08.043761,8750,-0.189797,-1.031274,4.642703,0.015699,0.091106,1.001957
2011-09-26T13:18:08.053761,8760,-0.288976,-0.975219,4.590492,0.015255,0.088159,0.998961
2011-09-26T13:18:08.063761,8770,-0.388155,-0.919164,4.538281,0.014811,0.085212,0.995966
2011-09-26T13:18:08.073761,8780,-0.487333,-0.863108,4.486070,0.014368,0.082265,0.992971
2011-09-26T13:18:08.083761,8790,-0.586512,-0.807053,4.433859,0.013924,0.079318,0.989976
2011-09-26T13:18:08.093761,8800,-0.685691,-0.750998,4.381648,0.013480,0.076371,0.986981
2011-09-26T13:18:08.103761,8810,-0.784870,-0.694943,4.329437,0.013037,0.073424,0.983985
2011-09-26T13:18:08.113761,8820,-0.628505,-0.702360,4.295979,0.014388,0.070339,0.987490
2011-09-26T13:18:08.123761,8830,-0.465240,-0.711491,4.263028,0.015787,0.067249,0.991170
2011-09-26T13:18:08.133761,8840,-0.301975,-0.720622,4.230077,0.017186,0.064159,0.994851
2011-09-26T13:18:08.143761,8850,-0.138710,-0.729754,4.197126,0.018586,0.061070,0.998531
2011-09-26T13:18:08.153761,8860,0.024555,-0.738885,4.164175,0.019985,0.057980,1.002212
2011-09-26T13:18:08.163761,8870,0.187820,-0.748016,4.131224,0.021385,0.054890,1.005892
2011-09-26T13:18:08.173761,8880,0.351085,-0.757147,4.098273,0.022784,0.051801,1.009572
2011-09-26T13:18:08.183761,8890,0.514351,-0.766279,4.065322,0.024183,0.048711,1.013253
2011-09-26T13:18:08.193761,8900,0.677616,-0.775410,4.032371,0.025583,0.045622,1.016933
2011-09-26T13:18:08.203761,8910,0.840881,-0.784541,3.999420,0.026982,0.042532,1.020613
2011-09-26T13:18:08.213761,8920,0.796561,-0.725369,3.963519,0.026806,0.046133,1.018277
2011-09-26T13:18:08.223761,8930,0.742711,-0.663062,3.927482,0.026557,0.050042,1.015665
2011-09-26T13:18:08.233761,8940,0.688861,-0.600754,3.891445,0.026308,0.053950,1.013053
2011-09-26T13:18:08.243761,8950,0.635010,-0.538446,3.855409,0.026059,0.057859,1.010440
2011-09-26T13:18:08.253761,8960,0.581160,-0.476138,3.819372,0.025810,0.061767,1.007828
2011-09-26T13:18:08.263761,8970,0.527310,-0.413831,3.783335,0.025561,0.065676,1.005216
2011-09-26T13:18:08.273761,8980,0.473460,-0.351523,3.747298,0.025312,0.069584,1.002603
2011-09-26T13:18:08.283761,8990,0.419609,-0.289215,3.711262,0.025063,0.073492,0.999991
2011-09-26T13:18:08.293761,9000,0.365759,-0.226907,3.675225,0.024814,0.077401,0.997379
2011-09-26T13:18:08.303761,9010,0.311909,-0.164600,3.639188,0.024565,0.081309,0.994766
2011-09-26T13:18:08.313761,9020,0.258059,-0.102292,3.603151,0.024316,0.085218,0.992154
2011-09-26T13:18:08.323761,9030,0.209492,-0.060018,3.509241,0.024670,0.084034,0.993782
2011-09-26T13:18:08.333761,9040,0.161053,-0.018230,3.413925,0.025039,0.082727,0.995513
2011-09-26T13:18:08.343761,9050,0.112615,0.023557,3.318610,0.025408,0.081420,0.997245
2011-09-26T13:18:08.353761,9060,0.064176,0.065345,3.223294,0.025776,0.080113,0.998976
2011-09-26T13:18:08.363761,9070,0.015738,0.107132,3.127979,0.026145,0.078806,1.000707
2011-09-26T13:18:08.373761,9080,-0.032701,0.148919,3.032663,0.026513,0.077498,1.002438
2011-09-26T13:18:08.383761,9090,-0.081139,0.190707,2.937347,0.026882,0.076191,1.004169
2011-09-26T13:18:08.393761,9100,-0.129578,0.232494,2.842032,0.027251,0.074884,1.005901
2011-09-26T13:18:08.403761,9110,-0.178016,0.274282,2.746716,0.027619,0.073577,1.007632
2011-09-26T13:18:08.413761,9120,-0.226455,0.316069,2.651401,0.027988,0.072270,1.009363
2011-09-26T13:18:08.423761,9130,-0.242275,0.346218,2.598557,0.027357,0.068896,1.009521
2011-09-26T13:18:08.433761,9140,-0.257392,0.376116,2.546629,0.026706,0.065477,1.009644
2011-09-26T13:18:08.443761,9150,-0.272509,0.406014,2.494700,0.026054,0.062058,1.009768
2011-09-26T13:18:08.453761,9160,-0.287626,0.435912,2.442772,0.025402,0.058639,1.009892
2011-09-26T13:18:08.463761,9170,-0.302743,0.465810,2.390844,0.024750,0.055221,1.010015
2011-09-26T13:18:08.473761,9180,-0.317860,0.495708,2.338915,0.024099,0.051802,1.010139
2011-09-26T13:18:08.483761,9190,-0.332977,0.525606,2.286987,0.023447,0.048383,1.010263
2011-09-26T13:18:08.493761,9200,-0.348094,0.555504,2.235059,0.022795,0.044964,1.010386
2011-09-26T13:18:08.503761,9210,-0.363211,0.585402,2.183130,0.022143,0.041546,1.010510
2011-09-26T13:18:08.513761,9220,-0.378328,0.615300,2.131202,0.021491,0.038127,1.010634
2011-09-26T13:18:08.523761,9230,-0.368808,0.615482,2.079875,0.022259,0.039603,1.008178
2011-09-26T13:18:08.533761,9240,-0.358747,0.615012,2.028560,0.023058,0.041186,1.005665
2011-09-26T13:18:08.543761,9250,-0.348685,0.614541,1.977246,0.023857,0.042769,1.003153
2011-09-26T13:18:08.553761,9260,-0.338623,0.614071,1.925932,0.024656,0.044353,1.000640
2011-09-26T13:18:08.563761,9270,-0.328562,0.613600,1.874618,0.025455,0.045936,0.998127
2011-09-26T13:18:08.573761,9280,-0.318500,0.613130,1.823304,0.026254,0.047520,0.995615
2011-09-26T13:18:08.583761,9290,-0.308439,0.612659,1.771990,0.027054,0.049103,0.993102
2011-09-26T13:18:08.593761,9300,-0.298377,0.612189,1.720676,0.027853,0.050686,0.990590
2011-09-26T13:18:08.603761,9310,-0.288315,0.611718,1.669361,0.028652,0.052270,0.988077
2011-09-26T13:18:08.613761,9320,-0.278254,0.611248,1.618047,0.029451,0.053853,0.985564
2011-09-26T13:18:08.623761,9330,-0.268192,0.610777,1.566733,0.030250,0.055436,0.983052
2011-09-26T13:18:08.633761,9340,-0.355968,0.656927,1.519970,0.029917,0.055859,0.985568
2011-09-26T13:18:08.643761,9350,-0.446584,0.704430,1.473338,0.029551,0.056248,0.988231
2011-09-26T13:18:08.653761,9360,-0.537199,0.751933,1.426707,0.029185,0.056637,0.990894
2011-09-26T13:18:08.663761,9370,-0.627814,0.799435,1.380075,0.028819,0.057025,0.993556
2011-09-26T13:18:08.673761,9380,-0.718430,0.846938,1.333444,0.028453,0.057414,0.996219
2011-09-26T13:18:08.683761,9390,-0.809045,0.894441,1.286812,0.028087,0.057803,0.998881
2011-09-26T13:18:08.693761,9400,-0.899660,0.941944,1.240181,0.027721,0.058192,1.001544
2011-09-26T13:18:08.703761,9410,-0.990275,0.989446,1.193549,0.027355,0.058581,1.004207
2011-09-26T13:18:08.713761,9420,-1.080891,1.036949,1.146918,0.026990,0.058969,1.006869
2011-09-26T13:18:08.723761,9430,-1.171506,1.084452,1.100286,0.026624,0.059358,1.009532
2011-09-26T13:18:08.733761,9440,-1.205977,1.038187,1.061492,0.025748,0.056291,1.006495
2011-09-26T13:18:08.743761,9450,-1.238566,0.988780,1.022960,0.024855,0.053108,1.003267
2011-09-26T13:18:08.753761,9460,-1.271156,0.939373,0.984428,0.023962,0.049925,1.000040
2011-09-26T13:18:08.763761,9470,-1.303746,0.889966,0.945897,0.023070,0.046742,0.996812
2011-09-26T13:18:08.773761,9480,-1.336335,0.840559,0.907365,0.022177,0.043559,0.993585
2011-09-26T13:18:08.783761,9490,-1.368925,0.791152,0.868833,0.021284,0.040377,0.990357
2011-09-26T13:18:08.793761,9500,-1.401514,0.741745,0.830301,0.020391,0.037194,0.987129
2011-09-26T13:18:08.803761,9510,-1.434104,0.692338,0.791769,0.019498,0.034011,0.983902
2011-09-26T13:18:08.813761,9520,-1.466693,0.642931,0.753238,0.018606,0.030828,0.980674
2011-09-26T13:18:08.823761,9530,-1.499283,0.593523,0.714706,0.017713,0.027645,0.977446
2011-09-26T13:18:08.833761,9540,-1.530737,0.548945,0.717980,0.016635,0.027151,0.972005
2011-09-26T13:18:08.843761,9550,-1.562157,0.504515,0.722535,0.015551,0.026740,0.966495
2011-09-26T13:18:08.853761,9560,-1.593577,0.460085,0.727089,0.014468,0.026329,0.960986
2011-09-26T13:18:08.863761,9570,-1.624997,0.415654,0.731644,0.013384,0.025917,0.955477
2011-09-26T13:18:08.873761,9580,-1.656416,0.371224,0.736199,0.012300,0.025506,0.949967
2011-09-26T13:18:08.883761,9590,-1.687836,0.326794,0.740753,0.011217,0.025095,0.944458
2011-09-26T13:18:08.893761,9600,-1.719256,0.282363,0.745308,0.010133,0.024683,0.938949
2011-09-26T13:18:08.903761,9610,-1.750675,0.237933,0.749862,0.009049,0.024272,0.933439
2011-09-26T13:18:08.913761,9620,-1.782095,0.193503,0.754417,0.007966,0.023861,0.927930
2011-09-26T13:18:08.923761,9630,-1.813515,0.149073,0.758971,0.006882,0.023450,0.922421
2011-09-26T13:18:08.933761,9640,-1.844934,0.104642,0.763526,0.005798,0.023038,0.916911
2011-09-26T13:18:08.943761,9650,-1.753637,0.066991,0.756972,0.005192,0.023533,0.925232
2011-09-26T13:18:08.953761,9660,-1.659397,0.029503,0.750153,0.004596,0.024050,0.933884
2011-09-26T13:18:08.963761,9670,-1.565157,-0.007986,0.743333,0.004001,0.024567,0.942537
2011-09-26T13:18:08.973761,9680,-1.470917,-0.045474,0.736513,0.003406,0.025084,0.951189
2011-09-26T13:18:08.983761,9690,-1.376677,-0.082963,0.729694,0.002810,0.025601,0.959842
2011-09-26T13:18:08.993761,9700,-1.282437,-0.120451,0.722874,0.002215,0.026118,0.968494
2011-09-26T13:18:09.003761,9710,-1.188197,-0.157940,0.716055,0.001620,0.026635,0.977147
2011-09-26T13:18:09.013761,9720,-1.093958,-0.195428,0.709235,0.001025,0.027152,0.985799
2011-09-26T13:18:09.023761,9730,-0.999718,-0.232917,0.702415,0.000429,0.027669,0.994452
2011-09-26T13:18:09.033761,9740,-0.905478,-0.270405,0.695596,-0.000166,0.028186,1.003104
2011-09-26T13:18:09.043761,9750,-0.852211,-0.262977,0.698898,-0.000838,0.027103,1.006170
2011-09-26T13:18:09.053761,9760,-0.799702,-0.254716,0.702387,-0.001511,0.025991,1.009131
2011-09-26T13:18:09.063761,9770,-0.747194,-0.246456,0.705877,-0.002184,0.024878,1.012093
2011-09-26T13:18:09.073761,9780,-0.694686,-0.238195,0.709367,-0.002858,0.023766,1.015055
2011-09-26T13:18:09.083761,9790,-0.642177,-0.229935,0.712856,-0.003531,0.022653,1.018017
2011-09-26T13:18:09.093761,9800,-0.589669,-0.221674,0.716346,-0.004204,0.021540,1.020979
2011-09-26T13:18:09.103761,9810,-0.537161,-0.213414,0.719835,-0.004877,0.020428,1.023941
2011-09-26T13:18:09.113761,9820,-0.484652,-0.205153,0.723325,-0.005551,0.019315,1.026903
2011-09-26T13:18:09.123761,9830,-0.432144,-0.196893,0.726815,-0.006224,0.018202,1.029865
2011-09-26T13:18:09.133761,9840,-0.379636,-0.188632,0.730304,-0.006897,0.017090,1.032827
2011-09-26T13:18:09.143761,9850,-0.327128,-0.180372,0.733794,-0.007571,0.015977,1.035789
2011-09-26T13:18:09.153761,9860,-0.341059,-0.176649,0.723414,-0.009134,0.017006,1.034190
2011-09-26T13:18:09.163761,9870,-0.356715,-0.173045,0.712675,-0.010721,0.018090,1.032472
2011-09-26T13:18:09.173761,9880,-0.372370,-0.169440,0.701935,-0.012308,0.019175,1.030755
2011-09-26T13:18:09.183761,9890,-0.388026,-0.165836,0.691196,-0.013894,0.020259,1.029038
2011-09-26T13:18:09.193761,9900,-0.403681,-0.162231,0.680456,-0.015481,0.021343,1.027320
2011-09-26T13:18:09.203761,9910,-0.419337,-0.158627,0.669717,-0.017068,0.022428,1.025603
2011-09-26T13:18:09.213761,9920,-0.434992,-0.155022,0.658977,-0.018655,0.023512,1.023885
2011-09-26T13:18:09.223761,9930,-0.450648,-0.151418,0.648238,-0.020241,0.024596,1.022168
2011-09-26T13:18:09.233761,9940,-0.466303,-0.147813,0.637498,-0.021828,0.025680,1.020450
2011-09-26T13:18:09.243761,9950,-0.481959,-0.144209,0.626759,-0.023415,0.026765,1.018733
2011-09-26T13:18:09.253761,9960,-0.416576,-0.176243,0.597346,-0.022891,0.025864,1.014946
2011-09-26T13:18:09.263761,9970,-0.347355,-0.209966,0.567050,-0.022268,0.024870,1.011060
2011-09-26T13:18:09.273761,9980,-0.278134,-0.243688,0.536754,-0.021645,0.023876,1.007175
2011-09-26T13:18:09.283761,9990,-0.208913,-0.277410,0.506457,-0.021021,0.022881,1.003290
2011-09-26T13:18:09.293761,10000,-0.139692,-0.311132,0.476161,-0.020398,0.021887,0.999404
2011-09-26T13:18:09.303761,10010,-0.070471,-0.344854,0.445864,-0.019775,0.020893,0.995519
2011-09-26T13:18:09.313761,10020,-0.001250,-0.378577,0.415568,-0.019151,0.019898,0.991634
2011-09-26T13:18:09.323761,10030,0.067971,-0.412299,0.385271,-0.018528,0.018904,0.987748
2011-09-26T13:18:09.333761,10040,0.137192,-0.446021,0.354975,-0.017905,0.017910,0.983863
2011-09-26T13:18:09.343761,10050,0.206413,-0.479743,0.324678,-0.017281,0.016916,0.979978
2011-09-26T13:18:09.353761,10060,0.217972,-0.461917,0.316693,-0.017739,0.016388,0.981821
2011-09-26T13:18:09.363761,10070,0.227870,-0.442605,0.309351,-0.018227,0.015874,0.983830
2011-09-26T13:18:09.373761,10080,0.237768,-0.423293,0.302008,-0.018716,0.015360,0.985839
2011-09-26T13:18:09.383761,10090,0.247665,-0.403982,0.294666,-0.019205,0.014846,0.987847
2011-09-26T13:18:09.393761,10100,0.257563,-0.384670,0.287323,-0.019693,0.014331,0.989856
2011-09-26T13:18:09.403761,10110,0.267461,-0.365359,0.279981,-0.020182,0.013817,0.991865
2011-09-26T13:18:09.413761,10120,0.277359,-0.346047,0.272639,-0.020671,0.013303,0.993873
2011-09-26T13:18:09.423761,10130,0.287256,-0.326736,0.265296,-0.021159,0.012789,0.995882
2011-09-26T13:18:09.433761,10140,0.297154,-0.307424,0.257954,-0.021648,0.012275,0.997891
2011-09-26T13:18:09.443761,10150,0.307052,-0.288112,0.250612,-0.022137,0.011761,0.999900
2011-09-26T13:18:09.453761,10160,0.316950,-0.268801,0.243269,-0.022625,0.011247,1.001908
2011-09-26T13:18:09.463761,10170,0.303034,-0.224455,0.226892,-0.023196,0.011614,1.003927
2011-09-26T13:18:09.473761,10180,0.288652,-0.179619,0.210338,-0.023769,0.011998,1.005946
2011-09-26T13:18:09.483761,10190,0.274269,-0.134783,0.193783,-0.024341,0.012383,1.007966
2011-09-26T13:18:09.493761,10200,0.259887,-0.089947,0.177229,-0.024913,0.012767,1.009985
2011-09-26T13:18:09.503761,10210,0.245505,-0.045111,0.160675,-0.025486,0.013152,1.012004
2011-09-26T13:18:09.513761,10220,0.231122,-0.000275,0.144121,-0.026058,0.013537,1.014023
2011-09-26T13:18:09.523761,10230,0.216740,0.044561,0.127566,-0.026631,0.013921,1.016042
2011-09-26T13:18:09.533761,10240,0.202358,0.089397,0.111012,-0.027203,0.014306,1.018061
2011-09-26T13:18:09.543761,10250,0.187975,0.134233,0.094458,-0.027776,0.014690,1.020081
2011-09-26T13:18:09.553761,10260,0.173593,0.179069,0.077904,-0.028348,0.015075,1.022100
2011-09-26T13:18:09.563761,10270,0.190634,0.219714,0.057848,-0.028478,0.014956,1.020871
2011-09-26T13:18:09.573761,10280,0.208680,0.260224,0.037680,-0.028593,0.014821,1.019539
2011-09-26T13:18:09.583761,10290,0.226727,0.300735,0.017512,-0.028709,0.014685,1.018207
2011-09-26T13:18:09.593761,10300,0.244773,0.341246,-0.002656,-0.028824,0.014550,1.016874
2011-09-26T13:18:09.603761,10310,0.262820,0.381756,-0.022824,-0.028940,0.014415,1.015542
2011-09-26T13:18:09.613761,10320,0.280866,0.422267,-0.042992,-0.029055,0.014280,1.014209
2011-09-26T13:18:09.623761,10330,0.298912,0.462778,-0.063160,-0.029170,0.014145,1.012877
2011-09-26T13:18:09.633761,10340,0.316959,0.503288,-0.083327,-0.029286,0.014010,1.011545
2011-09-26T13:18:09.643761,10350,0.335005,0.543799,-0.103495,-0.029401,0.013875,1.010212
2011-09-26T13:18:09.653761,10360,0.353051,0.584310,-0.123663,-0.029517,0.013740,1.008880
2011-09-26T13:18:09.663761,10370,0.371098,0.624820,-0.143831,-0.029632,0.013604,1.007548
2011-09-26T13:18:09.673761,10380,0.266935,0.609762,-0.145125,-0.030379,0.015286,1.005904
2011-09-26T13:18:09.683761,10390,0.158747,0.592874,-0.145797,-0.031147,0.017027,1.004249
2011-09-26T13:18:09.693761,10400,0.050560,0.575986,-0.146468,-0.031915,0.018768,1.002595
2011-09-26T13:18:09.703761,10410,-0.057628,0.559098,-0.147140,-0.032683,0.020509,1.000941
2011-09-26T13:18:09.713761,10420,-0.165816,0.542211,-0.147812,-0.033451,0.022251,0.999286
2011-09-26T13:18:09.723761,10430,-0.274004,0.525323,-0.148484,-0.034219,0.023992,0.997632
2011-09-26T13:18:09.733761,10440,-0.382192,0.508435,-0.149156,-0.034986,0.025733,0.995978
2011-09-26T13:18:09.743761,10450,-0.490379,0.491547,-0.149828,-0.035754,0.027474,0.994324
2011-09-26T13:18:09.753761,10460,-0.598567,0.474659,-0.150500,-0.036522,0.029215,0.992669
2011-09-26T13:18:09.763761,10470,-0.706755,0.457771,-0.151172,-0.037290,0.030956,0.991015
2011-09-26T13:18:09.773761,10480,-0.687501,0.438942,-0.179764,-0.037195,0.029443,0.989976
2011-09-26T13:18:09.783761,10490,-0.663668,0.420043,-0.209359,-0.037069,0.027812,0.988959
2011-09-26T13:18:09.793761,10500,-0.639835,0.401144,-0.238954,-0.036942,0.026182,0.987941
2011-09-26T13:18:09.803761,10510,-0.616001,0.382245,-0.268550,-0.036816,0.024551,0.986924
2011-09-26T13:18:09.813761,10520,-0.592168,0.363346,-0.298145,-0.036690,0.022921,0.985907
2011-09-26T13:18:09.823761,10530,-0.568334,0.344448,-0.327740,-0.036564,0.021291,0.984890
2011-09-26T13:18:09.833761,10540,-0.544501,0.325549,-0.357336,-0.036437,0.019660,0.983873
2011-09-26T13:18:09.843761,10550,-0.520668,0.306650,-0.386931,-0.036311,0.018030,0.982855
2011-09-26T13:18:09.853761,10560,-0.496834,0.287751,-0.416526,-0.036185,0.016399,0.981838
2011-09-26T13:18:09.863761,10570,-0.473001,0.268852,-0.446122,-0.036059,0.014769,0.980821
2011-09-26T13:18:09.873761,10580,-0.474465,0.260384,-0.437029,-0.036518,0.013466,0.982316
2011-09-26T13:18:09.883761,10590,-0.476538,0.252166,-0.427005,-0.036992,0.012171,0.983871
2011-09-26T13:18:09.893761,10600,-0.478611,0.243948,-0.416980,-0.037465,0.010875,0.985426
2011-09-26T13:18:09.903761,10610,-0.480684,0.235730,-0.406956,-0.037939,0.009580,0.986981
2011-09-26T13:18:09.913761,10620,-0.482757,0.227512,-0.396932,-0.038413,0.008285,0.988536
2011-09-26T13:18:09.923761,10630,-0.484830,0.219295,-0.386907,-0.038886,0.006990,0.990091
2011-09-26T13:18:09.933761,10640,-0.486903,0.211077,-0.376883,-0.039360,0.005695,0.991646
2011-09-26T13:18:09.943761,10650,-0.488976,0.202859,-0.366859,-0.039834,0.004400,0.993201
2011-09-26T13:18:09.953761,10660,-0.491049,0.194641,-0.356834,-0.040307,0.003105,0.994756
2011-09-26T13:18:09.963761,10670,-0.493122,0.186423,-0.346810,-0.040781,0.001810,0.996311
2011-09-26T13:18:09.973761,10680,-0.511047,0.164038,-0.357142,-0.040720,0.002734,0.996356
2011-09-26T13:18:09.983761,10690,-0.529385,0.141284,-0.368005,-0.040645,0.003716,0.996362
2011-09-26T13:18:09.993761,10700,-0.547723,0.118529,-0.378867,-0.040570,0.004698,0.996367
2011-09-26T13:18:10.003761,10710,-0.566062,0.095775,-0.389729,-0.040495,0.005681,0.996373
2011-09-26T13:18:10.013761,10720,-0.584400,0.073021,-0.400592,-0.040421,0.006663,0.996378
2011-09-26T13:18:10.023761,10730,-0.602738,0.050266,-0.411454,-0.040346,0.007645,0.996384
2011-09-26T13:18:10.033761,10740,-0.621076,0.027512,-0.422316,-0.040271,0.008627,0.996389
2011-09-26T13:18:10.043761,10750,-0.639414,0.004757,-0.433179,-0.040196,0.009609,0.996394
2011-09-26T13:18:10.053761,10760,-0.657753,-0.017997,-0.444041,-0.040121,0.010592,0.996400
2011-09-26T13:18:10.063761,10770,-0.676091,-0.040751,-0.454903,-0.040046,0.011574,0.996405
2011-09-26T13:18:10.073761,10780,-0.694429,-0.063506,-0.465766,-0.039971,0.012556,0.996411
2011-09-26T13:18:10.083761,10790,-0.707701,-0.049944,-0.474316,-0.039916,0.012258,0.995767
2011-09-26T13:18:10.093761,10800,-0.720825,-0.035316,-0.482799,-0.039862,0.011922,0.995105
2011-09-26T13:18:10.103761,10810,-0.733948,-0.020689,-0.491281,-0.039807,0.011587,0.994443
2011-09-26T13:18:10.113761,10820,-0.747072,-0.006062,-0.499763,-0.039752,0.011251,0.993780
2011-09-26T13:18:10.123761,10830,-0.760195,0.008565,-0.508246,-0.039698,0.010915,0.993118
2011-09-26T13:18:10.133761,10840,-0.773319,0.023192,-0.516728,-0.039643,0.010580,0.992456
2011-09-26T13:18:10.143761,10850,-0.786442,0.037820,-0.525211,-0.039588,0.010244,0.991793
2011-09-26T13:18:10.153761,10860,-0.799566,0.052447,-0.533693,-0.039533,0.009908,0.991131
2011-09-26T13:18:10.163761,10870,-0.812689,0.067074,-0.542176,-0.039479,0.009573,0.990468
2011-09-26T13:18:10.173761,10880,-0.825813,0.081701,-0.550658,-0.039424,0.009237,0.989806
2011-09-26T13:18:10.183761,10890,-0.786380,0.075885,-0.536315,-0.039065,0.008099,0.991073
2011-09-26T13:18:10.193761,10900,-0.745400,0.069467,-0.521300,-0.038696,0.006937,0.992396
2011-09-26T13:18:10.203761,10910,-0.704420,0.063049,-0.506285,-0.038328,0.005775,0.993720
2011-09-26T13:18:10.213761,10920,-0.663441,0.056631,-0.491270,-0.037959,0.004614,0.995044
2011-09-26T13:18:10.223761,10930,-0.622461,0.050213,-0.476254,-0.037591,0.003452,0.996367
2011-09-26T13:18:10.233761,10940,-0.581481,0.043796,-0.461239,-0.037222,0.002291,0.997691
2011-09-26T13:18:10.243761,10950,-0.540502,0.037378,-0.446224,-0.036854,0.001129,0.999014
2011-09-26T13:18:10.253761,10960,-0.499522,0.030960,-0.431209,-0.036485,-0.000033,1.000338
2011-09-26T13:18:10.263761,10970,-0.458542,0.024542,-0.416194,-0.036117,-0.001194,1.001661
2011-09-26T13:18:10.273761,10980,-0.417563,0.018124,-0.401179,-0.035749,-0.002356,1.002985
2011-09-26T13:18:10.283761,10990,-0.376583,0.011706,-0.386164,-0.035380,-0.003518,1.004308
2011-09-26T13:18:10.293761,11000,-0.292971,0.050095,-0.390992,-0.035798,-0.003600,1.005362
2011-09-26T13:18:10.303761,11010,-0.207744,0.090181,-0.396572,-0.036246,-0.003641,1.006405
2011-09-26T13:18:10.313761,11020,-0.122518,0.130268,-0.402152,-0.036693,-0.003682,1.007448
2011-09-26T13:18:10.323761,11030,-0.037291,0.170354,-0.407732,-0.037141,-0.003724,1.008492
2011-09-26T13:18:10.333761,11040,0.047936,0.210440,-0.413312,-0.037589,-0.003765,1.009535
2011-09-26T13:18:10.343761,11050,0.133163,0.250526,-0.418891,-0.038036,-0.003806,1.010578
2011-09-26T13:18:10.353761,11060,0.218390,0.290613,-0.424471,-0.038484,-0.003847,1.011621
2011-09-26T13:18:10.363761,11070,0.303616,0.330699,-0.430051,-0.038932,-0.003889,1.012664
2011-09-26T13:18:10.373761,11080,0.388843,0.370785,-0.435631,-0.039379,-0.003930,1.013708
2011-09-26T13:18:10.383761,11090,0.474070,0.410872,-0.441211,-0.039827,-0.003971,1.014751
2011-09-26T13:18:10.393761,11100,0.490428,0.440434,-0.437577,-0.039905,-0.003302,1.012604
2011-09-26T13:18:10.403761,11110,0.504326,0.469621,-0.433614,-0.039971,-0.002607,1.010344
2011-09-26T13:18:10.413761,11120,0.518224,0.498808,-0.429651,-0.040036,-0.001912,1.008083
2011-09-26T13:18:10.423761,11130,0.532121,0.527995,-0.425688,-0.040101,-0.001217,1.005823
2011-09-26T13:18:10.433761,11140,0.546019,0.557182,-0.421725,-0.040166,-0.000522,1.003562
2011-09-26T13:18:10.443761,11150,0.559917,0.586368,-0.417762,-0.040232,0.000173,1.001302
2011-09-26T13:18:10.453761,11160,0.573815,0.615555,-0.413799,-0.040297,0.000867,0.999041
2011-09-26T13:18:10.463761,11170,0.587712,0.644742,-0.409836,-0.040362,0.001562,0.996781
2011-09-26T13:18:10.473761,11180,0.601610,0.673929,-0.405873,-0.040427,0.002257,0.994520
2011-09-26T13:18:10.483761,11190,0.615508,0.703116,-0.401910,-0.040492,0.002952,0.992260
2011-09-26T13:18:10.493761,11200,0.678523,0.656613,-0.393896,-0.040596,0.002753,0.991871
2011-09-26T13:18:10.503761,11210,0.743006,0.607849,-0.385761,-0.040701,0.002527,0.991537
2011-09-26T13:18:10.513761,11220,0.807488,0.559085,-0.377626,-0.040805,0.002300,0.991204
2011-09-26T13:18:10.523761,11230,0.871971,0.510321,-0.369492,-0.040910,0.002074,0.990871
2011-09-26T13:18:10.533761,11240,0.936453,0.461557,-0.361357,-0.041014,0.001848,0.990537
2011-09-26T13:18:10.543761,11250,1.000936,0.412793,-0.353222,-0.041119,0.001622,0.990204
2011-09-26T13:18:10.553761,11260,1.065419,0.364029,-0.345087,-0.041224,0.001396,0.989871
2011-09-26T13:18:10.563761,11270,1.129901,0.315265,-0.336953,-0.041328,0.001170,0.989538
2011-09-26T13:18:10.573761,11280,1.194384,0.266502,-0.328818,-0.041433,0.000944,0.989204
2011-09-26T13:18:10.583761,11290,1.258866,0.217738,-0.320683,-0.041538,0.000718,0.988871
2011-09-26T13:18:10.593761,11300,1.323349,0.168974,-0.312549,-0.041642,0.000492,0.988538
2011-09-26T13:18:10.603761,11310,1.312514,0.082657,-0.301433,-0.040648,0.001439,0.988265
2011-09-26T13:18:10.613761,11320,1.298237,-0.005377,-0.290181,-0.039603,0.002439,0.987995
2011-09-26T13:18:10.623761,11330,1.283960,-0.093410,-0.278928,-0.038558,0.003440,0.987724
2011-09-26T13:18:10.633761,11340,1.269683,-0.181443,-0.267676,-0.037513,0.004440,0.987454
2011-09-26T13:18:10.643761,11350,1.255406,-0.269477,-0.256424,-0.036468,0.005441,0.987184
2011-09-26T13:18:10.653761,11360,1.241129,-0.357510,-0.245172,-0.035423,0.006442,0.986914
2011-09-26T13:18:10.663761,11370,1.226852,-0.445543,-0.233920,-0.034378,0.007442,0.986644
2011-09-26T13:18:10.673761,11380,1.212575,-0.533577,-0.222668,-0.033333,0.008443,0.986374
2011-09-26T13:18:10.683761,11390,1.198298,-0.621610,-0.211415,-0.032288,0.009443,0.986103
2011-09-26T13:18:10.693761,11400,1.184021,-0.709643,-0.200163,-0.031243,0.010444,0.985833
2011-09-26T13:18:10.703761,11410,1.173874,-0.744626,-0.187347,-0.027902,0.011912,0.986091
2011-09-26T13:18:10.713761,11420,1.163955,-0.776681,-0.174444,-0.024433,0.013405,0.986378
2011-09-26T13:18:10.723761,11430,1.154036,-0.808736,-0.161541,-0.020964,0.014898,0.986665
2011-09-26T13:18:10.733761,11440,1.144117,-0.840791,-0.148638,-0.017496,0.016391,0.986951
2011-09-26T13:18:10.743761,11450,1.134197,-0.872846,-0.135735,-0.014027,0.017885,0.987238
2011-09-26T13:18:10.753761,11460,1.124278,-0.904901,-0.122832,-0.010558,0.019378,0.987525
2011-09-26T13:18:10.763761,11470,1.114359,-0.936955,-0.109929,-0.007090,0.020871,0.987812
2011-09-26T13:18:10.773761,11480,1.104440,-0.969010,-0.097026,-0.003621,0.022364,0.988099
2011-09-26T13:18:10.783761,11490,1.094521,-1.001065,-0.084123,-0.000152,0.023858,0.988386
2011-09-26T13:18:10.793761,11500,1.084601,-1.033120,-0.071221,0.003317,0.025351,0.988673
2011-09-26T13:18:10.803761,11510,1.013511,-1.038537,-0.046650,0.005085,0.025466,0.989672
2011-09-26T13:18:10.813761,11520,0.939045,-1.042484,-0.021435,0.006759,0.025505,0.990712
2011-09-26T13:18:10.823761,11530,0.864578,-1.046430,0.003781,0.008434,0.025544,0.991751
2011-09-26T13:18:10.833761,11540,0.790111,-1.050377,0.028996,0.010108,0.025583,0.992790
2011-09-26T13:18:10.843761,11550,0.715644,-1.054323,0.054211,0.011783,0.025621,0.993830
2011-09-26T13:18:10.853761,11560,0.641177,-1.058270,0.079426,0.013457,0.025660,0.994869
2011-09-26T13:18:10.863761,11570,0.566710,-1.062216,0.104641,0.015131,0.025699,0.995908
2011-09-26T13:18:10.873761,11580,0.492243,-1.066163,0.129856,0.016806,0.025738,0.996948
2011-09-26T13:18:10.883761,11590,0.417776,-1.070109,0.155071,0.018480,0.025777,0.997987
2011-09-26T13:18:10.893761,11600,0.343309,-1.074056,0.180286,0.020155,0.025816,0.999026
2011-09-26T13:18:10.903761,11610,0.268842,-1.078002,0.205501,0.021829,0.025855,1.000066
2011-09-26T13:18:10.913761,11620,0.263638,-1.014372,0.209661,0.022556,0.025932,1.002947
2011-09-26T13:18:10.923761,11630,0.260954,-0.948282,0.213055,0.023248,0.026011,1.005895
2011-09-26T13:18:10.933761,11640,0.258269,-0.882192,0.216448,0.023941,0.026089,1.008844
2011-09-26T13:18:10.943761,11650,0.255585,-0.816103,0.219842,0.024633,0.026168,1.011792
2011-09-26T13:18:10.953761,11660,0.252901,-0.750013,0.223236,0.025325,0.026246,1.014740
2011-09-26T13:18:10.963761,11670,0.250217,-0.683924,0.226629,0.026017,0.026325,1.017689
2011-09-26T13:18:10.973761,11680,0.247532,-0.617834,0.230023,0.026710,0.026403,1.020637
2011-09-26T13:18:10.983761,11690,0.244848,-0.551745,0.233416,0.027402,0.026482,1.023585
2011-09-26T13:18:10.993761,11700,0.242164,-0.485655,0.236810,0.028094,0.026560,1.026533
2011-09-26T13:18:11.003761,11710,0.239480,-0.419565,0.240204,0.028786,0.026639,1.029482
2011-09-26T13:18:11.013761,11720,0.193488,-0.299950,0.257592,0.028371,0.026109,1.028965
2011-09-26T13:18:11.023761,11730,0.146147,-0.178667,0.275415,0.027921,0.025561,1.028340
2011-09-26T13:18:11.033761,11740,0.098807,-0.057385,0.293239,0.027471,0.025012,1.027715
2011-09-26T13:18:11.043761,11750,0.051466,0.063898,0.311063,0.027021,0.024463,1.027091
2011-09-26T13:18:11.053761,11760,0.004126,0.185180,0.328887,0.026571,0.023915,1.026466
2011-09-26T13:18:11.063761,11770,-0.043214,0.306463,0.346710,0.026122,0.023366,1.025841
2011-09-26T13:18:11.073761,11780,-0.090555,0.427745,0.364534,0.025672,0.022817,1.025217
2011-09-26T13:18:11.083761,11790,-0.137895,0.549028,0.382358,0.025222,0.022269,1.024592
2011-09-26T13:18:11.093761,11800,-0.185236,0.670310,0.400182,0.024772,0.021720,1.023967
2011-09-26T13:18:11.103761,11810,-0.232576,0.791593,0.418005,0.024322,0.021172,1.023342
2011-09-26T13:18:11.113761,11820,-0.243684,0.814158,0.446750,0.023673,0.021636,1.020116
2011-09-26T13:18:11.123761,11830,-0.253329,0.832735,0.475936,0.023017,0.022141,1.016785
2011-09-26T13:18:11.133761,11840,-0.262974,0.851313,0.505121,0.022360,0.022646,1.013454
2011-09-26T13:18:11.143761,11850,-0.272619,0.869891,0.534307,0.021704,0.023152,1.010122
2011-09-26T13:18:11.153761,11860,-0.282263,0.888469,0.563492,0.021047,0.023657,1.006791
2011-09-26T13:18:11.163761,11870,-0.291908,0.907047,0.592678,0.020391,0.024162,1.003460
2011-09-26T13:18:11.173761,11880,-0.301553,0.925625,0.621864,0.019734,0.024667,1.000128
2011-09-26T13:18:11.183761,11890,-0.311198,0.944203,0.651049,0.019078,0.025172,0.996797
2011-09-26T13:18:11.193761,11900,-0.320843,0.962781,0.680235,0.018421,0.025678,0.993466
2011-09-26T13:18:11.203761,11910,-0.330487,0.981358,0.709420,0.017765,0.026183,0.990134
2011-09-26T13:18:11.213761,11920,-0.340132,0.999936,0.738606,0.017108,0.026688,0.986803
2011-09-26T13:18:11.223761,11930,-0.378462,0.912554,0.770655,0.015672,0.025221,0.987275
2011-09-26T13:18:11.233761,11940,-0.418431,0.819112,0.802868,0.014191,0.023642,0.987964
2011-09-26T13:18:11.243761,11950,-0.458401,0.725670,0.835081,0.012710,0.022062,0.988653
2011-09-26T13:18:11.253761,11960,-0.498371,0.632227,0.867294,0.011229,0.020482,0.989343
2011-09-26T13:18:11.263761,11970,-0.538341,0.538785,0.899507,0.009748,0.018902,0.990032
2011-09-26T13:18:11.273761,11980,-0.578311,0.445343,0.931720,0.008268,0.017323,0.990721
2011-09-26T13:18:11.283761,11990,-0.618281,0.351900,0.963933,0.006787,0.015743,0.991411
2011-09-26T13:18:11.293761,12000,-0.658251,0.258458,0.996146,0.005306,0.014163,0.992100
2011-09-26T13:18:11.303761,12010,-0.698221,0.165016,1.028359,0.003825,0.012583,0.992789
2011-09-26T13:18:11.313761,12020,-0.738191,0.071573,1.060572,0.002344,0.011004,0.993479
2011-09-26T13:18:11.323761,12030,-0.502552,-0.096541,1.095421,0.003146,0.008993,0.993581
2011-09-26T13:18:11.333761,12040,-0.255972,-0.267620,1.130375,0.004039,0.006966,0.993660
2011-09-26T13:18:11.343761,12050,-0.009392,-0.438700,1.165329,0.004931,0.004939,0.993738
2011-09-26T13:18:11.353761,12060,0.237189,-0.609779,1.200283,0.005823,0.002912,0.993817
2011-09-26T13:18:11.363761,12070,0.483769,-0.780858,1.235237,0.006716,0.000884,0.993896
2011-09-26T13:18:11.373761,12080,0.730349,-0.951937,1.270191,0.007608,-0.001143,0.993975
2011-09-26T13:18:11.383761,12090,0.976930,-1.123016,1.305144,0.008501,-0.003170,0.994054
2011-09-26T13:18:11.393761,12100,1.223510,-1.294095,1.340098,0.009393,-0.005198,0.994132
2011-09-26T13:18:11.403761,12110,1.470090,-1.465174,1.375052,0.010286,-0.007225,0.994211
2011-09-26T13:18:11.413761,12120,1.716670,-1.636253,1.410006,0.011178,-0.009252,0.994290
2011-09-26T13:18:11.423761,12130,1.963251,-1.807333,1.444960,0.012071,-0.011280,0.994369
2011-09-26T13:18:11.433761,12140,2.085414,-1.940880,1.469804,0.014096,-0.007896,0.994813
2011-09-26T13:18:11.443761,12150,2.202889,-2.073013,1.494268,0.016163,-0.004309,0.995271
2011-09-26T13:18:11.453761,12160,2.320365,-2.205146,1.518732,0.018231,-0.000722,0.995729
2011-09-26T13:18:11.463761,12170,2.437841,-2.337279,1.543195,0.020299,0.002865,0.996187
2011-09-26T13:18:11.473761,12180,2.555317,-2.469412,1.567659,0.022366,0.006452,0.996645
2011-09-26T13:18:11.483761,12190,2.672793,-2.601545,1.592122,0.024434,0.010039,0.997103
2011-09-26T13:18:11.493761,12200,2.790269,-2.733678,1.616586,0.026502,0.013626,0.997561
2011-09-26T13:18:11.503761,12210,2.907745,-2.865812,1.641050,0.028569,0.017213,0.998019
2011-09-26T13:18:11.513761,12220,3.025221,-2.997945,1.665513,0.030637,0.020800,0.998477
2011-09-26T13:18:11.523761,12230,3.142696,-3.130078,1.689977,0.032705,0.024387,0.998935
2011-09-26T13:18:11.533761,12240,3.097558,-3.101005,1.706783,0.035069,0.028707,0.999462
2011-09-26T13:18:11.543761,12250,3.046435,-3.066000,1.723307,0.037445,0.033054,0.999991
2011-09-26T13:18:11.553761,12260,2.995311,-3.030994,1.739831,0.039821,0.037401,1.000521
2011-09-26T13:18:11.563761,12270,2.944188,-2.995988,1.756355,0.042196,0.041748,1.001050
2011-09-26T13:18:11.573761,12280,2.893064,-2.960982,1.772879,0.044572,0.046095,1.001580
2011-09-26T13:18:11.583761,12290,2.841941,-2.925977,1.789403,0.046948,0.050443,1.002110
2011-09-26T13:18:11.593761,12300,2.790817,-2.890971,1.805928,0.049323,0.054790,1.002639
2011-09-26T13:18:11.603761,12310,2.739694,-2.855965,1.822452,0.051699,0.059137,1.003169
2011-09-26T13:18:11.613761,12320,2.688570,-2.820960,1.838976,0.054074,0.063484,1.003699
2011-09-26T13:18:11.623761,12330,2.637447,-2.785954,1.855500,0.056450,0.067831,1.004228
2011-09-26T13:18:11.633761,12340,2.553347,-2.627234,1.856952,0.058195,0.065828,1.013046
2011-09-26T13:18:11.643761,12350,2.467983,-2.463772,1.857826,0.059916,0.063581,1.022181
2011-09-26T13:18:11.653761,12360,2.382619,-2.300310,1.858701,0.061637,0.061334,1.031316
2011-09-26T13:18:11.663761,12370,2.297255,-2.136848,1.859575,0.063358,0.059088,1.040452
2011-09-26T13:18:11.673761,12380,2.211891,-1.973386,1.860449,0.065079,0.056841,1.049587
2011-09-26T13:18:11.683761,12390,2.126528,-1.809924,1.861324,0.066800,0.054594,1.058722
2011-09-26T13:18:11.693761,12400,2.041164,-1.646462,1.862198,0.068521,0.052348,1.067858
2011-09-26T13:18:11.703761,12410,1.955800,-1.483000,1.863073,0.070242,0.050101,1.076993
2011-09-26T13:18:11.713761,12420,1.870436,-1.319538,1.863947,0.071963,0.047855,1.086128
2011-09-26T13:18:11.723761,12430,1.785072,-1.156076,1.864821,0.073684,0.045608,1.095263
2011-09-26T13:18:11.733761,12440,1.699708,-0.992614,1.865696,0.075405,0.043361,1.104399
2011-09-26T13:18:11.743761,12450,1.734015,-0.755581,1.870226,0.072061,0.042126,1.099731
2011-09-26T13:18:11.753761,12460,1.774002,-0.515056,1.874929,0.068476,0.040940,1.094409
2011-09-26T13:18:11.763761,12470,1.813988,-0.274532,1.879632,0.064892,0.039753,1.089086
2011-09-26T13:18:11.773761,12480,1.853975,-0.034007,1.884336,0.061308,0.038566,1.083763
2011-09-26T13:18:11.783761,12490,1.893962,0.206517,1.889039,0.057724,0.037379,1.078441
2011-09-26T13:18:11.793761,12500,1.933949,0.447042,1.893742,0.054139,0.036193,1.073118
2011-09-26T13:18:11.803761,12510,1.973935,0.687566,1.898446,0.050555,0.035006,1.067796
2011-09-26T13:18:11.813761,12520,2.013922,0.928091,1.903149,0.046971,0.033819,1.062473
2011-09-26T13:18:11.823761,12530,2.053909,1.168616,1.907852,0.043387,0.032632,1.057150
2011-09-26T13:18:11.833761,12540,2.093896,1.409140,1.912556,0.039802,0.031445,1.051828
2011-09-26T13:18:11.843761,12550,2.199725,1.408737,1.894271,0.041243,0.034729,1.044997
2011-09-26T13:18:11.853761,12560,2.308306,1.398266,1.875026,0.042894,0.038199,1.038104
2011-09-26T13:18:11.863761,12570,2.416886,1.387795,1.855781,0.044545,0.041670,1.031210
2011-09-26T13:18:11.873761,12580,2.525467,1.377324,1.836535,0.046195,0.045140,1.024317
2011-09-26T13:18:11.883761,12590,2.634048,1.366853,1.817290,0.047846,0.048611,1.017424
2011-09-26T13:18:11.893761,12600,2.742628,1.356382,1.798045,0.049497,0.052081,1.010530
2011-09-26T13:18:11.903761,12610,2.851209,1.345911,1.778799,0.051147,0.055552,1.003637
2011-09-26T13:18:11.913761,12620,2.959790,1.335440,1.759554,0.052798,0.059022,0.996743
2011-09-26T13:18:11.923761,12630,3.068370,1.324969,1.740309,0.054449,0.062493,0.989850
2011-09-26T13:18:11.933761,12640,3.176951,1.314498,1.721064,0.056100,0.065963,0.982956
2011-09-26T13:18:11.943761,12650,2.897577,1.219489,1.706025,0.054539,0.069829,0.976038
2011-09-26T13:18:11.953761,12660,2.603038,1.121174,1.691150,0.052852,0.073710,0.969118
2011-09-26T13:18:11.963761,12670,2.308498,1.022860,1.676276,0.051166,0.077591,0.962199
2011-09-26T13:18:11.973761,12680,2.013958,0.924545,1.661402,0.049479,0.081473,0.955279
2011-09-26T13:18:11.983761,12690,1.719418,0.826231,1.646527,0.047793,0.085354,0.948360
2011-09-26T13:18:11.993761,12700,1.424879,0.727916,1.631653,0.046107,0.089235,0.941440
2011-09-26T13:18:12.003761,12710,1.130339,0.629602,1.616779,0.044420,0.093116,0.934521
2011-09-26T13:18:12.013761,12720,0.835799,0.531288,1.601904,0.042734,0.096998,0.927601
2011-09-26T13:18:12.023761,12730,0.541259,0.432973,1.587030,0.041048,0.100879,0.920682
2011-09-26T13:18:12.033761,12740,0.246720,0.334659,1.572156,0.039361,0.104760,0.913762
2011-09-26T13:18:12.043761,12750,-0.047820,0.236344,1.557281,0.037675,0.108641,0.906843
2011-09-26T13:18:12.053761,12760,-0.280677,0.097729,1.543937,0.039718,0.109225,0.916188
2011-09-26T13:18:12.063761,12770,-0.511004,-0.042539,1.530655,0.041914,0.109672,0.926201
2011-09-26T13:18:12.073761,12780,-0.741332,-0.182807,1.517373,0.044111,0.110120,0.936214
2011-09-26T13:18:12.083761,12790,-0.971660,-0.323075,1.504092,0.046307,0.110568,0.946227
2011-09-26T13:18:12.093761,12800,-1.201987,-0.463343,1.490810,0.048503,0.111016,0.956239
2011-09-26T13:18:12.103761,12810,-1.432315,-0.603611,1.477528,0.050699,0.111464,0.966252
2011-09-26T13:18:12.113761,12820,-1.662643,-0.743878,1.464246,0.052895,0.111912,0.976265
2011-09-26T13:18:12.123761,12830,-1.892971,-0.884146,1.450964,0.055092,0.112360,0.986277
2011-09-26T13:18:12.133761,12840,-2.123298,-1.024414,1.437683,0.057288,0.112808,0.996290
2011-09-26T13:18:12.143761,12850,-2.353626,-1.164682,1.424401,0.059484,0.113256,1.006303
2011-09-26T13:18:12.153761,12860,-2.548772,-1.003066,1.404075,0.060378,0.108215,1.008471
2011-09-26T13:18:12.163761,12870,-2.742459,-0.828930,1.383457,0.061218,0.102946,1.010314
2011-09-26T13:18:12.173761,12880,-2.936145,-0.654795,1.362839,0.062058,0.097677,1.012158
2011-09-26T13:18:12.183761,12890,-3.129832,-0.480659,1.342221,0.062898,0.092408,1.014001
2011-09-26T13:18:12.193761,12900,-3.323519,-0.306524,1.321603,0.063737,0.087139,1.015844
2011-09-26T13:18:12.203761,12910,-3.517206,-0.132389,1.300985,0.064577,0.081871,1.017687
2011-09-26T13:18:12.213761,12920,-3.710893,0.041747,1.280367,0.065417,0.076602,1.019531
2011-09-26T13:18:12.223761,12930,-3.904580,0.215882,1.259749,0.066257,0.071333,1.021374
2011-09-26T13:18:12.233761,12940,-4.098266,0.390018,1.239132,0.067097,0.066064,1.023217
2011-09-26T13:18:12.243761,12950,-4.291953,0.564153,1.218514,0.067937,0.060795,1.025060
2011-09-26T13:18:12.253761,12960,-4.210978,0.533185,1.208100,0.066080,0.058469,1.023144
2011-09-26T13:18:12.263761,12970,-4.116664,0.492256,1.198182,0.064092,0.056285,1.021046
2011-09-26T13:18:12.273761,12980,-4.022349,0.451328,1.188264,0.062104,0.054102,1.018947
2011-09-26T13:18:12.283761,12990,-3.928035,0.410399,1.178346,0.060116,0.051918,1.016849
2011-09-26T13:18:12.293761,13000,-3.833721,0.369470,1.168427,0.058128,0.049735,1.014750
2011-09-26T13:18:12.303761,13010,-3.739407,0.328541,1.158509,0.056140,0.047551,1.012652
2011-09-26T13:18:12.313761,13020,-3.645093,0.287613,1.148591,0.054152,0.045368,1.010553
2011-09-26T13:18:12.323761,13030,-3.550779,0.246684,1.138673,0.052164,0.043184,1.008455
2011-09-26T13:18:12.333761,13040,-3.456465,0.205755,1.128755,0.050176,0.041001,1.006356
2011-09-26T13:18:12.343761,13050,-3.362151,0.164827,1.118837,0.048188,0.038817,1.004258
2011-09-26T13:18:12.353761,13060,-3.267837,0.123898,1.108919,0.046200,0.036634,1.002159
2011-09-26T13:18:12.363761,13070,-3.170660,0.116424,1.075426,0.046667,0.035628,1.003763
2011-09-26T13:18:12.373761,13080,-3.073351,0.110505,1.040838,0.047247,0.034676,1.005539
2011-09-26T13:18:12.383761,13090,-2.976041,0.104585,1.006250,0.047828,0.033725,1.007315
2011-09-26T13:18:12.393761,13100,-2.878731,0.098665,0.971662,0.048408,0.032773,1.009091
2011-09-26T13:18:12.403761,13110,-2.781422,0.092745,0.937074,0.048989,0.031822,1.010867
2011-09-26T13:18:12.413761,13120,-2.684112,0.086825,0.902486,0.049569,0.030871,1.012643
2011-09-26T13:18:12.423761,13130,-2.586803,0.080906,0.867898,0.050149,0.029919,1.014419
2011-09-26T13:18:12.433761,13140,-2.489493,0.074986,0.833310,0.050730,0.028968,1.016195
2011-09-26T13:18:12.443761,13150,-2.392183,0.069066,0.798722,0.051310,0.028016,1.017971
2011-09-26T13:18:12.453761,13160,-2.294874,0.063146,0.764134,0.051891,0.027065,1.019747
2011-09-26T13:18:12.463761,13170,-2.358117,-0.084837,0.744395,0.051708,0.029400,1.015044
2011-09-26T13:18:12.473761,13180,-2.427996,-0.238693,0.725271,0.051495,0.031871,1.010072
2011-09-26T13:18:12.483761,13190,-2.497876,-0.392549,0.706146,0.051281,0.034342,1.005100
2011-09-26T13:18:12.493761,13200,-2.567756,-0.546405,0.687022,0.051067,0.036813,1.000128
2011-09-26T13:18:12.503761,13210,-2.637636,-0.700261,0.667898,0.050853,0.039283,0.995157
2011-09-26T13:18:12.513761,13220,-2.707516,-0.854117,0.648773,0.050639,0.041754,0.990185
2011-09-26T13:18:12.523761,13230,-2.777395,-1.007973,0.629649,0.050425,0.044225,0.985213
2011-09-26T13:18:12.533761,13240,-2.847275,-1.161829,0.610525,0.050211,0.046696,0.980241
2011-09-26T13:18:12.543761,13250,-2.917155,-1.315685,0.591400,0.049998,0.049167,0.975270
2011-09-26T13:18:12.553761,13260,-2.987035,-1.469541,0.572276,0.049784,0.051638,0.970298
2011-09-26T13:18:12.563761,13270,-3.056915,-1.623397,0.553151,0.049570,0.054109,0.965326
2011-09-26T13:18:12.573761,13280,-2.964746,-1.698837,0.520490,0.050965,0.046719,0.970082
2011-09-26T13:18:12.583761,13290,-2.865981,-1.771085,0.487277,0.052426,0.038927,0.975234
2011-09-26T13:18:12.593761,13300,-2.767217,-1.843333,0.454065,0.053887,0.031136,0.980387
2011-09-26T13:18:12.603761,13310,-2.668452,-1.915581,0.420852,0.055348,0.023344,0.985539
2011-09-26T13:18:12.613761,13320,-2.569687,-1.987829,0.387640,0.056809,0.015553,0.990691
2011-09-26T13:18:12.623761,13330,-2.470923,-2.060077,0.354427,0.058270,0.007762,0.995843
2011-09-26T13:18:12.633761,13340,-2.372158,-2.132325,0.321215,0.059731,-0.000030,1.000995
2011-09-26T13:18:12.643761,13350,-2.273393,-2.204573,0.288002,0.061192,-0.007821,1.006147
2011-09-26T13:18:12.653761,13360,-2.174629,-2.276822,0.254790,0.062653,-0.015612,1.011299
2011-09-26T13:18:12.663761,13370,-2.075864,-2.349070,0.221577,0.064114,-0.023404,1.016451
2011-09-26T13:18:12.673761,13380,-1.923946,-2.165062,0.248543,0.065773,-0.025753,1.024735
2011-09-26T13:18:12.683761,13390,-1.769866,-1.970630,0.277956,0.067440,-0.027881,1.033147
2011-09-26T13:18:12.693761,13400,-1.615785,-1.776199,0.307369,0.069106,-0.030009,1.041558
2011-09-26T13:18:12.703761,13410,-1.461705,-1.581767,0.336782,0.070773,-0.032136,1.049970
2011-09-26T13:18:12.713761,13420,-1.307625,-1.387336,0.366196,0.072440,-0.034264,1.058381
2011-09-26T13:18:12.723761,13430,-1.153544,-1.192904,0.395609,0.074106,-0.036392,1.066793
2011-09-26T13:18:12.733761,13440,-0.999464,-0.998473,0.425022,0.075773,-0.038520,1.075204
2011-09-26T13:18:12.743761,13450,-0.845384,-0.804041,0.454436,0.077440,-0.040648,1.083615
2011-09-26T13:18:12.753761,13460,-0.691303,-0.609610,0.483849,0.079107,-0.042776,1.092027
2011-09-26T13:18:12.763761,13470,-0.537223,-0.415178,0.513262,0.080773,-0.044903,1.100438
2011-09-26T13:18:12.773761,13480,-0.446328,-0.141277,0.490694,0.080316,-0.041081,1.094155
2011-09-26T13:18:12.783761,13490,-0.358175,0.136075,0.465870,0.079767,-0.036999,1.087234
2011-09-26T13:18:12.793761,13500,-0.270023,0.413426,0.441046,0.079218,-0.032918,1.080313
2011-09-26T13:18:12.803761,13510,-0.181871,0.690777,0.416222,0.078668,-0.028837,1.073392
2011-09-26T13:18:12.813761,13520,-0.093718,0.968128,0.391398,0.078119,-0.024756,1.066471
2011-09-26T13:18:12.823761,13530,-0.005566,1.245479,0.366573,0.077570,-0.020674,1.059550
2011-09-26T13:18:12.833761,13540,0.082586,1.522831,0.341749,0.077021,-0.016593,1.052629
2011-09-26T13:18:12.843761,13550,0.170739,1.800182,0.316925,0.076471,-0.012512,1.045708
2011-09-26T13:18:12.853761,13560,0.258891,2.077533,0.292101,0.075922,-0.008431,1.038787
2011-09-26T13:18:12.863761,13570,0.347043,2.354884,0.267277,0.075373,-0.004350,1.031866
2011-09-26T13:18:12.873761,13580,0.435196,2.632236,0.242453,0.074824,-0.000268,1.024945
2011-09-26T13:18:12.883761,13590,0.463634,2.635046,0.200617,0.073090,0.001427,1.019138
2011-09-26T13:18:12.893761,13600,0.489708,2.626985,0.158107,0.071309,0.003028,1.013375
2011-09-26T13:18:12.903761,13610,0.515782,2.618925,0.115598,0.069528,0.004628,1.007612
2011-09-26T13:18:12.913761,13620,0.541857,2.610865,0.073089,0.067747,0.006229,1.001849
2011-09-26T13:18:12.923761,13630,0.567931,2.602805,0.030579,0.065966,0.007830,0.996086
2011-09-26T13:18:12.933761,13640,0.594005,2.594745,-0.011930,0.064185,0.009431,0.990323
2011-09-26T13:18:12.943761,13650,0.620079,2.586685,-0.054440,0.062404,0.011031,0.984560
2011-09-26T13:18:12.953761,13660,0.646153,2.578625,-0.096949,0.060624,0.012632,0.978797
