pc_time,ts_ms,gyroX,gyroY,gyroZ,accelX,accelY,accelZ
2011-09-26T15:07:08.706985,0,-0.330500,0.004397,1.049874,-0.013563,-0.055046,0.998122
2011-09-26T15:07:08.716985,10,-0.302123,0.015979,1.063507,-0.013668,-0.054986,0.998704
2011-09-26T15:07:08.726985,20,-0.273745,0.027560,1.077140,-0.013772,-0.054926,0.999286
2011-09-26T15:07:08.736985,30,-0.245368,0.039142,1.090773,-0.013877,-0.054867,0.999869
2011-09-26T15:07:08.746985,40,-0.216990,0.050724,1.104407,-0.013981,-0.054807,1.000451
2011-09-26T15:07:08.756985,50,-0.188613,0.062306,1.118040,-0.014086,-0.054748,1.001033
2011-09-26T15:07:08.766985,60,-0.160235,0.073888,1.131673,-0.014190,-0.054688,1.001616
2011-09-26T15:07:08.776985,70,-0.131858,0.085469,1.145306,-0.014295,-0.054628,1.002198
2011-09-26T15:07:08.786985,80,-0.103480,0.097051,1.158939,-0.014399,-0.054569,1.002780
2011-09-26T15:07:08.796985,90,-0.075103,0.108633,1.172572,-0.014504,-0.054509,1.003363
2011-09-26T15:07:08.806985,100,-0.046722,0.120223,1.186191,-0.014608,-0.054450,1.003944
2011-09-26T15:07:08.816985,110,-0.015013,0.142391,1.181617,-0.014675,-0.054634,1.003980
2011-09-26T15:07:08.826985,120,0.016696,0.164559,1.177044,-0.014742,-0.054818,1.004015
2011-09-26T15:07:08.836985,130,0.048405,0.186727,1.172471,-0.014809,-0.055002,1.004050
2011-09-26T15:07:08.846985,140,0.080115,0.208895,1.167898,-0.014876,-0.055186,1.004086
2011-09-26T15:07:08.856985,150,0.111824,0.231063,1.163325,-0.014943,-0.055369,1.004121
2011-09-26T15:07:08.866985,160,0.143533,0.253231,1.158752,-0.015010,-0.055553,1.004156
2011-09-26T15:07:08.876985,170,0.175242,0.275399,1.154179,-0.015077,-0.055737,1.004192
2011-09-26T15:07:08.886985,180,0.206952,0.297566,1.149606,-0.015144,-0.055921,1.004227
2011-09-26T15:07:08.896985,190,0.238661,0.319734,1.145033,-0.015211,-0.056105,1.004263
2011-09-26T15:07:08.906985,200,0.270370,0.341902,1.140460,-0.015278,-0.056289,1.004298
2011-09-26T15:07:08.916985,210,0.281089,0.334552,1.156140,-0.014870,-0.055387,1.003821
2011-09-26T15:07:08.926985,220,0.291802,0.327195,1.171825,-0.014463,-0.054485,1.003344
2011-09-26T15:07:08.936985,230,0.302515,0.319837,1.187510,-0.014055,-0.053582,1.002866
2011-09-26T15:07:08.946985,240,0.313228,0.312480,1.203196,-0.013647,-0.052680,1.002389
2011-09-26T15:07:08.956985,250,0.323941,0.305122,1.218881,-0.013240,-0.051778,1.001912
2011-09-26T15:07:08.966985,260,0.334655,0.297764,1.234567,-0.012832,-0.050875,1.001435
2011-09-26T15:07:08.976985,270,0.345368,0.290407,1.250252,-0.012424,-0.049973,1.000958
2011-09-26T15:07:08.986985,280,0.356081,0.283049,1.265937,-0.012017,-0.049070,1.000481
2011-09-26T15:07:08.996985,290,0.366794,0.275691,1.281623,-0.011609,-0.048168,1.000003
2011-09-26T15:07:09.006985,300,0.377507,0.268334,1.297308,-0.011201,-0.047266,0.999526
2011-09-26T15:07:09.016985,310,0.388216,0.260976,1.312990,-0.010794,-0.046363,0.999049
2011-09-26T15:07:09.026985,320,0.366322,0.255150,1.296118,-0.009800,-0.044213,0.999060
2011-09-26T15:07:09.036985,330,0.344428,0.249323,1.279247,-0.008806,-0.042063,0.999071
2011-09-26T15:07:09.046985,340,0.322533,0.243496,1.262375,-0.007813,-0.039913,0.999082
2011-09-26T15:07:09.056985,350,0.300639,0.237670,1.245503,-0.006819,-0.037763,0.999093
2011-09-26T15:07:09.066985,360,0.278745,0.231843,1.228632,-0.005825,-0.035613,0.999104
2011-09-26T15:07:09.076985,370,0.256851,0.226016,1.211760,-0.004832,-0.033463,0.999115
2011-09-26T15:07:09.086985,380,0.234956,0.220190,1.194889,-0.003838,-0.031313,0.999126
2011-09-26T15:07:09.096985,390,0.213062,0.214363,1.178017,-0.002844,-0.029163,0.999137
2011-09-26T15:07:09.106985,400,0.191168,0.208536,1.161145,-0.001851,-0.027013,0.999148
2011-09-26T15:07:09.116985,410,0.169273,0.202710,1.144274,-0.000857,-0.024863,0.999159
2011-09-26T15:07:09.126985,420,0.095089,0.198275,1.130468,-0.000902,-0.026016,0.998758
2011-09-26T15:07:09.136985,430,0.019690,0.193872,1.116734,-0.000971,-0.027246,0.998346
2011-09-26T15:07:09.146985,440,-0.055709,0.189470,1.102999,-0.001040,-0.028475,0.997935
2011-09-26T15:07:09.156985,450,-0.131109,0.185067,1.089265,-0.001109,-0.029705,0.997524
2011-09-26T15:07:09.166985,460,-0.206508,0.180665,1.075530,-0.001179,-0.030934,0.997112
2011-09-26T15:07:09.176985,470,-0.281907,0.176262,1.061796,-0.001248,-0.032164,0.996701
2011-09-26T15:07:09.186985,480,-0.357306,0.171860,1.048062,-0.001317,-0.033394,0.996289
2011-09-26T15:07:09.196985,490,-0.432705,0.167457,1.034327,-0.001386,-0.034623,0.995878
2011-09-26T15:07:09.206985,500,-0.508105,0.163055,1.020593,-0.001455,-0.035853,0.995467
2011-09-26T15:07:09.216985,510,-0.583504,0.158652,1.006858,-0.001524,-0.037082,0.995055
2011-09-26T15:07:09.226985,520,-0.614585,0.133493,1.040467,-0.001839,-0.039684,0.994242
2011-09-26T15:07:09.236985,530,-0.645623,0.108313,1.074122,-0.002155,-0.042287,0.993427
2011-09-26T15:07:09.246985,540,-0.676660,0.083133,1.107778,-0.002470,-0.044890,0.992613
2011-09-26T15:07:09.256985,550,-0.707697,0.057953,1.141434,-0.002786,-0.047493,0.991799
2011-09-26T15:07:09.266985,560,-0.738734,0.032773,1.175089,-0.003102,-0.050096,0.990985
2011-09-26T15:07:09.276985,570,-0.769772,0.007594,1.208745,-0.003417,-0.052699,0.990170
2011-09-26T15:07:09.286985,580,-0.800809,-0.017586,1.242401,-0.003733,-0.055302,0.989356
2011-09-26T15:07:09.296985,590,-0.831846,-0.042766,1.276057,-0.004048,-0.057905,0.988542
2011-09-26T15:07:09.306985,600,-0.862883,-0.067946,1.309712,-0.004364,-0.060508,0.987728
2011-09-26T15:07:09.316985,610,-0.893920,-0.093126,1.343368,-0.004679,-0.063111,0.986914
2011-09-26T15:07:09.326985,620,-0.924958,-0.118306,1.377024,-0.004995,-0.065714,0.986099
2011-09-26T15:07:09.336985,630,-0.853154,-0.140306,1.390279,-0.004600,-0.064730,0.987240
2011-09-26T15:07:09.346985,640,-0.781114,-0.162298,1.403487,-0.004204,-0.063738,0.988385
2011-09-26T15:07:09.356985,650,-0.709074,-0.184291,1.416695,-0.003809,-0.062746,0.989529
2011-09-26T15:07:09.366985,660,-0.637034,-0.206283,1.429904,-0.003413,-0.061753,0.990674
2011-09-26T15:07:09.376985,670,-0.564993,-0.228276,1.443112,-0.003017,-0.060761,0.991819
2011-09-26T15:07:09.386985,680,-0.492953,-0.250268,1.456320,-0.002621,-0.059769,0.992964
2011-09-26T15:07:09.396985,690,-0.420913,-0.272261,1.469529,-0.002225,-0.058777,0.994109
2011-09-26T15:07:09.406985,700,-0.348873,-0.294253,1.482737,-0.001829,-0.057785,0.995254
2011-09-26T15:07:09.416985,710,-0.276833,-0.316245,1.495945,-0.001433,-0.056793,0.996399
2011-09-26T15:07:09.426985,720,-0.204793,-0.338238,1.509153,-0.001037,-0.055800,0.997543
2011-09-26T15:07:09.436985,730,-0.192960,-0.329843,1.482303,-0.000790,-0.054354,0.997965
2011-09-26T15:07:09.446985,740,-0.181143,-0.321439,1.455443,-0.000543,-0.052907,0.998386
2011-09-26T15:07:09.456985,750,-0.169326,-0.313036,1.428582,-0.000296,-0.051460,0.998808
2011-09-26T15:07:09.466985,760,-0.157509,-0.304632,1.401722,-0.000049,-0.050014,0.999229
2011-09-26T15:07:09.476985,770,-0.145692,-0.296229,1.374861,0.000198,-0.048567,0.999651
2011-09-26T15:07:09.486985,780,-0.133875,-0.287826,1.348000,0.000445,-0.047120,1.000072
2011-09-26T15:07:09.496985,790,-0.122058,-0.279422,1.321140,0.000692,-0.045673,1.000494
2011-09-26T15:07:09.506985,800,-0.110242,-0.271019,1.294279,0.000939,-0.044227,1.000915
2011-09-26T15:07:09.516985,810,-0.098425,-0.262615,1.267419,0.001186,-0.042780,1.001336
2011-09-26T15:07:09.526985,820,-0.086608,-0.254212,1.240558,0.001433,-0.041333,1.001758
2011-09-26T15:07:09.536985,830,-0.124430,-0.210444,1.247153,0.001711,-0.041226,1.001322
2011-09-26T15:07:09.546985,840,-0.162336,-0.166616,1.253805,0.001989,-0.041121,1.000886
2011-09-26T15:07:09.556985,850,-0.200243,-0.122788,1.260457,0.002266,-0.041017,1.000449
2011-09-26T15:07:09.566985,860,-0.238150,-0.078960,1.267108,0.002544,-0.040912,1.000012
2011-09-26T15:07:09.576985,870,-0.276057,-0.035132,1.273760,0.002822,-0.040807,0.999575
2011-09-26T15:07:09.586985,880,-0.313964,0.008696,1.280412,0.003100,-0.040702,0.999138
2011-09-26T15:07:09.596985,890,-0.351871,0.052524,1.287064,0.003378,-0.040597,0.998701
2011-09-26T15:07:09.606985,900,-0.389777,0.096352,1.293716,0.003655,-0.040493,0.998265
2011-09-26T15:07:09.616985,910,-0.427684,0.140180,1.300368,0.003933,-0.040388,0.997828
2011-09-26T15:07:09.626985,920,-0.465591,0.184007,1.307020,0.004211,-0.040283,0.997391
2011-09-26T15:07:09.636985,930,-0.503498,0.227835,1.313672,0.004489,-0.040178,0.996954
2011-09-26T15:07:09.646985,940,-0.562239,0.252625,1.348000,0.004181,-0.040716,0.997156
2011-09-26T15:07:09.656985,950,-0.621452,0.276981,1.382956,0.003860,-0.041269,0.997371
2011-09-26T15:07:09.666985,960,-0.680666,0.301338,1.417912,0.003539,-0.041822,0.997587
2011-09-26T15:07:09.676985,970,-0.739879,0.325695,1.452867,0.003218,-0.042375,0.997803
2011-09-26T15:07:09.686985,980,-0.799093,0.350052,1.487823,0.002897,-0.042928,0.998019
2011-09-26T15:07:09.696985,990,-0.858306,0.374409,1.522779,0.002575,-0.043481,0.998235
2011-09-26T15:07:09.706985,1000,-0.917520,0.398766,1.557735,0.002254,-0.044034,0.998451
2011-09-26T15:07:09.716985,1010,-0.976733,0.423123,1.592691,0.001933,-0.044587,0.998667
2011-09-26T15:07:09.726985,1020,-1.035947,0.447480,1.627646,0.001612,-0.045140,0.998883
2011-09-26T15:07:09.736985,1030,-1.095160,0.471837,1.662602,0.001291,-0.045693,0.999099
2011-09-26T15:07:09.746985,1040,-1.122459,0.473169,1.661526,0.000222,-0.046024,0.999769
2011-09-26T15:07:09.756985,1050,-1.149604,0.474391,1.660277,-0.000850,-0.046353,1.000441
2011-09-26T15:07:09.766985,1060,-1.176749,0.475613,1.659028,-0.001922,-0.046683,1.001113
2011-09-26T15:07:09.776985,1070,-1.203894,0.476834,1.657779,-0.002995,-0.047013,1.001785
2011-09-26T15:07:09.786985,1080,-1.231038,0.478056,1.656530,-0.004067,-0.047343,1.002457
2011-09-26T15:07:09.796985,1090,-1.258183,0.479278,1.655281,-0.005140,-0.047673,1.003129
2011-09-26T15:07:09.806985,1100,-1.285328,0.480499,1.654032,-0.006212,-0.048003,1.003802
2011-09-26T15:07:09.816985,1110,-1.312473,0.481721,1.652783,-0.007284,-0.048333,1.004474
2011-09-26T15:07:09.826985,1120,-1.339618,0.482943,1.651534,-0.008357,-0.048663,1.005146
2011-09-26T15:07:09.836985,1130,-1.366763,0.484164,1.650284,-0.009429,-0.048992,1.005818
2011-09-26T15:07:09.846985,1140,-1.343014,0.476369,1.651549,-0.009964,-0.050108,1.005594
2011-09-26T15:07:09.856985,1150,-1.318742,0.468480,1.652840,-0.010493,-0.051232,1.005362
2011-09-26T15:07:09.866985,1160,-1.294469,0.460592,1.654131,-0.011022,-0.052355,1.005129
2011-09-26T15:07:09.876985,1170,-1.270197,0.452703,1.655422,-0.011552,-0.053479,1.004896
2011-09-26T15:07:09.886985,1180,-1.245924,0.444815,1.656713,-0.012081,-0.054602,1.004664
2011-09-26T15:07:09.896985,1190,-1.221652,0.436927,1.658004,-0.012610,-0.055726,1.004431
2011-09-26T15:07:09.906985,1200,-1.197379,0.429038,1.659295,-0.013139,-0.056850,1.004198
2011-09-26T15:07:09.916985,1210,-1.173107,0.421150,1.660586,-0.013669,-0.057973,1.003966
2011-09-26T15:07:09.926985,1220,-1.148834,0.413261,1.661877,-0.014198,-0.059097,1.003733
2011-09-26T15:07:09.936985,1230,-1.124562,0.405373,1.663168,-0.014727,-0.060220,1.003500
2011-09-26T15:07:09.946985,1240,-1.100289,0.397485,1.664459,-0.015257,-0.061344,1.003268
2011-09-26T15:07:09.956985,1250,-1.067640,0.376255,1.673627,-0.015070,-0.061938,1.002029
2011-09-26T15:07:09.966985,1260,-1.034967,0.354987,1.682817,-0.014881,-0.062530,1.000788
2011-09-26T15:07:09.976985,1270,-1.002294,0.333720,1.692007,-0.014693,-0.063122,0.999546
2011-09-26T15:07:09.986985,1280,-0.969622,0.312453,1.701197,-0.014504,-0.063715,0.998305
2011-09-26T15:07:09.996985,1290,-0.936949,0.291186,1.710387,-0.014315,-0.064307,0.997064
2011-09-26T15:07:10.006985,1300,-0.904276,0.269918,1.719577,-0.014127,-0.064899,0.995822
2011-09-26T15:07:10.016985,1310,-0.871603,0.248651,1.728767,-0.013938,-0.065491,0.994581
2011-09-26T15:07:10.026985,1320,-0.838930,0.227384,1.737958,-0.013749,-0.066084,0.993340
2011-09-26T15:07:10.036985,1330,-0.806257,0.206117,1.747148,-0.013561,-0.066676,0.992098
2011-09-26T15:07:10.046985,1340,-0.773585,0.184849,1.756338,-0.013372,-0.067268,0.990857
2011-09-26T15:07:10.056985,1350,-0.728764,0.185500,1.757035,-0.012155,-0.065779,0.990661
2011-09-26T15:07:10.066985,1360,-0.683882,0.186261,1.757689,-0.010933,-0.064279,0.990470
2011-09-26T15:07:10.076985,1370,-0.639001,0.187021,1.758344,-0.009711,-0.062779,0.990279
2011-09-26T15:07:10.086985,1380,-0.594119,0.187781,1.758999,-0.008488,-0.061279,0.990089
2011-09-26T15:07:10.096985,1390,-0.549237,0.188542,1.759653,-0.007266,-0.059779,0.989898
2011-09-26T15:07:10.106985,1400,-0.504356,0.189302,1.760308,-0.006044,-0.058279,0.989707
2011-09-26T15:07:10.116985,1410,-0.459474,0.190063,1.760962,-0.004822,-0.056779,0.989516
2011-09-26T15:07:10.126985,1420,-0.414593,0.190823,1.761617,-0.003599,-0.055279,0.989326
2011-09-26T15:07:10.136985,1430,-0.369711,0.191583,1.762272,-0.002377,-0.053779,0.989135
2011-09-26T15:07:10.146985,1440,-0.324830,0.192344,1.762926,-0.001155,-0.052279,0.988944
2011-09-26T15:07:10.156985,1450,-0.344607,0.208872,1.745305,-0.001339,-0.051250,0.989026
2011-09-26T15:07:10.166985,1460,-0.365536,0.225681,1.727358,-0.001549,-0.050229,0.989113
2011-09-26T15:07:10.176985,1470,-0.386466,0.242489,1.709412,-0.001759,-0.049208,0.989200
2011-09-26T15:07:10.186985,1480,-0.407395,0.259298,1.691465,-0.001968,-0.048187,0.989286
2011-09-26T15:07:10.196985,1490,-0.428324,0.276107,1.673518,-0.002178,-0.047166,0.989373
2011-09-26T15:07:10.206985,1500,-0.449254,0.292916,1.655572,-0.002387,-0.046145,0.989460
2011-09-26T15:07:10.216985,1510,-0.470183,0.309725,1.637625,-0.002597,-0.045124,0.989547
2011-09-26T15:07:10.226985,1520,-0.491112,0.326534,1.619678,-0.002806,-0.044103,0.989633
2011-09-26T15:07:10.236985,1530,-0.512042,0.343343,1.601732,-0.003016,-0.043082,0.989720
2011-09-26T15:07:10.246985,1540,-0.532971,0.360151,1.583785,-0.003226,-0.042061,0.989807
2011-09-26T15:07:10.256985,1550,-0.553900,0.376960,1.565838,-0.003435,-0.041040,0.989894
2011-09-26T15:07:10.266985,1560,-0.619114,0.384956,1.577316,-0.004117,-0.042024,0.991087
2011-09-26T15:07:10.276985,1570,-0.684568,0.392904,1.588953,-0.004802,-0.043019,0.992287
2011-09-26T15:07:10.286985,1580,-0.750022,0.400852,1.600591,-0.005486,-0.044014,0.993486
2011-09-26T15:07:10.296985,1590,-0.815476,0.408800,1.612228,-0.006171,-0.045009,0.994685
2011-09-26T15:07:10.306985,1600,-0.880930,0.416748,1.623866,-0.006856,-0.046004,0.995885
2011-09-26T15:07:10.316985,1610,-0.946383,0.424696,1.635503,-0.007540,-0.046999,0.997084
2011-09-26T15:07:10.326985,1620,-1.011837,0.432643,1.647141,-0.008225,-0.047994,0.998284
2011-09-26T15:07:10.336985,1630,-1.077291,0.440591,1.658778,-0.008909,-0.048989,0.999483
2011-09-26T15:07:10.346985,1640,-1.142745,0.448539,1.670415,-0.009594,-0.049984,1.000682
2011-09-26T15:07:10.356985,1650,-1.208199,0.456487,1.682053,-0.010279,-0.050979,1.001882
2011-09-26T15:07:10.366985,1660,-1.230198,0.484260,1.709628,-0.010059,-0.053003,1.002300
2011-09-26T15:07:10.376985,1670,-1.252132,0.512063,1.737227,-0.009839,-0.055028,1.002717
2011-09-26T15:07:10.386985,1680,-1.274066,0.539866,1.764826,-0.009618,-0.057053,1.003134
2011-09-26T15:07:10.396985,1690,-1.296000,0.567669,1.792425,-0.009398,-0.059078,1.003551
2011-09-26T15:07:10.406985,1700,-1.317934,0.595472,1.820024,-0.009177,-0.061103,1.003968
2011-09-26T15:07:10.416985,1710,-1.339869,0.623275,1.847623,-0.008956,-0.063128,1.004385
2011-09-26T15:07:10.426985,1720,-1.361803,0.651078,1.875222,-0.008736,-0.065153,1.004802
2011-09-26T15:07:10.436985,1730,-1.383737,0.678881,1.902821,-0.008515,-0.067178,1.005219
2011-09-26T15:07:10.446985,1740,-1.405671,0.706684,1.930420,-0.008295,-0.069204,1.005636
2011-09-26T15:07:10.456985,1750,-1.427605,0.734487,1.958019,-0.008074,-0.071229,1.006053
2011-09-26T15:07:10.466985,1760,-1.449539,0.762290,1.985618,-0.007854,-0.073254,1.006470
2011-09-26T15:07:10.476985,1770,-1.426460,0.777277,1.991120,-0.008611,-0.072166,1.005814
2011-09-26T15:07:10.486985,1780,-1.403165,0.792202,1.996517,-0.009374,-0.071063,1.005153
2011-09-26T15:07:10.496985,1790,-1.379870,0.807127,2.001913,-0.010136,-0.069961,1.004492
2011-09-26T15:07:10.506985,1800,-1.356574,0.822052,2.007310,-0.010898,-0.068858,1.003831
2011-09-26T15:07:10.516985,1810,-1.333279,0.836977,2.012706,-0.011661,-0.067756,1.003170
2011-09-26T15:07:10.526985,1820,-1.309984,0.851902,2.018102,-0.012423,-0.066653,1.002509
2011-09-26T15:07:10.536985,1830,-1.286689,0.866827,2.023499,-0.013186,-0.065550,1.001848
2011-09-26T15:07:10.546985,1840,-1.263393,0.881752,2.028895,-0.013948,-0.064448,1.001187
2011-09-26T15:07:10.556985,1850,-1.240098,0.896677,2.034291,-0.014710,-0.063345,1.000526
2011-09-26T15:07:10.566985,1860,-1.216803,0.911602,2.039688,-0.015473,-0.062242,0.999865
2011-09-26T15:07:10.576985,1870,-1.169663,0.923499,2.022669,-0.015535,-0.062919,1.000361
2011-09-26T15:07:10.586985,1880,-1.122342,0.935373,2.005481,-0.015592,-0.063610,1.000867
2011-09-26T15:07:10.596985,1890,-1.075022,0.947247,1.988294,-0.015650,-0.064300,1.001372
2011-09-26T15:07:10.606985,1900,-1.027701,0.959121,1.971106,-0.015707,-0.064990,1.001878
2011-09-26T15:07:10.616985,1910,-0.980381,0.970995,1.953918,-0.015764,-0.065681,1.002383
2011-09-26T15:07:10.626985,1920,-0.933061,0.982869,1.936731,-0.015821,-0.066371,1.002888
2011-09-26T15:07:10.636985,1930,-0.885740,0.994742,1.919543,-0.015878,-0.067061,1.003394
2011-09-26T15:07:10.646985,1940,-0.838420,1.006616,1.902355,-0.015935,-0.067752,1.003899
2011-09-26T15:07:10.656985,1950,-0.791100,1.018490,1.885167,-0.015992,-0.068442,1.004405
2011-09-26T15:07:10.666985,1960,-0.743779,1.030364,1.867980,-0.016049,-0.069132,1.004910
2011-09-26T15:07:10.676985,1970,-0.712414,1.068875,1.866611,-0.017397,-0.069212,1.005015
2011-09-26T15:07:10.686985,1980,-0.681198,1.107636,1.865392,-0.018757,-0.069285,1.005116
2011-09-26T15:07:10.696985,1990,-0.649983,1.146396,1.864172,-0.020117,-0.069358,1.005216
2011-09-26T15:07:10.706985,2000,-0.618767,1.185157,1.862952,-0.021477,-0.069431,1.005317
2011-09-26T15:07:10.716985,2010,-0.587551,1.223918,1.861733,-0.022837,-0.069505,1.005418
2011-09-26T15:07:10.726985,2020,-0.556336,1.262678,1.860513,-0.024197,-0.069578,1.005519
2011-09-26T15:07:10.736985,2030,-0.525120,1.301439,1.859293,-0.025557,-0.069651,1.005620
2011-09-26T15:07:10.746985,2040,-0.493905,1.340200,1.858074,-0.026917,-0.069725,1.005721
2011-09-26T15:07:10.756985,2050,-0.462689,1.378960,1.856854,-0.028277,-0.069798,1.005822
2011-09-26T15:07:10.766985,2060,-0.431473,1.417721,1.855634,-0.029637,-0.069871,1.005923
2011-09-26T15:07:10.776985,2070,-0.400258,1.456482,1.854415,-0.030997,-0.069944,1.006024
2011-09-26T15:07:10.786985,2080,-0.367377,1.447731,1.869613,-0.030924,-0.069691,1.004639
2011-09-26T15:07:10.796985,2090,-0.334483,1.438633,1.884931,-0.030840,-0.069436,1.003243
2011-09-26T15:07:10.806985,2100,-0.301590,1.429534,1.900250,-0.030756,-0.069180,1.001848
2011-09-26T15:07:10.816985,2110,-0.268696,1.420435,1.915568,-0.030672,-0.068925,1.000452
2011-09-26T15:07:10.826985,2120,-0.235803,1.411336,1.930887,-0.030589,-0.068669,0.999057
2011-09-26T15:07:10.836985,2130,-0.202910,1.402238,1.946206,-0.030505,-0.068414,0.997661
2011-09-26T15:07:10.846985,2140,-0.170016,1.393139,1.961524,-0.030421,-0.068158,0.996266
2011-09-26T15:07:10.856985,2150,-0.137123,1.384040,1.976843,-0.030337,-0.067903,0.994870
2011-09-26T15:07:10.866985,2160,-0.104229,1.374941,1.992161,-0.030253,-0.067647,0.993475
2011-09-26T15:07:10.876985,2170,-0.071336,1.365843,2.007480,-0.030169,-0.067392,0.992079
2011-09-26T15:07:10.886985,2180,-0.076633,1.363396,1.994000,-0.031120,-0.066414,0.992692
2011-09-26T15:07:10.896985,2190,-0.082370,1.361026,1.980188,-0.032083,-0.065428,0.993329
2011-09-26T15:07:10.906985,2200,-0.088108,1.358657,1.966377,-0.033047,-0.064442,0.993965
2011-09-26T15:07:10.916985,2210,-0.093845,1.356287,1.952565,-0.034010,-0.063456,0.994601
2011-09-26T15:07:10.926985,2220,-0.099582,1.353917,1.938753,-0.034973,-0.062471,0.995237
2011-09-26T15:07:10.936985,2230,-0.105319,1.351547,1.924941,-0.035936,-0.061485,0.995873
2011-09-26T15:07:10.946985,2240,-0.111057,1.349178,1.911130,-0.036899,-0.060499,0.996510
2011-09-26T15:07:10.956985,2250,-0.116794,1.346808,1.897318,-0.037862,-0.059513,0.997146
2011-09-26T15:07:10.966985,2260,-0.122531,1.344438,1.883506,-0.038825,-0.058527,0.997782
2011-09-26T15:07:10.976985,2270,-0.128269,1.342068,1.869695,-0.039788,-0.057541,0.998418
2011-09-26T15:07:10.986985,2280,-0.141846,1.355648,1.873507,-0.040287,-0.058019,0.997841
2011-09-26T15:07:10.996985,2290,-0.155489,1.369360,1.877467,-0.040783,-0.058509,0.997253
2011-09-26T15:07:11.006985,2300,-0.169132,1.383073,1.881427,-0.041278,-0.058998,0.996665
2011-09-26T15:07:11.016985,2310,-0.182775,1.396785,1.885387,-0.041774,-0.059488,0.996077
2011-09-26T15:07:11.026985,2320,-0.196418,1.410498,1.889347,-0.042269,-0.059978,0.995489
2011-09-26T15:07:11.036985,2330,-0.210061,1.424211,1.893307,-0.042765,-0.060468,0.994902
2011-09-26T15:07:11.046985,2340,-0.223704,1.437923,1.897267,-0.043260,-0.060958,0.994314
2011-09-26T15:07:11.056985,2350,-0.237347,1.451636,1.901227,-0.043756,-0.061448,0.993726
2011-09-26T15:07:11.066985,2360,-0.250990,1.465348,1.905187,-0.044251,-0.061938,0.993138
2011-09-26T15:07:11.076985,2370,-0.264633,1.479061,1.909147,-0.044747,-0.062428,0.992551
2011-09-26T15:07:11.086985,2380,-0.278276,1.492773,1.913106,-0.045242,-0.062917,0.991963
2011-09-26T15:07:11.096985,2390,-0.333085,1.461998,1.927689,-0.044400,-0.062126,0.990133
2011-09-26T15:07:11.106985,2400,-0.388651,1.430402,1.942467,-0.043534,-0.061310,0.988281
2011-09-26T15:07:11.116985,2410,-0.444218,1.398807,1.957246,-0.042667,-0.060495,0.986428
2011-09-26T15:07:11.126985,2420,-0.499785,1.367212,1.972024,-0.041801,-0.059679,0.984576
2011-09-26T15:07:11.136985,2430,-0.555352,1.335617,1.986802,-0.040934,-0.058864,0.982723
2011-09-26T15:07:11.146985,2440,-0.610918,1.304021,2.001580,-0.040068,-0.058049,0.980870
2011-09-26T15:07:11.156985,2450,-0.666485,1.272426,2.016359,-0.039201,-0.057233,0.979018
2011-09-26T15:07:11.166985,2460,-0.722052,1.240831,2.031137,-0.038335,-0.056418,0.977165
2011-09-26T15:07:11.176985,2470,-0.777618,1.209236,2.045915,-0.037468,-0.055602,0.975313
2011-09-26T15:07:11.186985,2480,-0.833185,1.177640,2.060693,-0.036602,-0.054787,0.973460
2011-09-26T15:07:11.196985,2490,-0.843016,1.156797,2.068642,-0.036725,-0.056431,0.975498
2011-09-26T15:07:11.206985,2500,-0.852179,1.136110,2.076491,-0.036863,-0.058111,0.977592
2011-09-26T15:07:11.216985,2510,-0.861342,1.115423,2.084340,-0.037000,-0.059791,0.979686
2011-09-26T15:07:11.226985,2520,-0.870506,1.094736,2.092189,-0.037138,-0.061471,0.981780
2011-09-26T15:07:11.236985,2530,-0.879669,1.074049,2.100038,-0.037275,-0.063151,0.983875
2011-09-26T15:07:11.246985,2540,-0.888833,1.053362,2.107887,-0.037413,-0.064831,0.985969
2011-09-26T15:07:11.256985,2550,-0.897996,1.032675,2.115736,-0.037550,-0.066511,0.988063
2011-09-26T15:07:11.266985,2560,-0.907159,1.011988,2.123585,-0.037688,-0.068190,0.990157
2011-09-26T15:07:11.276985,2570,-0.916323,0.991302,2.131434,-0.037825,-0.069870,0.992251
2011-09-26T15:07:11.286985,2580,-0.925486,0.970615,2.139283,-0.037963,-0.071550,0.994346
2011-09-26T15:07:11.296985,2590,-0.851162,0.982952,2.146903,-0.038391,-0.073348,0.995338
2011-09-26T15:07:11.306985,2600,-0.776081,0.995589,2.154522,-0.038822,-0.075147,0.996320
2011-09-26T15:07:11.316985,2610,-0.701000,1.008226,2.162140,-0.039253,-0.076946,0.997302
2011-09-26T15:07:11.326985,2620,-0.625919,1.020862,2.169758,-0.039684,-0.078744,0.998284
2011-09-26T15:07:11.336985,2630,-0.550837,1.033499,2.177377,-0.040115,-0.080543,0.999267
2011-09-26T15:07:11.346985,2640,-0.475756,1.046136,2.184995,-0.040546,-0.082342,1.000249
2011-09-26T15:07:11.356985,2650,-0.400675,1.058773,2.192614,-0.040977,-0.084141,1.001231
2011-09-26T15:07:11.366985,2660,-0.325594,1.071410,2.200232,-0.041408,-0.085940,1.002213
2011-09-26T15:07:11.376985,2670,-0.250513,1.084046,2.207850,-0.041839,-0.087739,1.003195
2011-09-26T15:07:11.386985,2680,-0.175432,1.096683,2.215469,-0.042270,-0.089537,1.004178
2011-09-26T15:07:11.396985,2690,-0.100351,1.109320,2.223087,-0.042701,-0.091336,1.005160
2011-09-26T15:07:11.406985,2700,0.019350,1.095557,2.226506,-0.043341,-0.090098,1.005371
2011-09-26T15:07:11.416985,2710,0.139524,1.081514,2.229881,-0.043983,-0.088827,1.005574
2011-09-26T15:07:11.426985,2720,0.259697,1.067471,2.233255,-0.044625,-0.087556,1.005777
2011-09-26T15:07:11.436985,2730,0.379870,1.053428,2.236630,-0.045267,-0.086286,1.005981
2011-09-26T15:07:11.446985,2740,0.500043,1.039385,2.240004,-0.045909,-0.085015,1.006184
2011-09-26T15:07:11.456985,2750,0.620217,1.025342,2.243379,-0.046552,-0.083744,1.006387
2011-09-26T15:07:11.466985,2760,0.740390,1.011299,2.246753,-0.047194,-0.082474,1.006590
2011-09-26T15:07:11.476985,2770,0.860563,0.997256,2.250128,-0.047836,-0.081203,1.006793
2011-09-26T15:07:11.486985,2780,0.980737,0.983213,2.253502,-0.048478,-0.079933,1.006996
2011-09-26T15:07:11.496985,2790,1.100910,0.969170,2.256877,-0.049120,-0.078662,1.007200
2011-09-26T15:07:11.506985,2800,1.147883,0.975913,2.241164,-0.049999,-0.076166,1.008118
2011-09-26T15:07:11.516985,2810,1.194459,0.982768,2.225348,-0.050879,-0.073663,1.009040
2011-09-26T15:07:11.526985,2820,1.241035,0.989623,2.209532,-0.051759,-0.071160,1.009962
2011-09-26T15:07:11.536985,2830,1.287611,0.996478,2.193716,-0.052639,-0.068658,1.010884
2011-09-26T15:07:11.546985,2840,1.334187,1.003333,2.177900,-0.053519,-0.066155,1.011806
2011-09-26T15:07:11.556985,2850,1.380764,1.010188,2.162084,-0.054399,-0.063652,1.012728
2011-09-26T15:07:11.566985,2860,1.427340,1.017043,2.146268,-0.055279,-0.061150,1.013650
2011-09-26T15:07:11.576985,2870,1.473916,1.023898,2.130452,-0.056159,-0.058647,1.014572
2011-09-26T15:07:11.586985,2880,1.520492,1.030753,2.114636,-0.057039,-0.056144,1.015494
2011-09-26T15:07:11.596985,2890,1.567068,1.037609,2.098820,-0.057919,-0.053642,1.016416
2011-09-26T15:07:11.606985,2900,1.476059,1.065602,2.083067,-0.057009,-0.052223,1.013883
2011-09-26T15:07:11.616985,2910,1.380869,1.094238,2.067316,-0.056045,-0.050837,1.011245
2011-09-26T15:07:11.626985,2920,1.285679,1.122873,2.051565,-0.055081,-0.049452,1.008606
2011-09-26T15:07:11.636985,2930,1.190490,1.151509,2.035815,-0.054117,-0.048066,1.005968
2011-09-26T15:07:11.646985,2940,1.095300,1.180145,2.020064,-0.053153,-0.046681,1.003330
2011-09-26T15:07:11.656985,2950,1.000110,1.208781,2.004313,-0.052189,-0.045295,1.000691
2011-09-26T15:07:11.666985,2960,0.904920,1.237416,1.988562,-0.051225,-0.043910,0.998053
2011-09-26T15:07:11.676985,2970,0.809730,1.266052,1.972811,-0.050261,-0.042524,0.995415
2011-09-26T15:07:11.686985,2980,0.714540,1.294688,1.957060,-0.049297,-0.041138,0.992776
2011-09-26T15:07:11.696985,2990,0.619350,1.323324,1.941309,-0.048333,-0.039753,0.990138
2011-09-26T15:07:11.706985,3000,0.524161,1.351959,1.925558,-0.047369,-0.038367,0.987500
2011-09-26T15:07:11.716985,3010,0.430255,1.347569,1.922692,-0.046182,-0.039107,0.983741
2011-09-26T15:07:11.726985,3020,0.336368,1.342708,1.920010,-0.044991,-0.039877,0.979966
2011-09-26T15:07:11.736985,3030,0.242480,1.337846,1.917328,-0.043800,-0.040647,0.976191
2011-09-26T15:07:11.746985,3040,0.148593,1.332984,1.914646,-0.042610,-0.041418,0.972416
2011-09-26T15:07:11.756985,3050,0.054706,1.328123,1.911964,-0.041419,-0.042188,0.968641
2011-09-26T15:07:11.766985,3060,-0.039182,1.323261,1.909282,-0.040228,-0.042958,0.964866
2011-09-26T15:07:11.776985,3070,-0.133069,1.318399,1.906600,-0.039037,-0.043728,0.961091
2011-09-26T15:07:11.786985,3080,-0.226956,1.313538,1.903918,-0.037847,-0.044498,0.957316
2011-09-26T15:07:11.796985,3090,-0.320844,1.308676,1.901236,-0.036656,-0.045269,0.953541
2011-09-26T15:07:11.806985,3100,-0.414731,1.303814,1.898554,-0.035465,-0.046039,0.949766
2011-09-26T15:07:11.816985,3110,-0.510952,1.269071,1.857702,-0.036626,-0.046176,0.953107
2011-09-26T15:07:11.826985,3120,-0.607199,1.234002,1.816433,-0.037812,-0.046306,0.956526
2011-09-26T15:07:11.836985,3130,-0.703446,1.198932,1.775164,-0.038998,-0.046436,0.959945
2011-09-26T15:07:11.846985,3140,-0.799693,1.163863,1.733896,-0.040185,-0.046566,0.963364
2011-09-26T15:07:11.856985,3150,-0.895940,1.128794,1.692627,-0.041371,-0.046696,0.966782
2011-09-26T15:07:11.866985,3160,-0.992187,1.093724,1.651358,-0.042557,-0.046826,0.970201
2011-09-26T15:07:11.876985,3170,-1.088434,1.058655,1.610089,-0.043743,-0.046956,0.973620
2011-09-26T15:07:11.886985,3180,-1.184681,1.023585,1.568821,-0.044930,-0.047086,0.977039
2011-09-26T15:07:11.896985,3190,-1.280928,0.988516,1.527552,-0.046116,-0.047217,0.980458
2011-09-26T15:07:11.906985,3200,-1.377175,0.953447,1.486283,-0.047302,-0.047347,0.983877
2011-09-26T15:07:11.916985,3210,-1.473422,0.918377,1.445014,-0.048488,-0.047477,0.987295
2011-09-26T15:07:11.926985,3220,-1.483106,0.931378,1.417322,-0.048426,-0.050622,0.990697
2011-09-26T15:07:11.936985,3230,-1.491688,0.944992,1.389803,-0.048348,-0.053806,0.994099
2011-09-26T15:07:11.946985,3240,-1.500269,0.958605,1.362284,-0.048270,-0.056990,0.997500
2011-09-26T15:07:11.956985,3250,-1.508851,0.972218,1.334764,-0.048192,-0.060174,1.000902
2011-09-26T15:07:11.966985,3260,-1.517433,0.985831,1.307245,-0.048114,-0.063358,1.004304
2011-09-26T15:07:11.976985,3270,-1.526015,0.999445,1.279726,-0.048036,-0.066541,1.007705
2011-09-26T15:07:11.986985,3280,-1.534597,1.013058,1.252206,-0.047958,-0.069725,1.011107
2011-09-26T15:07:11.996985,3290,-1.543179,1.026671,1.224687,-0.047880,-0.072909,1.014509
2011-09-26T15:07:12.006985,3300,-1.551760,1.040284,1.197168,-0.047802,-0.076093,1.017910
2011-09-26T15:07:12.016985,3310,-1.560342,1.053897,1.169649,-0.047725,-0.079277,1.021312
2011-09-26T15:07:12.026985,3320,-1.516917,1.150782,1.190004,-0.048119,-0.078989,1.020601
2011-09-26T15:07:12.036985,3330,-1.472793,1.248787,1.211005,-0.048519,-0.078653,1.019836
2011-09-26T15:07:12.046985,3340,-1.428668,1.346792,1.232005,-0.048920,-0.078318,1.019070
2011-09-26T15:07:12.056985,3350,-1.384543,1.444797,1.253005,-0.049320,-0.077983,1.018304
2011-09-26T15:07:12.066985,3360,-1.340419,1.542802,1.274005,-0.049721,-0.077648,1.017538
2011-09-26T15:07:12.076985,3370,-1.296294,1.640807,1.295006,-0.050121,-0.077313,1.016773
2011-09-26T15:07:12.086985,3380,-1.252169,1.738812,1.316006,-0.050522,-0.076978,1.016007
2011-09-26T15:07:12.096985,3390,-1.208044,1.836817,1.337006,-0.050922,-0.076643,1.015241
2011-09-26T15:07:12.106985,3400,-1.163920,1.934822,1.358006,-0.051323,-0.076308,1.014475
2011-09-26T15:07:12.116985,3410,-1.119795,2.032827,1.379007,-0.051723,-0.075973,1.013710
2011-09-26T15:07:12.126985,3420,-1.102289,2.085353,1.347713,-0.051340,-0.074486,1.010367
2011-09-26T15:07:12.136985,3430,-1.085313,2.136973,1.315379,-0.050942,-0.072975,1.006973
2011-09-26T15:07:12.146985,3440,-1.068336,2.188594,1.283045,-0.050543,-0.071465,1.003580
2011-09-26T15:07:12.156985,3450,-1.051360,2.240215,1.250711,-0.050145,-0.069955,1.000186
2011-09-26T15:07:12.166985,3460,-1.034384,2.291836,1.218378,-0.049747,-0.068445,0.996792
2011-09-26T15:07:12.176985,3470,-1.017408,2.343457,1.186044,-0.049348,-0.066934,0.993398
2011-09-26T15:07:12.186985,3480,-1.000431,2.395078,1.153710,-0.048950,-0.065424,0.990004
2011-09-26T15:07:12.196985,3490,-0.983455,2.446699,1.121376,-0.048551,-0.063914,0.986611
2011-09-26T15:07:12.206985,3500,-0.966479,2.498320,1.089042,-0.048153,-0.062403,0.983217
2011-09-26T15:07:12.216985,3510,-0.949503,2.549941,1.056708,-0.047755,-0.060893,0.979823
2011-09-26T15:07:12.226985,3520,-0.932526,2.601561,1.024374,-0.047356,-0.059383,0.976429
2011-09-26T15:07:12.236985,3530,-0.907630,2.588923,1.017199,-0.048322,-0.062496,0.974828
2011-09-26T15:07:12.246985,3540,-0.882677,2.575827,1.010203,-0.049297,-0.065642,0.973239
2011-09-26T15:07:12.256985,3550,-0.857725,2.562731,1.003208,-0.050272,-0.068788,0.971650
2011-09-26T15:07:12.266985,3560,-0.832772,2.549635,0.996212,-0.051247,-0.071935,0.970061
2011-09-26T15:07:12.276985,3570,-0.807819,2.536539,0.989216,-0.052222,-0.075081,0.968472
2011-09-26T15:07:12.286985,3580,-0.782867,2.523442,0.982220,-0.053197,-0.078227,0.966884
2011-09-26T15:07:12.296985,3590,-0.757914,2.510346,0.975224,-0.054172,-0.081373,0.965295
2011-09-26T15:07:12.306985,3600,-0.732961,2.497250,0.968229,-0.055148,-0.084519,0.963706
2011-09-26T15:07:12.316985,3610,-0.708009,2.484154,0.961233,-0.056123,-0.087666,0.962117
2011-09-26T15:07:12.326985,3620,-0.683056,2.471058,0.954237,-0.057098,-0.090812,0.960528
2011-09-26T15:07:12.336985,3630,-0.698464,2.431138,0.944948,-0.058056,-0.088067,0.962583
2011-09-26T15:07:12.346985,3640,-0.714267,2.390955,0.935637,-0.059014,-0.085264,0.964673
2011-09-26T15:07:12.356985,3650,-0.730069,2.350773,0.926326,-0.059972,-0.082461,0.966763
2011-09-26T15:07:12.366985,3660,-0.745872,2.310591,0.917014,-0.060930,-0.079659,0.968853
2011-09-26T15:07:12.376985,3670,-0.761675,2.270408,0.907703,-0.061889,-0.076856,0.970943
2011-09-26T15:07:12.386985,3680,-0.777477,2.230226,0.898392,-0.062847,-0.074053,0.973034
2011-09-26T15:07:12.396985,3690,-0.793280,2.190043,0.889080,-0.063805,-0.071251,0.975124
2011-09-26T15:07:12.406985,3700,-0.809083,2.149861,0.879769,-0.064763,-0.068448,0.977214
2011-09-26T15:07:12.416985,3710,-0.824886,2.109678,0.870458,-0.065721,-0.065645,0.979304
2011-09-26T15:07:12.426985,3720,-0.840688,2.069496,0.861146,-0.066679,-0.062843,0.981394
2011-09-26T15:07:12.436985,3730,-0.811853,1.992516,0.817024,-0.069105,-0.065168,0.982268
2011-09-26T15:07:12.446985,3740,-0.782613,1.915203,0.772587,-0.071545,-0.067540,0.983131
2011-09-26T15:07:12.456985,3750,-0.753374,1.837889,0.728149,-0.073984,-0.069912,0.983994
2011-09-26T15:07:12.466985,3760,-0.724134,1.760576,0.683712,-0.076424,-0.072284,0.984858
2011-09-26T15:07:12.476985,3770,-0.694894,1.683262,0.639274,-0.078863,-0.074656,0.985721
2011-09-26T15:07:12.486985,3780,-0.665654,1.605949,0.594836,-0.081302,-0.077028,0.986584
2011-09-26T15:07:12.496985,3790,-0.636414,1.528635,0.550399,-0.083742,-0.079400,0.987447
2011-09-26T15:07:12.506985,3800,-0.607175,1.451322,0.505961,-0.086181,-0.081772,0.988310
2011-09-26T15:07:12.516985,3810,-0.577935,1.374008,0.461523,-0.088621,-0.084143,0.989173
2011-09-26T15:07:12.526985,3820,-0.548695,1.296695,0.417086,-0.091060,-0.086515,0.990036
2011-09-26T15:07:12.536985,3830,-0.519455,1.219382,0.372648,-0.093500,-0.088887,0.990899
2011-09-26T15:07:12.546985,3840,-0.415188,1.197220,0.428139,-0.094149,-0.092539,0.993167
2011-09-26T15:07:12.556985,3850,-0.309586,1.176040,0.485408,-0.094766,-0.096213,0.995459
2011-09-26T15:07:12.566985,3860,-0.203984,1.154860,0.542677,-0.095383,-0.099887,0.997752
2011-09-26T15:07:12.576985,3870,-0.098383,1.133680,0.599946,-0.096000,-0.103562,1.000044
2011-09-26T15:07:12.586985,3880,0.007219,1.112500,0.657215,-0.096617,-0.107236,1.002337
2011-09-26T15:07:12.596985,3890,0.112821,1.091320,0.714484,-0.097234,-0.110910,1.004629
2011-09-26T15:07:12.606985,3900,0.218423,1.070140,0.771753,-0.097851,-0.114585,1.006922
2011-09-26T15:07:12.616985,3910,0.324025,1.048960,0.829022,-0.098468,-0.118259,1.009214
2011-09-26T15:07:12.626985,3920,0.429627,1.027780,0.886291,-0.099085,-0.121933,1.011506
2011-09-26T15:07:12.636985,3930,0.535229,1.006600,0.943560,-0.099702,-0.125608,1.013799
2011-09-26T15:07:12.646985,3940,0.668095,1.048367,0.943184,-0.099576,-0.120766,1.012878
2011-09-26T15:07:12.656985,3950,0.801837,1.092154,0.940958,-0.099426,-0.115651,1.011854
2011-09-26T15:07:12.666985,3960,0.935578,1.135941,0.938733,-0.099277,-0.110537,1.010830
2011-09-26T15:07:12.676985,3970,1.069320,1.179727,0.936507,-0.099127,-0.105422,1.009806
2011-09-26T15:07:12.686985,3980,1.203061,1.223514,0.934282,-0.098977,-0.100307,1.008782
2011-09-26T15:07:12.696985,3990,1.336803,1.267301,0.932056,-0.098827,-0.095193,1.007758
2011-09-26T15:07:12.706985,4000,1.470544,1.311087,0.929830,-0.098678,-0.090078,1.006734
2011-09-26T15:07:12.716985,4010,1.604286,1.354874,0.927605,-0.098528,-0.084963,1.005710
2011-09-26T15:07:12.726985,4020,1.738027,1.398661,0.925379,-0.098378,-0.079849,1.004686
2011-09-26T15:07:12.736985,4030,1.871769,1.442448,0.923154,-0.098228,-0.074734,1.003662
2011-09-26T15:07:12.746985,4040,1.810092,1.481240,0.884241,-0.099524,-0.072204,1.003002
2011-09-26T15:07:12.756985,4050,1.745181,1.519950,0.844721,-0.100843,-0.069717,1.002349
2011-09-26T15:07:12.766985,4060,1.680270,1.558660,0.805201,-0.102162,-0.067230,1.001696
2011-09-26T15:07:12.776985,4070,1.615359,1.597370,0.765681,-0.103481,-0.064742,1.001042
2011-09-26T15:07:12.786985,4080,1.550448,1.636080,0.726161,-0.104800,-0.062255,1.000389
2011-09-26T15:07:12.796985,4090,1.485536,1.674790,0.686641,-0.106119,-0.059768,0.999736
2011-09-26T15:07:12.806985,4100,1.420625,1.713499,0.647121,-0.107439,-0.057280,0.999082
2011-09-26T15:07:12.816985,4110,1.355714,1.752209,0.607601,-0.108758,-0.054793,0.998429
2011-09-26T15:07:12.826985,4120,1.290803,1.790919,0.568081,-0.110077,-0.052306,0.997776
2011-09-26T15:07:12.836985,4130,1.225892,1.829629,0.528561,-0.111396,-0.049819,0.997122
2011-09-26T15:07:12.846985,4140,1.160980,1.868339,0.489041,-0.112715,-0.047331,0.996469
2011-09-26T15:07:12.856985,4150,1.061260,1.846906,0.473416,-0.110998,-0.048172,0.993662
2011-09-26T15:07:12.866985,4160,0.960931,1.824422,0.458210,-0.109227,-0.049071,0.990817
2011-09-26T15:07:12.876985,4170,0.860602,1.801937,0.443004,-0.107456,-0.049969,0.987972
2011-09-26T15:07:12.886985,4180,0.760273,1.779452,0.427797,-0.105686,-0.050868,0.985127
2011-09-26T15:07:12.896985,4190,0.659944,1.756968,0.412591,-0.103915,-0.051767,0.982282
2011-09-26T15:07:12.906985,4200,0.559616,1.734483,0.397384,-0.102144,-0.052666,0.979437
2011-09-26T15:07:12.916985,4210,0.459287,1.711999,0.382178,-0.100374,-0.053565,0.976592
2011-09-26T15:07:12.926985,4220,0.358958,1.689514,0.366972,-0.098603,-0.054463,0.973747
2011-09-26T15:07:12.936985,4230,0.258629,1.667030,0.351765,-0.096832,-0.055362,0.970902
2011-09-26T15:07:12.946985,4240,0.158300,1.644545,0.336559,-0.095062,-0.056261,0.968057
2011-09-26T15:07:12.956985,4250,0.129905,1.611183,0.373717,-0.093813,-0.058368,0.969594
2011-09-26T15:07:12.966985,4260,0.102612,1.577655,0.411677,-0.092573,-0.060493,0.971199
2011-09-26T15:07:12.976985,4270,0.075319,1.544127,0.449637,-0.091333,-0.062619,0.972803
2011-09-26T15:07:12.986985,4280,0.048026,1.510598,0.487597,-0.090093,-0.064744,0.974408
2011-09-26T15:07:12.996985,4290,0.020733,1.477070,0.525557,-0.088853,-0.066870,0.976013
2011-09-26T15:07:13.006985,4300,-0.006560,1.443542,0.563518,-0.087612,-0.068995,0.977618
2011-09-26T15:07:13.016985,4310,-0.033853,1.410013,0.601478,-0.086372,-0.071121,0.979222
2011-09-26T15:07:13.026985,4320,-0.061146,1.376485,0.639438,-0.085132,-0.073246,0.980827
2011-09-26T15:07:13.036985,4330,-0.088439,1.342957,0.677398,-0.083892,-0.075372,0.982432
2011-09-26T15:07:13.046985,4340,-0.115732,1.309428,0.715358,-0.082652,-0.077497,0.984036
2011-09-26T15:07:13.056985,4350,0.021491,1.347419,0.697224,-0.083204,-0.078250,0.987014
2011-09-26T15:07:13.066985,4360,0.161898,1.386795,0.678004,-0.083792,-0.078976,0.990019
2011-09-26T15:07:13.076985,4370,0.302306,1.426171,0.658784,-0.084379,-0.079702,0.993023
2011-09-26T15:07:13.086985,4380,0.442713,1.465547,0.639564,-0.084967,-0.080427,0.996028
2011-09-26T15:07:13.096985,4390,0.583121,1.504923,0.620344,-0.085554,-0.081153,0.999032
2011-09-26T15:07:13.106985,4400,0.723528,1.544299,0.601124,-0.086142,-0.081879,1.002037
2011-09-26T15:07:13.116985,4410,0.863936,1.583675,0.581904,-0.086729,-0.082605,1.005041
2011-09-26T15:07:13.126985,4420,1.004343,1.623051,0.562684,-0.087317,-0.083331,1.008045
2011-09-26T15:07:13.136985,4430,1.144751,1.662427,0.543464,-0.087904,-0.084057,1.011050
2011-09-26T15:07:13.146985,4440,1.285159,1.701803,0.524244,-0.088492,-0.084783,1.014054
2011-09-26T15:07:13.156985,4450,1.425566,1.741179,0.505024,-0.089079,-0.085509,1.017059
2011-09-26T15:07:13.166985,4460,1.467242,1.756647,0.488523,-0.090433,-0.083647,1.014595
2011-09-26T15:07:13.176985,4470,1.505507,1.771289,0.472116,-0.091813,-0.081696,1.011943
2011-09-26T15:07:13.186985,4480,1.543771,1.785932,0.455708,-0.093194,-0.079744,1.009291
2011-09-26T15:07:13.196985,4490,1.582036,1.800574,0.439301,-0.094574,-0.077793,1.006638
2011-09-26T15:07:13.206985,4500,1.620300,1.815216,0.422894,-0.095954,-0.075842,1.003986
2011-09-26T15:07:13.216985,4510,1.658565,1.829858,0.406486,-0.097334,-0.073891,1.001333
2011-09-26T15:07:13.226985,4520,1.696829,1.844500,0.390079,-0.098715,-0.071939,0.998681
2011-09-26T15:07:13.236985,4530,1.735094,1.859142,0.373671,-0.100095,-0.069988,0.996029
2011-09-26T15:07:13.246985,4540,1.773359,1.873784,0.357264,-0.101475,-0.068037,0.993376
2011-09-26T15:07:13.256985,4550,1.811623,1.888427,0.340857,-0.102856,-0.066086,0.990724
2011-09-26T15:07:13.266985,4560,1.680162,1.856356,0.345865,-0.102904,-0.063291,0.987884
2011-09-26T15:07:13.276985,4570,1.545312,1.823353,0.351302,-0.102925,-0.060480,0.985040
2011-09-26T15:07:13.286985,4580,1.410461,1.790349,0.356738,-0.102946,-0.057668,0.982196
2011-09-26T15:07:13.296985,4590,1.275611,1.757346,0.362175,-0.102968,-0.054857,0.979352
2011-09-26T15:07:13.306985,4600,1.140760,1.724342,0.367611,-0.102989,-0.052045,0.976508
2011-09-26T15:07:13.316985,4610,1.005910,1.691339,0.373048,-0.103010,-0.049234,0.973664
2011-09-26T15:07:13.326985,4620,0.871060,1.658336,0.378484,-0.103032,-0.046422,0.970820
2011-09-26T15:07:13.336985,4630,0.736209,1.625332,0.383921,-0.103053,-0.043611,0.967976
2011-09-26T15:07:13.346985,4640,0.601359,1.592329,0.389357,-0.103074,-0.040800,0.965132
2011-09-26T15:07:13.356985,4650,0.466508,1.559325,0.394794,-0.103096,-0.037988,0.962288
2011-09-26T15:07:13.366985,4660,0.395946,1.527400,0.365233,-0.105636,-0.039472,0.964037
2011-09-26T15:07:13.376985,4670,0.326620,1.495495,0.334998,-0.108225,-0.041039,0.965874
2011-09-26T15:07:13.386985,4680,0.257294,1.463591,0.304764,-0.110814,-0.042606,0.967710
2011-09-26T15:07:13.396985,4690,0.187968,1.431686,0.274530,-0.113403,-0.044172,0.969547
2011-09-26T15:07:13.406985,4700,0.118643,1.399781,0.244296,-0.115992,-0.045739,0.971384
2011-09-26T15:07:13.416985,4710,0.049317,1.367876,0.214061,-0.118582,-0.047306,0.973221
2011-09-26T15:07:13.426985,4720,-0.020009,1.335972,0.183827,-0.121171,-0.048872,0.975057
2011-09-26T15:07:13.436985,4730,-0.089335,1.304067,0.153593,-0.123760,-0.050439,0.976894
2011-09-26T15:07:13.446985,4740,-0.158661,1.272162,0.123359,-0.126349,-0.052006,0.978731
2011-09-26T15:07:13.456985,4750,-0.227986,1.240258,0.093124,-0.128938,-0.053573,0.980567
2011-09-26T15:07:13.466985,4760,-0.297312,1.208353,0.062890,-0.131527,-0.055139,0.982404
2011-09-26T15:07:13.476985,4770,-0.303980,1.086987,0.020504,-0.129832,-0.056881,0.981926
2011-09-26T15:07:13.486985,4780,-0.309028,0.963309,-0.022197,-0.128027,-0.058628,0.981388
2011-09-26T15:07:13.496985,4790,-0.314076,0.839630,-0.064897,-0.126222,-0.060374,0.980850
2011-09-26T15:07:13.506985,4800,-0.319124,0.715952,-0.107597,-0.124417,-0.062121,0.980312
2011-09-26T15:07:13.516985,4810,-0.324172,0.592273,-0.150298,-0.122612,-0.063867,0.979774
2011-09-26T15:07:13.526985,4820,-0.329220,0.468595,-0.192998,-0.120806,-0.065613,0.979236
2011-09-26T15:07:13.536985,4830,-0.334269,0.344917,-0.235699,-0.119001,-0.067360,0.978698
2011-09-26T15:07:13.546985,4840,-0.339317,0.221238,-0.278399,-0.117196,-0.069106,0.978160
2011-09-26T15:07:13.556985,4850,-0.344365,0.097560,-0.321099,-0.115391,-0.070853,0.977622
2011-09-26T15:07:13.566985,4860,-0.349413,-0.026118,-0.363800,-0.113585,-0.072599,0.977084
2011-09-26T15:07:13.576985,4870,-0.291544,-0.089786,-0.400427,-0.110777,-0.072995,0.975058
2011-09-26T15:07:13.586985,4880,-0.232313,-0.152155,-0.436922,-0.107947,-0.073362,0.973000
2011-09-26T15:07:13.596985,4890,-0.173082,-0.214523,-0.473418,-0.105116,-0.073729,0.970943
2011-09-26T15:07:13.606985,4900,-0.113850,-0.276892,-0.509913,-0.102286,-0.074096,0.968885
2011-09-26T15:07:13.616985,4910,-0.054619,-0.339260,-0.546409,-0.099456,-0.074463,0.966827
2011-09-26T15:07:13.626985,4920,0.004612,-0.401629,-0.582904,-0.096626,-0.074831,0.964769
2011-09-26T15:07:13.636985,4930,0.063843,-0.463998,-0.619400,-0.093795,-0.075198,0.962711
2011-09-26T15:07:13.646985,4940,0.123074,-0.526366,-0.655895,-0.090965,-0.075565,0.960654
2011-09-26T15:07:13.656985,4950,0.182305,-0.588735,-0.692391,-0.088135,-0.075932,0.958596
2011-09-26T15:07:13.666985,4960,0.241537,-0.651103,-0.728886,-0.085305,-0.076299,0.956538
2011-09-26T15:07:13.676985,4970,0.300768,-0.713472,-0.765382,-0.082474,-0.076666,0.954480
2011-09-26T15:07:13.686985,4980,0.238154,-0.782223,-0.740363,-0.079793,-0.075898,0.952666
2011-09-26T15:07:13.696985,4990,0.172507,-0.851134,-0.713812,-0.077116,-0.075102,0.950857
2011-09-26T15:07:13.706985,5000,0.106859,-0.920044,-0.687262,-0.074439,-0.074306,0.949049
2011-09-26T15:07:13.716985,5010,0.041212,-0.988955,-0.660711,-0.071761,-0.073510,0.947240
2011-09-26T15:07:13.726985,5020,-0.024436,-1.057865,-0.634161,-0.069084,-0.072714,0.945431
2011-09-26T15:07:13.736985,5030,-0.090083,-1.126776,-0.607610,-0.066407,-0.071918,0.943623
2011-09-26T15:07:13.746985,5040,-0.155730,-1.195687,-0.581060,-0.063729,-0.071121,0.941814
2011-09-26T15:07:13.756985,5050,-0.221378,-1.264597,-0.554509,-0.061052,-0.070325,0.940006
2011-09-26T15:07:13.766985,5060,-0.287025,-1.333508,-0.527959,-0.058375,-0.069529,0.938197
2011-09-26T15:07:13.776985,5070,-0.352672,-1.402418,-0.501408,-0.055698,-0.068733,0.936389
2011-09-26T15:07:13.786985,5080,-0.359331,-1.407460,-0.494888,-0.054195,-0.067401,0.940796
2011-09-26T15:07:13.796985,5090,-0.364695,-1.411100,-0.488807,-0.052718,-0.066058,0.945340
2011-09-26T15:07:13.806985,5100,-0.370059,-1.414740,-0.482727,-0.051242,-0.064714,0.949883
2011-09-26T15:07:13.816985,5110,-0.375423,-1.418380,-0.476646,-0.049765,-0.063371,0.954427
2011-09-26T15:07:13.826985,5120,-0.380786,-1.422020,-0.470566,-0.048288,-0.062027,0.958971
2011-09-26T15:07:13.836985,5130,-0.386150,-1.425659,-0.464485,-0.046811,-0.060684,0.963515
2011-09-26T15:07:13.846985,5140,-0.391514,-1.429299,-0.458404,-0.045335,-0.059340,0.968059
2011-09-26T15:07:13.856985,5150,-0.396878,-1.432939,-0.452324,-0.043858,-0.057997,0.972602
2011-09-26T15:07:13.866985,5160,-0.402242,-1.436579,-0.446243,-0.042381,-0.056653,0.977146
2011-09-26T15:07:13.876985,5170,-0.407605,-1.440219,-0.440163,-0.040904,-0.055310,0.981690
2011-09-26T15:07:13.886985,5180,-0.365610,-1.432613,-0.431527,-0.042195,-0.058383,0.988559
2011-09-26T15:07:13.896985,5190,-0.322426,-1.424726,-0.422826,-0.043556,-0.061568,0.995486
2011-09-26T15:07:13.906985,5200,-0.279241,-1.416838,-0.414126,-0.044917,-0.064752,1.002414
2011-09-26T15:07:13.916985,5210,-0.236057,-1.408950,-0.405426,-0.046277,-0.067937,1.009341
2011-09-26T15:07:13.926985,5220,-0.192873,-1.401063,-0.396726,-0.047638,-0.071121,1.016268
2011-09-26T15:07:13.936985,5230,-0.149688,-1.393175,-0.388025,-0.048998,-0.074306,1.023195
2011-09-26T15:07:13.946985,5240,-0.106504,-1.385287,-0.379325,-0.050359,-0.077490,1.030123
2011-09-26T15:07:13.956985,5250,-0.063320,-1.377400,-0.370625,-0.051719,-0.080675,1.037050
2011-09-26T15:07:13.966985,5260,-0.020135,-1.369512,-0.361925,-0.053080,-0.083859,1.043977
2011-09-26T15:07:13.976985,5270,0.023049,-1.361624,-0.353225,-0.054440,-0.087044,1.050905
2011-09-26T15:07:13.986985,5280,0.066233,-1.353737,-0.344524,-0.055801,-0.090228,1.057832
2011-09-26T15:07:13.996985,5290,0.243459,-1.300954,-0.352703,-0.055121,-0.091654,1.054259
2011-09-26T15:07:14.006985,5300,0.424547,-1.246877,-0.361367,-0.054381,-0.093030,1.050384
2011-09-26T15:07:14.016985,5310,0.605634,-1.192801,-0.370032,-0.053642,-0.094405,1.046509
2011-09-26T15:07:14.026985,5320,0.786722,-1.138724,-0.378697,-0.052903,-0.095781,1.042634
2011-09-26T15:07:14.036985,5330,0.967809,-1.084648,-0.387362,-0.052164,-0.097156,1.038759
2011-09-26T15:07:14.046985,5340,1.148897,-1.030572,-0.396026,-0.051425,-0.098532,1.034884
2011-09-26T15:07:14.056985,5350,1.329985,-0.976495,-0.404691,-0.050686,-0.099907,1.031009
2011-09-26T15:07:14.066985,5360,1.511072,-0.922419,-0.413356,-0.049946,-0.101283,1.027134
2011-09-26T15:07:14.076985,5370,1.692160,-0.868342,-0.422020,-0.049207,-0.102658,1.023259
2011-09-26T15:07:14.086985,5380,1.873248,-0.814266,-0.430685,-0.048468,-0.104034,1.019383
2011-09-26T15:07:14.096985,5390,1.915914,-0.787421,-0.448194,-0.048119,-0.097368,1.014974
2011-09-26T15:07:14.106985,5400,1.953504,-0.761575,-0.466028,-0.047784,-0.090408,1.010545
2011-09-26T15:07:14.116985,5410,1.991094,-0.735730,-0.483862,-0.047449,-0.083448,1.006116
2011-09-26T15:07:14.126985,5420,2.028684,-0.709884,-0.501696,-0.047114,-0.076487,1.001687
2011-09-26T15:07:14.136985,5430,2.066275,-0.684038,-0.519530,-0.046779,-0.069527,0.997258
2011-09-26T15:07:14.146985,5440,2.103865,-0.658192,-0.537364,-0.046444,-0.062567,0.992829
2011-09-26T15:07:14.156985,5450,2.141455,-0.632346,-0.555198,-0.046109,-0.055606,0.988400
2011-09-26T15:07:14.166985,5460,2.179045,-0.606501,-0.573032,-0.045774,-0.048646,0.983972
2011-09-26T15:07:14.176985,5470,2.216635,-0.580655,-0.590866,-0.045439,-0.041686,0.979543
2011-09-26T15:07:14.186985,5480,2.254225,-0.554809,-0.608700,-0.045104,-0.034725,0.975114
2011-09-26T15:07:14.196985,5490,2.109912,-0.571243,-0.641205,-0.046242,-0.033934,0.974445
2011-09-26T15:07:14.206985,5500,1.960109,-0.588953,-0.674154,-0.047425,-0.033330,0.973890
2011-09-26T15:07:14.216985,5510,1.810305,-0.606663,-0.707102,-0.048608,-0.032725,0.973335
2011-09-26T15:07:14.226985,5520,1.660502,-0.624373,-0.740051,-0.049791,-0.032120,0.972780
2011-09-26T15:07:14.236985,5530,1.510699,-0.642083,-0.772999,-0.050974,-0.031515,0.972225
2011-09-26T15:07:14.246985,5540,1.360895,-0.659793,-0.805948,-0.052157,-0.030910,0.971670
2011-09-26T15:07:14.256985,5550,1.211092,-0.677503,-0.838896,-0.053339,-0.030306,0.971115
2011-09-26T15:07:14.266985,5560,1.061289,-0.695213,-0.871845,-0.054522,-0.029701,0.970560
2011-09-26T15:07:14.276985,5570,0.911485,-0.712923,-0.904793,-0.055705,-0.029096,0.970005
2011-09-26T15:07:14.286985,5580,0.761682,-0.730634,-0.937742,-0.056888,-0.028491,0.969450
2011-09-26T15:07:14.296985,5590,0.611879,-0.748344,-0.970690,-0.058071,-0.027887,0.968895
2011-09-26T15:07:14.306985,5600,0.502936,-0.832022,-0.972650,-0.055192,-0.031533,0.967139
2011-09-26T15:07:14.316985,5610,0.394796,-0.916998,-0.974001,-0.052233,-0.035264,0.965361
2011-09-26T15:07:14.326985,5620,0.286657,-1.001975,-0.975352,-0.049274,-0.038994,0.963582
2011-09-26T15:07:14.336985,5630,0.178518,-1.086951,-0.976702,-0.046315,-0.042724,0.961803
2011-09-26T15:07:14.346985,5640,0.070378,-1.171927,-0.978053,-0.043356,-0.046455,0.960024
2011-09-26T15:07:14.356985,5650,-0.037761,-1.256903,-0.979403,-0.040397,-0.050185,0.958245
2011-09-26T15:07:14.366985,5660,-0.145900,-1.341879,-0.980754,-0.037438,-0.053915,0.956466
2011-09-26T15:07:14.376985,5670,-0.254040,-1.426855,-0.982104,-0.034479,-0.057646,0.954687
2011-09-26T15:07:14.386985,5680,-0.362179,-1.511831,-0.983455,-0.031520,-0.061376,0.952908
2011-09-26T15:07:14.396985,5690,-0.470318,-1.596808,-0.984806,-0.028561,-0.065106,0.951130
2011-09-26T15:07:14.406985,5700,-0.318747,-1.527595,-1.007567,-0.028208,-0.066568,0.956216
2011-09-26T15:07:14.416985,5710,-0.162094,-1.455365,-1.030748,-0.027906,-0.067985,0.961437
2011-09-26T15:07:14.426985,5720,-0.005441,-1.383136,-1.053929,-0.027605,-0.069403,0.966658
2011-09-26T15:07:14.436985,5730,0.151211,-1.310906,-1.077110,-0.027303,-0.070820,0.971879
2011-09-26T15:07:14.446985,5740,0.307864,-1.238677,-1.100290,-0.027001,-0.072237,0.977100
2011-09-26T15:07:14.456985,5750,0.464517,-1.166447,-1.123471,-0.026699,-0.073655,0.982321
2011-09-26T15:07:14.466985,5760,0.621170,-1.094218,-1.146652,-0.026397,-0.075072,0.987541
2011-09-26T15:07:14.476985,5770,0.777822,-1.021988,-1.169832,-0.026096,-0.076489,0.992762
2011-09-26T15:07:14.486985,5780,0.934475,-0.949759,-1.193013,-0.025794,-0.077906,0.997983
2011-09-26T15:07:14.496985,5790,1.091128,-0.877530,-1.216194,-0.025492,-0.079324,1.003204
2011-09-26T15:07:14.506985,5800,1.158899,-0.876750,-1.269133,-0.030276,-0.079453,1.003245
2011-09-26T15:07:14.516985,5810,1.223159,-0.878792,-1.323247,-0.035261,-0.079531,1.003081
2011-09-26T15:07:14.526985,5820,1.287420,-0.880835,-1.377361,-0.040246,-0.079609,1.002918
2011-09-26T15:07:14.536985,5830,1.351681,-0.882877,-1.431476,-0.045231,-0.079687,1.002754
2011-09-26T15:07:14.546985,5840,1.415942,-0.884919,-1.485590,-0.050216,-0.079765,1.002590
2011-09-26T15:07:14.556985,5850,1.480203,-0.886961,-1.539704,-0.055200,-0.079843,1.002427
2011-09-26T15:07:14.566985,5860,1.544463,-0.889003,-1.593818,-0.060185,-0.079921,1.002263
2011-09-26T15:07:14.576985,5870,1.608724,-0.891045,-1.647933,-0.065170,-0.079999,1.002099
2011-09-26T15:07:14.586985,5880,1.672985,-0.893087,-1.702047,-0.070155,-0.080077,1.001936
2011-09-26T15:07:14.596985,5890,1.737246,-0.895130,-1.756161,-0.075140,-0.080155,1.001772
2011-09-26T15:07:14.606985,5900,1.801507,-0.897172,-1.810275,-0.080125,-0.080233,1.001608
2011-09-26T15:07:14.616985,5910,2.058420,-1.031049,-1.804922,-0.079792,-0.084425,1.007555
2011-09-26T15:07:14.626985,5920,2.324663,-1.171311,-1.796689,-0.079202,-0.088816,1.013798
2011-09-26T15:07:14.636985,5930,2.590906,-1.311573,-1.788456,-0.078611,-0.093207,1.020041
2011-09-26T15:07:14.646985,5940,2.857148,-1.451835,-1.780223,-0.078021,-0.097598,1.026284
2011-09-26T15:07:14.656985,5950,3.123391,-1.592097,-1.771990,-0.077431,-0.101990,1.032527
2011-09-26T15:07:14.666985,5960,3.389634,-1.732359,-1.763757,-0.076840,-0.106381,1.038770
2011-09-26T15:07:14.676985,5970,3.655877,-1.872621,-1.755524,-0.076250,-0.110772,1.045013
2011-09-26T15:07:14.686985,5980,3.922120,-2.012883,-1.747291,-0.075660,-0.115163,1.051256
2011-09-26T15:07:14.696985,5990,4.188363,-2.153145,-1.739058,-0.075070,-0.119554,1.057499
2011-09-26T15:07:14.706985,6000,4.454606,-2.293408,-1.730825,-0.074479,-0.123945,1.063742
2011-09-26T15:07:14.716985,6010,4.503019,-2.243456,-1.695730,-0.072425,-0.114305,1.058606
2011-09-26T15:07:14.726985,6020,4.545067,-2.187945,-1.659849,-0.070328,-0.104255,1.053137
2011-09-26T15:07:14.736985,6030,4.587114,-2.132435,-1.623968,-0.068231,-0.094205,1.047669
2011-09-26T15:07:14.746985,6040,4.629162,-2.076924,-1.588088,-0.066134,-0.084155,1.042200
2011-09-26T15:07:14.756985,6050,4.671209,-2.021414,-1.552207,-0.064037,-0.074105,1.036732
2011-09-26T15:07:14.766985,6060,4.713257,-1.965903,-1.516326,-0.061940,-0.064055,1.031263
2011-09-26T15:07:14.776985,6070,4.755304,-1.910393,-1.480445,-0.059843,-0.054005,1.025795
2011-09-26T15:07:14.786985,6080,4.797352,-1.854882,-1.444565,-0.057746,-0.043955,1.020326
2011-09-26T15:07:14.796985,6090,4.839400,-1.799372,-1.408684,-0.055649,-0.033905,1.014858
2011-09-26T15:07:14.806985,6100,4.881447,-1.743861,-1.372803,-0.053552,-0.023855,1.009389
2011-09-26T15:07:14.816985,6110,4.778083,-1.708009,-1.426547,-0.053682,-0.020184,1.002980
2011-09-26T15:07:14.826985,6120,4.671645,-1.672572,-1.482185,-0.053858,-0.016648,0.996551
2011-09-26T15:07:14.836985,6130,4.565207,-1.637135,-1.537823,-0.054034,-0.013111,0.990121
2011-09-26T15:07:14.846985,6140,4.458768,-1.601699,-1.593461,-0.054210,-0.009575,0.983692
2011-09-26T15:07:14.856985,6150,4.352330,-1.566262,-1.649099,-0.054387,-0.006039,0.977263
2011-09-26T15:07:14.866985,6160,4.245892,-1.530825,-1.704737,-0.054563,-0.002502,0.970834
2011-09-26T15:07:14.876985,6170,4.139454,-1.495389,-1.760375,-0.054739,0.001034,0.964405
2011-09-26T15:07:14.886985,6180,4.033015,-1.459952,-1.816013,-0.054915,0.004570,0.957976
2011-09-26T15:07:14.896985,6190,3.926577,-1.424515,-1.871652,-0.055092,0.008107,0.951547
2011-09-26T15:07:14.906985,6200,3.820139,-1.389079,-1.927290,-0.055268,0.011643,0.945118
2011-09-26T15:07:14.916985,6210,3.713700,-1.353642,-1.982928,-0.055444,0.015179,0.938688
2011-09-26T15:07:14.926985,6220,3.483233,-1.354041,-1.920010,-0.056808,0.010379,0.943871
2011-09-26T15:07:14.936985,6230,3.249795,-1.355298,-1.854254,-0.058200,0.005379,0.949331
2011-09-26T15:07:14.946985,6240,3.016357,-1.356555,-1.788497,-0.059592,0.000378,0.954792
2011-09-26T15:07:14.956985,6250,2.782919,-1.357812,-1.722741,-0.060985,-0.004622,0.960252
2011-09-26T15:07:14.966985,6260,2.549481,-1.359069,-1.656984,-0.062377,-0.009622,0.965713
2011-09-26T15:07:14.976985,6270,2.316043,-1.360327,-1.591228,-0.063769,-0.014622,0.971173
2011-09-26T15:07:14.986985,6280,2.082605,-1.361584,-1.525471,-0.065161,-0.019623,0.976634
2011-09-26T15:07:14.996985,6290,1.849167,-1.362841,-1.459714,-0.066554,-0.024623,0.982094
2011-09-26T15:07:15.006985,6300,1.615729,-1.364098,-1.393958,-0.067946,-0.029623,0.987555
2011-09-26T15:07:15.016985,6310,1.382292,-1.365355,-1.328201,-0.069338,-0.034623,0.993015
2011-09-26T15:07:15.026985,6320,1.148854,-1.366612,-1.262445,-0.070730,-0.039623,0.998476
2011-09-26T15:07:15.036985,6330,1.139398,-1.298997,-1.176188,-0.070123,-0.040158,1.001719
2011-09-26T15:07:15.046985,6340,1.135170,-1.229776,-1.089453,-0.069470,-0.040588,1.004910
2011-09-26T15:07:15.056985,6350,1.130941,-1.160554,-1.002717,-0.068816,-0.041018,1.008102
2011-09-26T15:07:15.066985,6360,1.126712,-1.091332,-0.915982,-0.068163,-0.041447,1.011293
2011-09-26T15:07:15.076985,6370,1.122483,-1.022111,-0.829247,-0.067509,-0.041877,1.014484
2011-09-26T15:07:15.086985,6380,1.118255,-0.952889,-0.742512,-0.066856,-0.042307,1.017675
2011-09-26T15:07:15.096985,6390,1.114026,-0.883667,-0.655776,-0.066202,-0.042737,1.020867
2011-09-26T15:07:15.106985,6400,1.109797,-0.814445,-0.569041,-0.065548,-0.043167,1.024058
2011-09-26T15:07:15.116985,6410,1.105569,-0.745224,-0.482306,-0.064895,-0.043597,1.027249
2011-09-26T15:07:15.126985,6420,1.101340,-0.676002,-0.395571,-0.064241,-0.044027,1.030440
2011-09-26T15:07:15.136985,6430,1.226568,-0.667025,-0.462706,-0.063428,-0.042066,1.027363
2011-09-26T15:07:15.146985,6440,1.355509,-0.659775,-0.534253,-0.062610,-0.040036,1.024106
2011-09-26T15:07:15.156985,6450,1.484450,-0.652526,-0.605801,-0.061792,-0.038006,1.020849
2011-09-26T15:07:15.166985,6460,1.613390,-0.645276,-0.677349,-0.060974,-0.035976,1.017592
2011-09-26T15:07:15.176985,6470,1.742331,-0.638027,-0.748897,-0.060157,-0.033947,1.014335
2011-09-26T15:07:15.186985,6480,1.871272,-0.630778,-0.820445,-0.059339,-0.031917,1.011077
2011-09-26T15:07:15.196985,6490,2.000213,-0.623528,-0.891993,-0.058521,-0.029887,1.007820
2011-09-26T15:07:15.206985,6500,2.129154,-0.616279,-0.963540,-0.057703,-0.027857,1.004563
2011-09-26T15:07:15.216985,6510,2.258094,-0.609029,-1.035088,-0.056885,-0.025827,1.001306
2011-09-26T15:07:15.226985,6520,2.387035,-0.601780,-1.106636,-0.056067,-0.023798,0.998049
2011-09-26T15:07:15.236985,6530,2.315607,-0.677449,-1.158177,-0.056512,-0.024755,0.999111
2011-09-26T15:07:15.246985,6540,2.240008,-0.754844,-1.209302,-0.056984,-0.025774,1.000262
2011-09-26T15:07:15.256985,6550,2.164410,-0.832239,-1.260427,-0.057456,-0.026794,1.001414
2011-09-26T15:07:15.266985,6560,2.088811,-0.909634,-1.311552,-0.057927,-0.027814,1.002566
2011-09-26T15:07:15.276985,6570,2.013213,-0.987029,-1.362677,-0.058399,-0.028833,1.003717
2011-09-26T15:07:15.286985,6580,1.937615,-1.064423,-1.413801,-0.058870,-0.029853,1.004869
2011-09-26T15:07:15.296985,6590,1.862016,-1.141818,-1.464926,-0.059342,-0.030872,1.006020
2011-09-26T15:07:15.306985,6600,1.786418,-1.219213,-1.516051,-0.059813,-0.031892,1.007172
2011-09-26T15:07:15.316985,6610,1.710820,-1.296608,-1.567176,-0.060285,-0.032911,1.008324
2011-09-26T15:07:15.326985,6620,1.635221,-1.374003,-1.618301,-0.060757,-0.033931,1.009475
2011-09-26T15:07:15.336985,6630,1.529175,-1.397433,-1.617722,-0.058742,-0.031252,0.998402
2011-09-26T15:07:15.346985,6640,1.422358,-1.419497,-1.615836,-0.056664,-0.028480,0.987020
2011-09-26T15:07:15.356985,6650,1.315542,-1.441562,-1.613949,-0.054587,-0.025708,0.975637
2011-09-26T15:07:15.366985,6660,1.208725,-1.463626,-1.612063,-0.052509,-0.022936,0.964255
2011-09-26T15:07:15.376985,6670,1.101908,-1.485691,-1.610176,-0.050432,-0.020164,0.952872
2011-09-26T15:07:15.386985,6680,0.995091,-1.507755,-1.608289,-0.048354,-0.017391,0.941490
2011-09-26T15:07:15.396985,6690,0.888275,-1.529819,-1.606403,-0.046277,-0.014619,0.930107
2011-09-26T15:07:15.406985,6700,0.781458,-1.551884,-1.604516,-0.044199,-0.011847,0.918725
2011-09-26T15:07:15.416985,6710,0.674641,-1.573948,-1.602630,-0.042122,-0.009075,0.907342
2011-09-26T15:07:15.426985,6720,0.567824,-1.596012,-1.600743,-0.040044,-0.006303,0.895960
2011-09-26T15:07:15.436985,6730,0.461008,-1.618077,-1.598856,-0.037967,-0.003531,0.884577
2011-09-26T15:07:15.446985,6740,0.171608,-1.789135,-1.630750,-0.040106,-0.003703,0.895618
2011-09-26T15:07:15.456985,6750,-0.123339,-1.964721,-1.663669,-0.042375,-0.003964,0.907340
2011-09-26T15:07:15.466985,6760,-0.418287,-2.140308,-1.696589,-0.044643,-0.004225,0.919062
2011-09-26T15:07:15.476985,6770,-0.713234,-2.315894,-1.729509,-0.046911,-0.004486,0.930783
2011-09-26T15:07:15.486985,6780,-1.008182,-2.491480,-1.762428,-0.049179,-0.004747,0.942505
2011-09-26T15:07:15.496985,6790,-1.303129,-2.667066,-1.795348,-0.051447,-0.005008,0.954227
2011-09-26T15:07:15.506985,6800,-1.598077,-2.842652,-1.828268,-0.053715,-0.005269,0.965949
2011-09-26T15:07:15.516985,6810,-1.893024,-3.018239,-1.861187,-0.055983,-0.005531,0.977671
2011-09-26T15:07:15.526985,6820,-2.187972,-3.193825,-1.894107,-0.058251,-0.005792,0.989392
2011-09-26T15:07:15.536985,6830,-2.482919,-3.369411,-1.927027,-0.060519,-0.006053,1.001114
2011-09-26T15:07:15.546985,6840,-2.333720,-3.255742,-1.954092,-0.057812,-0.014489,1.012750
2011-09-26T15:07:15.556985,6850,-2.170736,-3.133096,-1.980975,-0.054951,-0.023179,1.024383
2011-09-26T15:07:15.566985,6860,-2.007751,-3.010450,-2.007859,-0.052090,-0.031869,1.036017
2011-09-26T15:07:15.576985,6870,-1.844767,-2.887804,-2.034742,-0.049228,-0.040559,1.047650
2011-09-26T15:07:15.586985,6880,-1.681782,-2.765158,-2.061626,-0.046367,-0.049249,1.059283
2011-09-26T15:07:15.596985,6890,-1.518798,-2.642512,-2.088510,-0.043506,-0.057938,1.070916
2011-09-26T15:07:15.606985,6900,-1.355814,-2.519866,-2.115393,-0.040645,-0.066628,1.082550
2011-09-26T15:07:15.616985,6910,-1.192829,-2.397220,-2.142277,-0.037784,-0.075318,1.094183
2011-09-26T15:07:15.626985,6920,-1.029845,-2.274574,-2.169160,-0.034923,-0.084008,1.105816
2011-09-26T15:07:15.636985,6930,-0.866860,-2.151928,-2.196044,-0.032061,-0.092698,1.117449
2011-09-26T15:07:15.646985,6940,-0.559114,-2.026619,-2.254254,-0.032901,-0.093072,1.113631
2011-09-26T15:07:15.656985,6950,-0.244853,-1.901190,-2.313874,-0.033907,-0.093071,1.109118
2011-09-26T15:07:15.666985,6960,0.069407,-1.775761,-2.373494,-0.034914,-0.093071,1.104605
2011-09-26T15:07:15.676985,6970,0.383668,-1.650333,-2.433114,-0.035920,-0.093071,1.100091
2011-09-26T15:07:15.686985,6980,0.697929,-1.524904,-2.492734,-0.036926,-0.093070,1.095578
2011-09-26T15:07:15.696985,6990,1.012190,-1.399475,-2.552354,-0.037932,-0.093070,1.091065
2011-09-26T15:07:15.706985,7000,1.326451,-1.274046,-2.611974,-0.038938,-0.093069,1.086551
2011-09-26T15:07:15.716985,7010,1.640712,-1.148618,-2.671593,-0.039945,-0.093069,1.082038
2011-09-26T15:07:15.726985,7020,1.954973,-1.023189,-2.731213,-0.040951,-0.093068,1.077525
2011-09-26T15:07:15.736985,7030,2.269234,-0.897760,-2.790833,-0.041957,-0.093068,1.073012
2011-09-26T15:07:15.746985,7040,2.583495,-0.772332,-2.850453,-0.042963,-0.093068,1.068498
2011-09-26T15:07:15.756985,7050,2.836531,-0.818134,-2.932535,-0.043152,-0.087870,1.058035
2011-09-26T15:07:15.766985,7060,3.087616,-0.869393,-3.015332,-0.043315,-0.082506,1.047382
2011-09-26T15:07:15.776985,7070,3.338701,-0.920652,-3.098130,-0.043478,-0.077143,1.036729
2011-09-26T15:07:15.786985,7080,3.589786,-0.971911,-3.180927,-0.043641,-0.071779,1.026076
2011-09-26T15:07:15.796985,7090,3.840870,-1.023170,-3.263724,-0.043803,-0.066415,1.015423
2011-09-26T15:07:15.806985,7100,4.091955,-1.074429,-3.346522,-0.043966,-0.061052,1.004770
2011-09-26T15:07:15.816985,7110,4.343040,-1.125688,-3.429319,-0.044129,-0.055688,0.994117
2011-09-26T15:07:15.826985,7120,4.594125,-1.176948,-3.512116,-0.044292,-0.050325,0.983464
2011-09-26T15:07:15.836985,7130,4.845210,-1.228207,-3.594914,-0.044454,-0.044961,0.972811
2011-09-26T15:07:15.846985,7140,5.096295,-1.279466,-3.677711,-0.044617,-0.039598,0.962158
2011-09-26T15:07:15.856985,7150,5.018329,-1.345996,-3.681380,-0.044429,-0.034273,0.963694
2011-09-26T15:07:15.866985,7160,4.930568,-1.412980,-3.682694,-0.044231,-0.028950,0.965593
2011-09-26T15:07:15.876985,7170,4.842808,-1.479965,-3.684008,-0.044033,-0.023626,0.967492
2011-09-26T15:07:15.886985,7180,4.755047,-1.546950,-3.685322,-0.043834,-0.018303,0.969391
2011-09-26T15:07:15.896985,7190,4.667287,-1.613935,-3.686636,-0.043636,-0.012979,0.971290
2011-09-26T15:07:15.906985,7200,4.579526,-1.680919,-3.687950,-0.043437,-0.007656,0.973188
2011-09-26T15:07:15.916985,7210,4.491765,-1.747904,-3.689264,-0.043239,-0.002333,0.975087
2011-09-26T15:07:15.926985,7220,4.404005,-1.814889,-3.690578,-0.043041,0.002991,0.976986
2011-09-26T15:07:15.936985,7230,4.316244,-1.881873,-3.691892,-0.042842,0.008314,0.978885
2011-09-26T15:07:15.946985,7240,4.228484,-1.948858,-3.693206,-0.042644,0.013638,0.980784
2011-09-26T15:07:15.956985,7250,3.980767,-1.944562,-3.724387,-0.040929,0.012858,0.980162
2011-09-26T15:07:15.966985,7260,3.728446,-1.938214,-3.756429,-0.039171,0.011903,0.979468
2011-09-26T15:07:15.976985,7270,3.476125,-1.931866,-3.788471,-0.037413,0.010948,0.978774
2011-09-26T15:07:15.986985,7280,3.223804,-1.925518,-3.820512,-0.035655,0.009993,0.978080
2011-09-26T15:07:15.996985,7290,2.971483,-1.919170,-3.852554,-0.033897,0.009038,0.977386
2011-09-26T15:07:16.006985,7300,2.719162,-1.912822,-3.884595,-0.032139,0.008083,0.976692
2011-09-26T15:07:16.016985,7310,2.466841,-1.906474,-3.916637,-0.030380,0.007128,0.975998
2011-09-26T15:07:16.026985,7320,2.214520,-1.900126,-3.948678,-0.028622,0.006173,0.975304
2011-09-26T15:07:16.036985,7330,1.962199,-1.893778,-3.980720,-0.026864,0.005218,0.974610
2011-09-26T15:07:16.046985,7340,1.709879,-1.887430,-4.012762,-0.025106,0.004263,0.973916
2011-09-26T15:07:16.056985,7350,1.457558,-1.881082,-4.044803,-0.023348,0.003308,0.973222
2011-09-26T15:07:16.066985,7360,1.336654,-1.871531,-4.062812,-0.023882,-0.000814,0.976040
2011-09-26T15:07:16.076985,7370,1.219699,-1.861883,-4.080399,-0.024486,-0.005031,0.978964
2011-09-26T15:07:16.086985,7380,1.102744,-1.852235,-4.097986,-0.025089,-0.009248,0.981888
2011-09-26T15:07:16.096985,7390,0.985789,-1.842587,-4.115573,-0.025692,-0.013465,0.984812
2011-09-26T15:07:16.106985,7400,0.868835,-1.832939,-4.133160,-0.026296,-0.017681,0.987736
2011-09-26T15:07:16.116985,7410,0.751880,-1.823291,-4.150748,-0.026899,-0.021898,0.990660
2011-09-26T15:07:16.126985,7420,0.634925,-1.813643,-4.168335,-0.027502,-0.026115,0.993585
2011-09-26T15:07:16.136985,7430,0.517970,-1.803996,-4.185922,-0.028106,-0.030332,0.996509
2011-09-26T15:07:16.146985,7440,0.401016,-1.794348,-4.203509,-0.028709,-0.034549,0.999433
2011-09-26T15:07:16.156985,7450,0.284061,-1.784700,-4.221096,-0.029312,-0.038766,1.002357
2011-09-26T15:07:16.166985,7460,0.344133,-1.737020,-4.197711,-0.030002,-0.037549,1.003942
2011-09-26T15:07:16.176985,7470,0.412277,-1.687606,-4.172458,-0.030696,-0.036084,1.005467
2011-09-26T15:07:16.186985,7480,0.480420,-1.638192,-4.147205,-0.031389,-0.034619,1.006991
2011-09-26T15:07:16.196985,7490,0.548564,-1.588778,-4.121952,-0.032083,-0.033154,1.008515
2011-09-26T15:07:16.206985,7500,0.616707,-1.539364,-4.096699,-0.032777,-0.031689,1.010040
2011-09-26T15:07:16.216985,7510,0.684851,-1.489951,-4.071446,-0.033470,-0.030224,1.011564
2011-09-26T15:07:16.226985,7520,0.752994,-1.440537,-4.046193,-0.034164,-0.028759,1.013088
2011-09-26T15:07:16.236985,7530,0.821137,-1.391123,-4.020940,-0.034858,-0.027295,1.014613
2011-09-26T15:07:16.246985,7540,0.889281,-1.341709,-3.995687,-0.035551,-0.025830,1.016137
2011-09-26T15:07:16.256985,7550,0.957424,-1.292295,-3.970434,-0.036245,-0.024365,1.017661
2011-09-26T15:07:16.266985,7560,0.724327,-1.325247,-4.012251,-0.036258,-0.018185,1.010184
2011-09-26T15:07:16.276985,7570,0.480954,-1.361007,-4.056356,-0.036247,-0.011845,1.002399
2011-09-26T15:07:16.286985,7580,0.237582,-1.396768,-4.100461,-0.036237,-0.005505,0.994615
2011-09-26T15:07:16.296985,7590,-0.005790,-1.432529,-4.144566,-0.036227,0.000835,0.986830
2011-09-26T15:07:16.306985,7600,-0.249163,-1.468289,-4.188671,-0.036217,0.007175,0.979046
2011-09-26T15:07:16.316985,7610,-0.492535,-1.504050,-4.232777,-0.036206,0.013515,0.971261
2011-09-26T15:07:16.326985,7620,-0.735907,-1.539811,-4.276882,-0.036196,0.019855,0.963476
2011-09-26T15:07:16.336985,7630,-0.979280,-1.575571,-4.320987,-0.036186,0.026195,0.955692
2011-09-26T15:07:16.346985,7640,-1.222652,-1.611332,-4.365092,-0.036175,0.032536,0.947907
2011-09-26T15:07:16.356985,7650,-1.466024,-1.647093,-4.409197,-0.036165,0.038876,0.940123
2011-09-26T15:07:16.366985,7660,-1.709397,-1.682853,-4.453302,-0.036155,0.045216,0.932338
2011-09-26T15:07:16.376985,7670,-1.799189,-1.731355,-4.487043,-0.038341,0.037443,0.942091
2011-09-26T15:07:16.386985,7680,-1.885126,-1.780176,-4.520524,-0.040582,0.029315,0.952284
2011-09-26T15:07:16.396985,7690,-1.971063,-1.828997,-4.554005,-0.042823,0.021188,0.962477
2011-09-26T15:07:16.406985,7700,-2.057000,-1.877818,-4.587486,-0.045064,0.013061,0.972671
2011-09-26T15:07:16.416985,7710,-2.142937,-1.926639,-4.620967,-0.047305,0.004933,0.982864
2011-09-26T15:07:16.426985,7720,-2.228874,-1.975461,-4.654448,-0.049546,-0.003194,0.993057
2011-09-26T15:07:16.436985,7730,-2.314811,-2.024282,-4.687929,-0.051787,-0.011322,1.003250
2011-09-26T15:07:16.446985,7740,-2.400748,-2.073103,-4.721410,-0.054028,-0.019449,1.013443
2011-09-26T15:07:16.456985,7750,-2.486685,-2.121924,-4.754891,-0.056269,-0.027576,1.023637
2011-09-26T15:07:16.466985,7760,-2.572622,-2.170745,-4.788372,-0.058510,-0.035704,1.033830
2011-09-26T15:07:16.476985,7770,-2.458981,-2.018227,-4.696510,-0.058971,-0.043452,1.040849
2011-09-26T15:07:16.486985,7780,-2.339616,-1.859935,-4.601054,-0.059381,-0.051189,1.047777
2011-09-26T15:07:16.496985,7790,-2.220251,-1.701643,-4.505598,-0.059792,-0.058927,1.054706
2011-09-26T15:07:16.506985,7800,-2.100886,-1.543351,-4.410142,-0.060202,-0.066664,1.061634
2011-09-26T15:07:16.516985,7810,-1.981521,-1.385058,-4.314686,-0.060612,-0.074402,1.068563
2011-09-26T15:07:16.526985,7820,-1.862156,-1.226766,-4.219230,-0.061022,-0.082139,1.075491
2011-09-26T15:07:16.536985,7830,-1.742791,-1.068474,-4.123774,-0.061432,-0.089877,1.082419
2011-09-26T15:07:16.546985,7840,-1.623426,-0.910181,-4.028318,-0.061842,-0.097614,1.089348
2011-09-26T15:07:16.556985,7850,-1.504061,-0.751889,-3.932862,-0.062252,-0.105352,1.096276
2011-09-26T15:07:16.566985,7860,-1.384696,-0.593597,-3.837406,-0.062663,-0.113089,1.103204
2011-09-26T15:07:16.576985,7870,-1.150588,-0.529521,-3.795097,-0.062878,-0.108047,1.094193
2011-09-26T15:07:16.586985,7880,-0.912848,-0.468427,-3.754469,-0.063088,-0.102600,1.084678
2011-09-26T15:07:16.596985,7890,-0.675107,-0.407334,-3.713842,-0.063297,-0.097153,1.075162
2011-09-26T15:07:16.606985,7900,-0.437367,-0.346241,-3.673215,-0.063507,-0.091706,1.065646
2011-09-26T15:07:16.616985,7910,-0.199626,-0.285147,-3.632588,-0.063716,-0.086260,1.056130
2011-09-26T15:07:16.626985,7920,0.038114,-0.224054,-3.591961,-0.063926,-0.080813,1.046614
2011-09-26T15:07:16.636985,7930,0.275855,-0.162961,-3.551333,-0.064135,-0.075366,1.037099
2011-09-26T15:07:16.646985,7940,0.513595,-0.101867,-3.510706,-0.064344,-0.069919,1.027583
2011-09-26T15:07:16.656985,7950,0.751336,-0.040774,-3.470079,-0.064554,-0.064473,1.018067
2011-09-26T15:07:16.666985,7960,0.989076,0.020319,-3.429452,-0.064763,-0.059026,1.008551
2011-09-26T15:07:16.676985,7970,1.226817,0.081413,-3.388825,-0.064973,-0.053579,0.999036
2011-09-26T15:07:16.686985,7980,1.270380,-0.002385,-3.332474,-0.064150,-0.050582,0.995648
2011-09-26T15:07:16.696985,7990,1.306588,-0.091671,-3.275527,-0.063289,-0.047677,0.992492
2011-09-26T15:07:16.706985,8000,1.342795,-0.180957,-3.218581,-0.062427,-0.044773,0.989337
2011-09-26T15:07:16.716985,8010,1.379003,-0.270243,-3.161634,-0.061566,-0.041868,0.986181
2011-09-26T15:07:16.726985,8020,1.415210,-0.359529,-3.104688,-0.060704,-0.038964,0.983026
2011-09-26T15:07:16.736985,8030,1.451418,-0.448815,-3.047741,-0.059843,-0.036059,0.979870
2011-09-26T15:07:16.746985,8040,1.487625,-0.538101,-2.990795,-0.058981,-0.033155,0.976715
2011-09-26T15:07:16.756985,8050,1.523833,-0.627388,-2.933848,-0.058119,-0.030250,0.973559
2011-09-26T15:07:16.766985,8060,1.560040,-0.716674,-2.876902,-0.057258,-0.027346,0.970404
2011-09-26T15:07:16.776985,8070,1.596248,-0.805960,-2.819955,-0.056396,-0.024441,0.967248
2011-09-26T15:07:16.786985,8080,1.442652,-0.829639,-2.710301,-0.055915,-0.023620,0.969694
2011-09-26T15:07:16.796985,8090,1.282235,-0.850961,-2.598752,-0.055448,-0.022874,0.972341
2011-09-26T15:07:16.806985,8100,1.121818,-0.872283,-2.487203,-0.054981,-0.022127,0.974988
2011-09-26T15:07:16.816985,8110,0.961401,-0.893605,-2.375653,-0.054513,-0.021381,0.977635
2011-09-26T15:07:16.826985,8120,0.800984,-0.914927,-2.264104,-0.054046,-0.020635,0.980283
2011-09-26T15:07:16.836985,8130,0.640567,-0.936249,-2.152555,-0.053578,-0.019888,0.982930
2011-09-26T15:07:16.846985,8140,0.480150,-0.957570,-2.041006,-0.053111,-0.019142,0.985577
2011-09-26T15:07:16.856985,8150,0.319733,-0.978892,-1.929457,-0.052644,-0.018396,0.988224
2011-09-26T15:07:16.866985,8160,0.159316,-1.000214,-1.817908,-0.052176,-0.017649,0.990871
2011-09-26T15:07:16.876985,8170,-0.001101,-1.021536,-1.706359,-0.051709,-0.016903,0.993518
2011-09-26T15:07:16.886985,8180,-0.161518,-1.042858,-1.594810,-0.051242,-0.016157,0.996165
2011-09-26T15:07:16.896985,8190,-0.196131,-1.005830,-1.442873,-0.051066,-0.015926,0.997904
2011-09-26T15:07:16.906985,8200,-0.226396,-0.966785,-1.289540,-0.050899,-0.015713,0.999610
2011-09-26T15:07:16.916985,8210,-0.256662,-0.927741,-1.136208,-0.050733,-0.015500,1.001317
2011-09-26T15:07:16.926985,8220,-0.286927,-0.888696,-0.982875,-0.050567,-0.015287,1.003024
2011-09-26T15:07:16.936985,8230,-0.317192,-0.849652,-0.829542,-0.050401,-0.015074,1.004731
2011-09-26T15:07:16.946985,8240,-0.347458,-0.810608,-0.676210,-0.050235,-0.014861,1.006438
2011-09-26T15:07:16.956985,8250,-0.377723,-0.771563,-0.522877,-0.050069,-0.014648,1.008145
2011-09-26T15:07:16.966985,8260,-0.407989,-0.732519,-0.369544,-0.049903,-0.014435,1.009852
2011-09-26T15:07:16.976985,8270,-0.438254,-0.693474,-0.216212,-0.049736,-0.014222,1.011558
2011-09-26T15:07:16.986985,8280,-0.468520,-0.654430,-0.062879,-0.049570,-0.014009,1.013265
2011-09-26T15:07:16.996985,8290,-0.503524,-0.574112,0.032092,-0.050560,-0.013316,1.011829
2011-09-26T15:07:17.006985,8300,-0.538763,-0.491746,0.124166,-0.051607,-0.012600,1.010236
2011-09-26T15:07:17.016985,8310,-0.574002,-0.409379,0.216241,-0.052655,-0.011883,1.008643
2011-09-26T15:07:17.026985,8320,-0.609241,-0.327012,0.308315,-0.053702,-0.011167,1.007051
2011-09-26T15:07:17.036985,8330,-0.644480,-0.244646,0.400389,-0.054749,-0.010450,1.005458
2011-09-26T15:07:17.046985,8340,-0.679719,-0.162279,0.492464,-0.055797,-0.009734,1.003866
2011-09-26T15:07:17.056985,8350,-0.714958,-0.079913,0.584538,-0.056844,-0.009017,1.002273
2011-09-26T15:07:17.066985,8360,-0.750198,0.002454,0.676612,-0.057891,-0.008301,1.000680
2011-09-26T15:07:17.076985,8370,-0.785437,0.084821,0.768687,-0.058938,-0.007584,0.999088
2011-09-26T15:07:17.086985,8380,-0.820676,0.167187,0.860761,-0.059986,-0.006868,0.997495
2011-09-26T15:07:17.096985,8390,-0.800653,0.135596,0.973474,-0.059781,-0.005707,0.997007
2011-09-26T15:07:17.106985,8400,-0.778207,0.099010,1.087092,-0.059522,-0.004527,0.996567
2011-09-26T15:07:17.116985,8410,-0.755762,0.062424,1.200711,-0.059263,-0.003347,0.996128
2011-09-26T15:07:17.126985,8420,-0.733316,0.025838,1.314329,-0.059003,-0.002167,0.995688
2011-09-26T15:07:17.136985,8430,-0.710870,-0.010748,1.427947,-0.058744,-0.000988,0.995249
2011-09-26T15:07:17.146985,8440,-0.688425,-0.047334,1.541565,-0.058485,0.000192,0.994809
2011-09-26T15:07:17.156985,8450,-0.665979,-0.083920,1.655183,-0.058225,0.001372,0.994370
2011-09-26T15:07:17.166985,8460,-0.643534,-0.120506,1.768801,-0.057966,0.002552,0.993930
2011-09-26T15:07:17.176985,8470,-0.621088,-0.157092,1.882419,-0.057707,0.003732,0.993491
2011-09-26T15:07:17.186985,8480,-0.598643,-0.193678,1.996037,-0.057447,0.004912,0.993051
2011-09-26T15:07:17.196985,8490,-0.576197,-0.230264,2.109655,-0.057188,0.006092,0.992611
2011-09-26T15:07:17.206985,8500,-0.674975,-0.186101,2.210705,-0.056157,0.007798,0.994654
2011-09-26T15:07:17.216985,8510,-0.778816,-0.138565,2.311231,-0.055093,0.009526,0.996799
2011-09-26T15:07:17.226985,8520,-0.882657,-0.091029,2.411756,-0.054030,0.011254,0.998945
2011-09-26T15:07:17.236985,8530,-0.986497,-0.043494,2.512282,-0.052966,0.012982,1.001091
2011-09-26T15:07:17.246985,8540,-1.090338,0.004042,2.612807,-0.051902,0.014710,1.003237
2011-09-26T15:07:17.256985,8550,-1.194178,0.051578,2.713333,-0.050839,0.016438,1.005382
2011-09-26T15:07:17.266985,8560,-1.298019,0.099114,2.813858,-0.049775,0.018166,1.007528
2011-09-26T15:07:17.276985,8570,-1.401859,0.146650,2.914384,-0.048712,0.019894,1.009674
2011-09-26T15:07:17.286985,8580,-1.505700,0.194185,3.014909,-0.047648,0.021622,1.011820
2011-09-26T15:07:17.296985,8590,-1.609541,0.241721,3.115435,-0.046585,0.023350,1.013965
2011-09-26T15:07:17.306985,8600,-1.623393,0.276374,3.165391,-0.048546,0.023248,1.014196
2011-09-26T15:07:17.316985,8610,-1.634099,0.310576,3.213579,-0.050613,0.023083,1.014359
2011-09-26T15:07:17.326985,8620,-1.644805,0.344779,3.261766,-0.052680,0.022917,1.014522
2011-09-26T15:07:17.336985,8630,-1.655511,0.378981,3.309954,-0.054747,0.022751,1.014686
2011-09-26T15:07:17.346985,8640,-1.666217,0.413184,3.358142,-0.056814,0.022585,1.014849
2011-09-26T15:07:17.356985,8650,-1.676922,0.447386,3.406330,-0.058881,0.022419,1.015012
2011-09-26T15:07:17.366985,8660,-1.687628,0.481589,3.454517,-0.060948,0.022253,1.015176
2011-09-26T15:07:17.376985,8670,-1.698334,0.515791,3.502705,-0.063015,0.022087,1.015339
2011-09-26T15:07:17.386985,8680,-1.709040,0.549994,3.550893,-0.065082,0.021921,1.015502
2011-09-26T15:07:17.396985,8690,-1.719746,0.584196,3.599081,-0.067149,0.021755,1.015666
2011-09-26T15:07:17.406985,8700,-1.828242,0.656908,3.682765,-0.066292,0.021264,1.015596
2011-09-26T15:07:17.416985,8710,-1.940420,0.731069,3.767786,-0.065325,0.020761,1.015518
2011-09-26T15:07:17.426985,8720,-2.052598,0.805230,3.852807,-0.064358,0.020257,1.015440
2011-09-26T15:07:17.436985,8730,-2.164776,0.879392,3.937828,-0.063391,0.019754,1.015361
2011-09-26T15:07:17.446985,8740,-2.276954,0.953553,4.022848,-0.062424,0.019251,1.015283
2011-09-26T15:07:17.456985,8750,-2.389132,1.027714,4.107869,-0.061457,0.018748,1.015205
2011-09-26T15:07:17.466985,8760,-2.501310,1.101875,4.192890,-0.060490,0.018244,1.015126
2011-09-26T15:07:17.476985,8770,-2.613489,1.176037,4.277911,-0.059523,0.017741,1.015048
2011-09-26T15:07:17.486985,8780,-2.725667,1.250198,4.362932,-0.058556,0.017238,1.014970
2011-09-26T15:07:17.496985,8790,-2.837845,1.324359,4.447952,-0.057589,0.016735,1.014891
2011-09-26T15:07:17.506985,8800,-2.950023,1.398520,4.532973,-0.056622,0.016231,1.014813
2011-09-26T15:07:17.516985,8810,-2.944837,1.366297,4.592013,-0.058809,0.012846,1.011584
2011-09-26T15:07:17.526985,8820,-2.935546,1.330352,4.650144,-0.061106,0.009359,1.008245
2011-09-26T15:07:17.536985,8830,-2.926256,1.294408,4.708275,-0.063403,0.005872,1.004906
2011-09-26T15:07:17.546985,8840,-2.916965,1.258464,4.766405,-0.065700,0.002386,1.001568
2011-09-26T15:07:17.556985,8850,-2.907675,1.222520,4.824536,-0.067997,-0.001101,0.998229
2011-09-26T15:07:17.566985,8860,-2.898385,1.186575,4.882667,-0.070294,-0.004588,0.994890
2011-09-26T15:07:17.576985,8870,-2.889094,1.150631,4.940798,-0.072591,-0.008074,0.991551
2011-09-26T15:07:17.586985,8880,-2.879804,1.114687,4.998929,-0.074888,-0.011561,0.988212
2011-09-26T15:07:17.596985,8890,-2.870514,1.078743,5.057060,-0.077185,-0.015048,0.984873
2011-09-26T15:07:17.606985,8900,-2.861223,1.042799,5.115191,-0.079482,-0.018534,0.981534
2011-09-26T15:07:17.616985,8910,-2.764546,0.957318,5.141620,-0.081111,-0.014454,0.982906
2011-09-26T15:07:17.626985,8920,-2.663340,0.869270,5.166407,-0.082706,-0.009982,0.984521
2011-09-26T15:07:17.636985,8930,-2.562134,0.781222,5.191193,-0.084300,-0.005510,0.986136
2011-09-26T15:07:17.646985,8940,-2.460928,0.693175,5.215980,-0.085895,-0.001038,0.987752
2011-09-26T15:07:17.656985,8950,-2.359722,0.605127,5.240766,-0.087489,0.003434,0.989367
2011-09-26T15:07:17.666985,8960,-2.258516,0.517079,5.265553,-0.089084,0.007906,0.990982
2011-09-26T15:07:17.676985,8970,-2.157310,0.429031,5.290340,-0.090679,0.012378,0.992598
2011-09-26T15:07:17.686985,8980,-2.056105,0.340984,5.315126,-0.092273,0.016850,0.994213
2011-09-26T15:07:17.696985,8990,-1.954899,0.252936,5.339913,-0.093868,0.021322,0.995828
2011-09-26T15:07:17.706985,9000,-1.853693,0.164888,5.364699,-0.095463,0.025794,0.997444
2011-09-26T15:07:17.716985,9010,-1.766853,0.192832,5.378190,-0.096691,0.021460,0.995843
2011-09-26T15:07:17.726985,9020,-1.680596,0.225482,5.391223,-0.097905,0.016769,0.994112
2011-09-26T15:07:17.736985,9030,-1.594339,0.258132,5.404256,-0.099119,0.012077,0.992381
2011-09-26T15:07:17.746985,9040,-1.508083,0.290781,5.417289,-0.100333,0.007386,0.990650
2011-09-26T15:07:17.756985,9050,-1.421826,0.323431,5.430322,-0.101547,0.002695,0.988919
2011-09-26T15:07:17.766985,9060,-1.335569,0.356081,5.443355,-0.102761,-0.001997,0.987188
2011-09-26T15:07:17.776985,9070,-1.249312,0.388731,5.456388,-0.103975,-0.006688,0.985457
2011-09-26T15:07:17.786985,9080,-1.163055,0.421380,5.469421,-0.105189,-0.011380,0.983726
2011-09-26T15:07:17.796985,9090,-1.076798,0.454030,5.482454,-0.106403,-0.016071,0.981995
2011-09-26T15:07:17.806985,9100,-0.990542,0.486680,5.495487,-0.107617,-0.020762,0.980263
2011-09-26T15:07:17.816985,9110,-0.904285,0.519330,5.508520,-0.108831,-0.025454,0.978532
2011-09-26T15:07:17.826985,9120,-0.816797,0.572264,5.499539,-0.110248,-0.024482,0.981002
2011-09-26T15:07:17.836985,9130,-0.729267,0.625885,5.489815,-0.111673,-0.023318,0.983614
2011-09-26T15:07:17.846985,9140,-0.641737,0.679505,5.480090,-0.113097,-0.022154,0.986225
2011-09-26T15:07:17.856985,9150,-0.554207,0.733126,5.470365,-0.114521,-0.020990,0.988837
2011-09-26T15:07:17.866985,9160,-0.466678,0.786746,5.460640,-0.115946,-0.019827,0.991448
2011-09-26T15:07:17.876985,9170,-0.379148,0.840366,5.450916,-0.117370,-0.018663,0.994060
2011-09-26T15:07:17.886985,9180,-0.291618,0.893987,5.441191,-0.118795,-0.017499,0.996672
2011-09-26T15:07:17.896985,9190,-0.204088,0.947607,5.431466,-0.120219,-0.016335,0.999283
2011-09-26T15:07:17.906985,9200,-0.116559,1.001228,5.421741,-0.121643,-0.015172,1.001895
2011-09-26T15:07:17.916985,9210,-0.029029,1.054848,5.412017,-0.123068,-0.014008,1.004506
2011-09-26T15:07:17.926985,9220,-0.096960,1.061567,5.398606,-0.123799,-0.010924,1.003880
2011-09-26T15:07:17.936985,9230,-0.171096,1.066413,5.385048,-0.124503,-0.007763,1.003125
2011-09-26T15:07:17.946985,9240,-0.245231,1.071260,5.371490,-0.125206,-0.004602,1.002369
2011-09-26T15:07:17.956985,9250,-0.319367,1.076107,5.357932,-0.125910,-0.001442,1.001614
2011-09-26T15:07:17.966985,9260,-0.393503,1.080954,5.344374,-0.126613,0.001719,1.000858
2011-09-26T15:07:17.976985,9270,-0.467639,1.085801,5.330816,-0.127317,0.004880,1.000103
2011-09-26T15:07:17.986985,9280,-0.541774,1.090647,5.317258,-0.128020,0.008040,0.999347
2011-09-26T15:07:17.996985,9290,-0.615910,1.095494,5.303700,-0.128724,0.011201,0.998592
2011-09-26T15:07:18.006985,9300,-0.690046,1.100341,5.290142,-0.129428,0.014362,0.997836
2011-09-26T15:07:18.016985,9310,-0.764181,1.105188,5.276584,-0.130131,0.017523,0.997081
2011-09-26T15:07:18.026985,9320,-0.786611,1.067290,5.260352,-0.131862,0.014165,0.995902
2011-09-26T15:07:18.036985,9330,-0.807099,1.027786,5.244020,-0.133632,0.010562,0.994708
2011-09-26T15:07:18.046985,9340,-0.827586,0.988282,5.227687,-0.135402,0.006960,0.993513
2011-09-26T15:07:18.056985,9350,-0.848074,0.948778,5.211355,-0.137172,0.003358,0.992319
2011-09-26T15:07:18.066985,9360,-0.868562,0.909274,5.195022,-0.138942,-0.000245,0.991125
2011-09-26T15:07:18.076985,9370,-0.889049,0.869770,5.178690,-0.140712,-0.003847,0.989930
2011-09-26T15:07:18.086985,9380,-0.909537,0.830266,5.162357,-0.142481,-0.007450,0.988736
2011-09-26T15:07:18.096985,9390,-0.930024,0.790763,5.146025,-0.144251,-0.011052,0.987542
2011-09-26T15:07:18.106985,9400,-0.950512,0.751259,5.129692,-0.146021,-0.014655,0.986347
2011-09-26T15:07:18.116985,9410,-0.970999,0.711755,5.113360,-0.147791,-0.018257,0.985153
2011-09-26T15:07:18.126985,9420,-0.991487,0.672251,5.097027,-0.149561,-0.021860,0.983959
2011-09-26T15:07:18.136985,9430,-1.000787,0.604130,5.084839,-0.150673,-0.020089,0.984022
2011-09-26T15:07:18.146985,9440,-1.009399,0.534251,5.072905,-0.151745,-0.017987,0.984162
2011-09-26T15:07:18.156985,9450,-1.018012,0.464372,5.060971,-0.152817,-0.015886,0.984302
2011-09-26T15:07:18.166985,9460,-1.026624,0.394493,5.049038,-0.153889,-0.013785,0.984442
2011-09-26T15:07:18.176985,9470,-1.035237,0.324614,5.037104,-0.154961,-0.011683,0.984583
2011-09-26T15:07:18.186985,9480,-1.043850,0.254735,5.025170,-0.156033,-0.009582,0.984723
2011-09-26T15:07:18.196985,9490,-1.052462,0.184856,5.013236,-0.157105,-0.007481,0.984863
2011-09-26T15:07:18.206985,9500,-1.061075,0.114977,5.001303,-0.158177,-0.005380,0.985003
2011-09-26T15:07:18.216985,9510,-1.069687,0.045098,4.989369,-0.159249,-0.003278,0.985143
2011-09-26T15:07:18.226985,9520,-1.078300,-0.024781,4.977435,-0.160320,-0.001177,0.985284
2011-09-26T15:07:18.236985,9530,-1.129334,-0.023061,4.896672,-0.159980,-0.000336,0.985876
2011-09-26T15:07:18.246985,9540,-1.182026,-0.018544,4.813221,-0.159584,0.000455,0.986487
2011-09-26T15:07:18.256985,9550,-1.234718,-0.014027,4.729769,-0.159189,0.001247,0.987098
2011-09-26T15:07:18.266985,9560,-1.287409,-0.009510,4.646317,-0.158793,0.002039,0.987708
2011-09-26T15:07:18.276985,9570,-1.340101,-0.004993,4.562865,-0.158397,0.002830,0.988319
2011-09-26T15:07:18.286985,9580,-1.392793,-0.000476,4.479414,-0.158002,0.003622,0.988929
2011-09-26T15:07:18.296985,9590,-1.445485,0.004041,4.395962,-0.157606,0.004414,0.989540
2011-09-26T15:07:18.306985,9600,-1.498176,0.008558,4.312510,-0.157210,0.005205,0.990150
2011-09-26T15:07:18.316985,9610,-1.550868,0.013074,4.229059,-0.156815,0.005997,0.990761
2011-09-26T15:07:18.326985,9620,-1.603560,0.017591,4.145607,-0.156419,0.006789,0.991371
2011-09-26T15:07:18.336985,9630,-1.715819,0.011131,4.089099,-0.155417,0.004500,0.992240
2011-09-26T15:07:18.346985,9640,-1.830541,0.004217,4.033705,-0.154390,0.002084,0.993119
2011-09-26T15:07:18.356985,9650,-1.945263,-0.002697,3.978311,-0.153362,-0.000332,0.993998
2011-09-26T15:07:18.366985,9660,-2.059985,-0.009611,3.922916,-0.152335,-0.002748,0.994878
2011-09-26T15:07:18.376985,9670,-2.174707,-0.016525,3.867522,-0.151307,-0.005164,0.995757
2011-09-26T15:07:18.386985,9680,-2.289429,-0.023440,3.812128,-0.150280,-0.007580,0.996636
2011-09-26T15:07:18.396985,9690,-2.404151,-0.030354,3.756734,-0.149253,-0.009996,0.997515
2011-09-26T15:07:18.406985,9700,-2.518873,-0.037268,3.701340,-0.148225,-0.012413,0.998395
2011-09-26T15:07:18.416985,9710,-2.633595,-0.044182,3.645945,-0.147198,-0.014829,0.999274
2011-09-26T15:07:18.426985,9720,-2.748317,-0.051096,3.590551,-0.146171,-0.017245,1.000153
2011-09-26T15:07:18.436985,9730,-2.863039,-0.058010,3.535157,-0.145143,-0.019661,1.001032
2011-09-26T15:07:18.446985,9740,-2.779875,-0.053583,3.428274,-0.141574,-0.021251,1.002136
2011-09-26T15:07:18.456985,9750,-2.687323,-0.048617,3.318948,-0.137885,-0.022802,1.003250
2011-09-26T15:07:18.466985,9760,-2.594771,-0.043652,3.209623,-0.134196,-0.024353,1.004364
2011-09-26T15:07:18.476985,9770,-2.502220,-0.038686,3.100297,-0.130506,-0.025904,1.005478
2011-09-26T15:07:18.486985,9780,-2.409668,-0.033721,2.990972,-0.126817,-0.027455,1.006592
2011-09-26T15:07:18.496985,9790,-2.317117,-0.028756,2.881646,-0.123128,-0.029006,1.007706
2011-09-26T15:07:18.506985,9800,-2.224565,-0.023790,2.772320,-0.119438,-0.030557,1.008820
2011-09-26T15:07:18.516985,9810,-2.132014,-0.018825,2.662995,-0.115749,-0.032108,1.009934
2011-09-26T15:07:18.526985,9820,-2.039462,-0.013859,2.553669,-0.112059,-0.033659,1.011048
2011-09-26T15:07:18.536985,9830,-1.946910,-0.008894,2.444344,-0.108370,-0.035210,1.012162
2011-09-26T15:07:18.546985,9840,-1.927645,0.014491,2.320000,-0.104414,-0.036657,1.009903
2011-09-26T15:07:18.556985,9850,-1.911825,0.038741,2.194951,-0.100445,-0.038098,1.007486
2011-09-26T15:07:18.566985,9860,-1.896005,0.062992,2.069902,-0.096475,-0.039539,1.005068
2011-09-26T15:07:18.576985,9870,-1.880185,0.087242,1.944853,-0.092506,-0.040981,1.002651
2011-09-26T15:07:18.586985,9880,-1.864366,0.111492,1.819804,-0.088537,-0.042422,1.000234
2011-09-26T15:07:18.596985,9890,-1.848546,0.135743,1.694754,-0.084568,-0.043863,0.997816
2011-09-26T15:07:18.606985,9900,-1.832726,0.159993,1.569705,-0.080599,-0.045305,0.995399
2011-09-26T15:07:18.616985,9910,-1.816906,0.184244,1.444656,-0.076630,-0.046746,0.992981
2011-09-26T15:07:18.626985,9920,-1.801086,0.208494,1.319607,-0.072661,-0.048187,0.990564
2011-09-26T15:07:18.636985,9930,-1.785266,0.232744,1.194557,-0.068692,-0.049629,0.988147
2011-09-26T15:07:18.646985,9940,-1.676791,0.243646,1.103237,-0.066320,-0.050249,0.987119
2011-09-26T15:07:18.656985,9950,-1.563553,0.253862,1.013651,-0.064030,-0.050828,0.986163
2011-09-26T15:07:18.666985,9960,-1.450314,0.264078,0.924065,-0.061740,-0.051406,0.985206
2011-09-26T15:07:18.676985,9970,-1.337075,0.274294,0.834478,-0.059450,-0.051984,0.984250
2011-09-26T15:07:18.686985,9980,-1.223837,0.284510,0.744892,-0.057160,-0.052563,0.983294
2011-09-26T15:07:18.696985,9990,-1.110598,0.294726,0.655306,-0.054869,-0.053141,0.982337
2011-09-26T15:07:18.706985,10000,-0.997359,0.304942,0.565720,-0.052579,-0.053720,0.981381
2011-09-26T15:07:18.716985,10010,-0.884121,0.315157,0.476133,-0.050289,-0.054298,0.980425
2011-09-26T15:07:18.726985,10020,-0.770882,0.325373,0.386547,-0.047999,-0.054876,0.979469
2011-09-26T15:07:18.736985,10030,-0.657644,0.335589,0.296961,-0.045709,-0.055455,0.978512
2011-09-26T15:07:18.746985,10040,-0.544405,0.345805,0.207375,-0.043419,-0.056033,0.977556
2011-09-26T15:07:18.756985,10050,-0.515508,0.418372,0.231418,-0.042101,-0.057779,0.979379
2011-09-26T15:07:18.766985,10060,-0.490226,0.493611,0.260330,-0.040826,-0.059574,0.981322
2011-09-26T15:07:18.776985,10070,-0.464943,0.568851,0.289241,-0.039550,-0.061370,0.983265
2011-09-26T15:07:18.786985,10080,-0.439660,0.644090,0.318153,-0.038274,-0.063165,0.985207
2011-09-26T15:07:18.796985,10090,-0.414378,0.719329,0.347065,-0.036998,-0.064961,0.987150
2011-09-26T15:07:18.806985,10100,-0.389095,0.794568,0.375977,-0.035722,-0.066756,0.989092
2011-09-26T15:07:18.816985,10110,-0.363812,0.869807,0.404889,-0.034446,-0.068552,0.991035
2011-09-26T15:07:18.826985,10120,-0.338530,0.945046,0.433801,-0.033170,-0.070347,0.992977
2011-09-26T15:07:18.836985,10130,-0.313247,1.020285,0.462713,-0.031894,-0.072143,0.994920
2011-09-26T15:07:18.846985,10140,-0.287964,1.095524,0.491625,-0.030618,-0.073938,0.996863
2011-09-26T15:07:18.856985,10150,0.020295,1.096089,0.466224,-0.031830,-0.074418,0.996753
2011-09-26T15:07:18.866985,10160,0.340987,1.093372,0.438436,-0.033150,-0.074841,0.996553
2011-09-26T15:07:18.876985,10170,0.661680,1.090655,0.410649,-0.034471,-0.075264,0.996352
2011-09-26T15:07:18.886985,10180,0.982372,1.087938,0.382861,-0.035791,-0.075686,0.996152
2011-09-26T15:07:18.896985,10190,1.303065,1.085222,0.355074,-0.037112,-0.076109,0.995952
2011-09-26T15:07:18.906985,10200,1.623758,1.082505,0.327286,-0.038432,-0.076532,0.995752
2011-09-26T15:07:18.916985,10210,1.944450,1.079788,0.299499,-0.039753,-0.076954,0.995552
2011-09-26T15:07:18.926985,10220,2.265143,1.077072,0.271711,-0.041073,-0.077377,0.995352
2011-09-26T15:07:18.936985,10230,2.585835,1.074355,0.243924,-0.042394,-0.077800,0.995152
2011-09-26T15:07:18.946985,10240,2.906528,1.071638,0.216136,-0.043714,-0.078222,0.994952
2011-09-26T15:07:18.956985,10250,3.126562,0.872710,0.202668,-0.044212,-0.076515,0.993410
2011-09-26T15:07:18.966985,10260,3.342336,0.665478,0.189806,-0.044675,-0.074718,0.991812
2011-09-26T15:07:18.976985,10270,3.558110,0.458246,0.176943,-0.045138,-0.072921,0.990213
2011-09-26T15:07:18.986985,10280,3.773884,0.251014,0.164081,-0.045600,-0.071123,0.988615
2011-09-26T15:07:18.996985,10290,3.989658,0.043783,0.151219,-0.046063,-0.069326,0.987017
2011-09-26T15:07:19.006985,10300,4.205432,-0.163449,0.138357,-0.046526,-0.067529,0.985419
2011-09-26T15:07:19.016985,10310,4.421206,-0.370681,0.125494,-0.046989,-0.065732,0.983820
2011-09-26T15:07:19.026985,10320,4.636980,-0.577913,0.112632,-0.047452,-0.063934,0.982222
2011-09-26T15:07:19.036985,10330,4.852754,-0.785145,0.099770,-0.047915,-0.062137,0.980624
2011-09-26T15:07:19.046985,10340,5.068528,-0.992376,0.086907,-0.048378,-0.060340,0.979025
2011-09-26T15:07:19.056985,10350,5.284302,-1.199608,0.074045,-0.048840,-0.058543,0.977427
2011-09-26T15:07:19.066985,10360,5.217781,-1.261639,0.116616,-0.048356,-0.054413,0.981950
2011-09-26T15:07:19.076985,10370,5.138481,-1.317096,0.161697,-0.047829,-0.050178,0.986751
2011-09-26T15:07:19.086985,10380,5.059181,-1.372553,0.206778,-0.047302,-0.045943,0.991551
2011-09-26T15:07:19.096985,10390,4.979881,-1.428011,0.251859,-0.046775,-0.041708,0.996352
2011-09-26T15:07:19.106985,10400,4.900581,-1.483468,0.296939,-0.046248,-0.037473,1.001152
2011-09-26T15:07:19.116985,10410,4.821280,-1.538925,0.342020,-0.045721,-0.033237,1.005953
2011-09-26T15:07:19.126985,10420,4.741980,-1.594382,0.387101,-0.045194,-0.029002,1.010753
2011-09-26T15:07:19.136985,10430,4.662680,-1.649840,0.432182,-0.044667,-0.024767,1.015553
2011-09-26T15:07:19.146985,10440,4.583380,-1.705297,0.477262,-0.044140,-0.020532,1.020354
2011-09-26T15:07:19.156985,10450,4.504080,-1.760754,0.522343,-0.043613,-0.016297,1.025154
2011-09-26T15:07:19.166985,10460,4.323348,-1.687623,0.499639,-0.042761,-0.011598,1.025390
2011-09-26T15:07:19.176985,10470,4.135566,-1.605554,0.472223,-0.041888,-0.006866,1.025309
2011-09-26T15:07:19.186985,10480,3.947783,-1.523484,0.444807,-0.041014,-0.002135,1.025228
2011-09-26T15:07:19.196985,10490,3.760001,-1.441415,0.417391,-0.040140,0.002597,1.025147
2011-09-26T15:07:19.206985,10500,3.572219,-1.359346,0.389975,-0.039266,0.007328,1.025066
2011-09-26T15:07:19.216985,10510,3.384437,-1.277277,0.362559,-0.038392,0.012059,1.024984
2011-09-26T15:07:19.226985,10520,3.196655,-1.195207,0.335143,-0.037518,0.016791,1.024903
2011-09-26T15:07:19.236985,10530,3.008873,-1.113138,0.307727,-0.036645,0.021522,1.024822
2011-09-26T15:07:19.246985,10540,2.821091,-1.031069,0.280311,-0.035771,0.026254,1.024741
2011-09-26T15:07:19.256985,10550,2.633308,-0.948999,0.252896,-0.034897,0.030985,1.024659
2011-09-26T15:07:19.266985,10560,2.445526,-0.866930,0.225480,-0.034023,0.035717,1.024578
2011-09-26T15:07:19.276985,10570,2.197569,-0.844284,0.195585,-0.035209,0.033969,1.021959
2011-09-26T15:07:19.286985,10580,1.946842,-0.824373,0.165577,-0.036489,0.031923,1.019222
2011-09-26T15:07:19.296985,10590,1.696116,-0.804462,0.135569,-0.037770,0.029877,1.016486
2011-09-26T15:07:19.306985,10600,1.445389,-0.784550,0.105560,-0.039050,0.027831,1.013749
2011-09-26T15:07:19.316985,10610,1.194663,-0.764639,0.075552,-0.040330,0.025785,1.011013
2011-09-26T15:07:19.326985,10620,0.943936,-0.744727,0.045544,-0.041611,0.023739,1.008277
2011-09-26T15:07:19.336985,10630,0.693209,-0.724816,0.015535,-0.042891,0.021693,1.005540
2011-09-26T15:07:19.346985,10640,0.442483,-0.704905,-0.014473,-0.044172,0.019647,1.002804
2011-09-26T15:07:19.356985,10650,0.191756,-0.684993,-0.044481,-0.045452,0.017601,1.000067
2011-09-26T15:07:19.366985,10660,-0.058970,-0.665082,-0.074490,-0.046732,0.015555,0.997331
2011-09-26T15:07:19.376985,10670,-0.255918,-0.684364,-0.052031,-0.046245,0.013315,0.995963
2011-09-26T15:07:19.386985,10680,-0.450232,-0.705565,-0.027003,-0.045671,0.011065,0.994663
2011-09-26T15:07:19.396985,10690,-0.644546,-0.726766,-0.001975,-0.045097,0.008815,0.993362
2011-09-26T15:07:19.406985,10700,-0.838861,-0.747968,0.023052,-0.044522,0.006566,0.992062
2011-09-26T15:07:19.416985,10710,-1.033175,-0.769169,0.048080,-0.043948,0.004316,0.990761
2011-09-26T15:07:19.426985,10720,-1.227489,-0.790370,0.073108,-0.043374,0.002066,0.989461
2011-09-26T15:07:19.436985,10730,-1.421804,-0.811571,0.098136,-0.042800,-0.000184,0.988160
2011-09-26T15:07:19.446985,10740,-1.616118,-0.832772,0.123163,-0.042226,-0.002433,0.986860
2011-09-26T15:07:19.456985,10750,-1.810432,-0.853974,0.148191,-0.041652,-0.004683,0.985559
2011-09-26T15:07:19.466985,10760,-2.004747,-0.875175,0.173219,-0.041078,-0.006933,0.984259
2011-09-26T15:07:19.476985,10770,-2.141682,-0.887001,0.216983,-0.041003,-0.009598,0.984218
2011-09-26T15:07:19.486985,10780,-2.276208,-0.898433,0.261534,-0.040949,-0.012281,0.984230
2011-09-26T15:07:19.496985,10790,-2.410734,-0.909865,0.306084,-0.040895,-0.014964,0.984243
2011-09-26T15:07:19.506985,10800,-2.545261,-0.921298,0.350635,-0.040842,-0.017647,0.984255
2011-09-26T15:07:19.516985,10810,-2.679787,-0.932730,0.395186,-0.040788,-0.020330,0.984268
2011-09-26T15:07:19.526985,10820,-2.814314,-0.944162,0.439736,-0.040734,-0.023013,0.984280
2011-09-26T15:07:19.536985,10830,-2.948840,-0.955595,0.484287,-0.040681,-0.025695,0.984292
2011-09-26T15:07:19.546985,10840,-3.083367,-0.967027,0.528837,-0.040627,-0.028378,0.984305
2011-09-26T15:07:19.556985,10850,-3.217893,-0.978459,0.573388,-0.040573,-0.031061,0.984317
2011-09-26T15:07:19.566985,10860,-3.352420,-0.989892,0.617939,-0.040519,-0.033744,0.984330
2011-09-26T15:07:19.576985,10870,-3.486946,-1.001324,0.662489,-0.040466,-0.036427,0.984342
2011-09-26T15:07:19.586985,10880,-3.356752,-0.977799,0.620836,-0.038335,-0.039123,0.984153
2011-09-26T15:07:19.596985,10890,-3.213388,-0.952535,0.574894,-0.036101,-0.041820,0.983955
2011-09-26T15:07:19.606985,10900,-3.070025,-0.927271,0.528953,-0.033867,-0.044518,0.983756
2011-09-26T15:07:19.616985,10910,-2.926662,-0.902007,0.483011,-0.031633,-0.047215,0.983557
2011-09-26T15:07:19.626985,10920,-2.783299,-0.876743,0.437070,-0.029399,-0.049912,0.983358
2011-09-26T15:07:19.636985,10930,-2.639936,-0.851479,0.391128,-0.027166,-0.052609,0.983159
2011-09-26T15:07:19.646985,10940,-2.496573,-0.826216,0.345187,-0.024932,-0.055306,0.982961
2011-09-26T15:07:19.656985,10950,-2.353210,-0.800952,0.299245,-0.022698,-0.058003,0.982762
2011-09-26T15:07:19.666985,10960,-2.209847,-0.775688,0.253304,-0.020464,-0.060700,0.982563
2011-09-26T15:07:19.676985,10970,-2.066484,-0.750424,0.207363,-0.018230,-0.063397,0.982364
2011-09-26T15:07:19.686985,10980,-1.831497,-0.846886,0.198208,-0.019135,-0.062487,0.980813
2011-09-26T15:07:19.696985,10990,-1.591670,-0.949777,0.190996,-0.020206,-0.061386,0.979191
2011-09-26T15:07:19.706985,11000,-1.351843,-1.052669,0.183785,-0.021277,-0.060285,0.977569
2011-09-26T15:07:19.716985,11010,-1.112016,-1.155560,0.176573,-0.022348,-0.059184,0.975946
2011-09-26T15:07:19.726985,11020,-0.872190,-1.258452,0.169361,-0.023419,-0.058083,0.974324
2011-09-26T15:07:19.736985,11030,-0.632363,-1.361343,0.162150,-0.024490,-0.056982,0.972702
2011-09-26T15:07:19.746985,11040,-0.392536,-1.464235,0.154938,-0.025561,-0.055881,0.971079
2011-09-26T15:07:19.756985,11050,-0.152709,-1.567126,0.147726,-0.026632,-0.054780,0.969457
2011-09-26T15:07:19.766985,11060,0.087118,-1.670018,0.140515,-0.027703,-0.053679,0.967835
2011-09-26T15:07:19.776985,11070,0.326944,-1.772909,0.133303,-0.028774,-0.052578,0.966212
2011-09-26T15:07:19.786985,11080,0.261484,-1.868426,0.161022,-0.028016,-0.051439,0.966045
2011-09-26T15:07:19.796985,11090,0.180797,-1.963575,0.190483,-0.027167,-0.050299,0.965950
2011-09-26T15:07:19.806985,11100,0.100109,-2.058724,0.219944,-0.026318,-0.049158,0.965854
2011-09-26T15:07:19.816985,11110,0.019422,-2.153873,0.249405,-0.025469,-0.048018,0.965759
2011-09-26T15:07:19.826985,11120,-0.061266,-2.249022,0.278866,-0.024620,-0.046877,0.965664
2011-09-26T15:07:19.836985,11130,-0.141953,-2.344171,0.308327,-0.023771,-0.045737,0.965569
2011-09-26T15:07:19.846985,11140,-0.222641,-2.439320,0.337788,-0.022922,-0.044597,0.965474
2011-09-26T15:07:19.856985,11150,-0.303328,-2.534470,0.367249,-0.022072,-0.043456,0.965378
2011-09-26T15:07:19.866985,11160,-0.384016,-2.629619,0.396710,-0.021223,-0.042316,0.965283
2011-09-26T15:07:19.876985,11170,-0.464703,-2.724768,0.426171,-0.020374,-0.041175,0.965188
2011-09-26T15:07:19.886985,11180,-0.545391,-2.819917,0.455632,-0.019525,-0.040035,0.965093
2011-09-26T15:07:19.896985,11190,-0.289140,-2.843328,0.564047,-0.025032,-0.050556,0.979367
2011-09-26T15:07:19.906985,11200,-0.015347,-2.863005,0.676573,-0.030869,-0.061684,0.994388
2011-09-26T15:07:19.916985,11210,0.258445,-2.882682,0.789099,-0.036707,-0.072812,1.009410
2011-09-26T15:07:19.926985,11220,0.532238,-2.902359,0.901624,-0.042545,-0.083940,1.024432
2011-09-26T15:07:19.936985,11230,0.806031,-2.922036,1.014150,-0.048382,-0.095067,1.039454
2011-09-26T15:07:19.946985,11240,1.079824,-2.941712,1.126676,-0.054220,-0.106195,1.054475
2011-09-26T15:07:19.956985,11250,1.353617,-2.961389,1.239201,-0.060058,-0.117323,1.069497
2011-09-26T15:07:19.966985,11260,1.627409,-2.981066,1.351727,-0.065895,-0.128451,1.084519
2011-09-26T15:07:19.976985,11270,1.901202,-3.000743,1.464253,-0.071733,-0.139579,1.099541
2011-09-26T15:07:19.986985,11280,2.373824,-3.010855,1.415568,-0.067495,-0.129992,1.096970
2011-09-26T15:07:19.996985,11290,2.856465,-3.020485,1.358760,-0.062749,-0.119362,1.093514
2011-09-26T15:07:20.006985,11300,3.339107,-3.030116,1.301951,-0.058003,-0.108731,1.090057
2011-09-26T15:07:20.016985,11310,3.821748,-3.039746,1.245143,-0.053257,-0.098100,1.086600
2011-09-26T15:07:20.026985,11320,4.304389,-3.049377,1.188334,-0.048511,-0.087470,1.083143
2011-09-26T15:07:20.036985,11330,4.787031,-3.059007,1.131526,-0.043765,-0.076839,1.079686
2011-09-26T15:07:20.046985,11340,5.269672,-3.068637,1.074717,-0.039019,-0.066209,1.076229
2011-09-26T15:07:20.056985,11350,5.752313,-3.078268,1.017909,-0.034273,-0.055578,1.072773
2011-09-26T15:07:20.066985,11360,6.234954,-3.087898,0.961100,-0.029528,-0.044947,1.069316
2011-09-26T15:07:20.076985,11370,6.717596,-3.097529,0.904292,-0.024782,-0.034317,1.065859
2011-09-26T15:07:20.086985,11380,7.200237,-3.107159,0.847483,-0.020036,-0.023686,1.062402
2011-09-26T15:07:20.096985,11390,7.114215,-3.056825,0.778999,-0.019520,-0.020396,1.056790
2011-09-26T15:07:20.106985,11400,6.988809,-3.002338,0.709705,-0.019298,-0.017615,1.051029
2011-09-26T15:07:20.116985,11410,6.863404,-2.947852,0.640412,-0.019075,-0.014833,1.045268
2011-09-26T15:07:20.126985,11420,6.737998,-2.893365,0.571119,-0.018853,-0.012052,1.039507
2011-09-26T15:07:20.136985,11430,6.612593,-2.838878,0.501826,-0.018630,-0.009270,1.033746
2011-09-26T15:07:20.146985,11440,6.487187,-2.784391,0.432533,-0.018408,-0.006489,1.027986
2011-09-26T15:07:20.156985,11450,6.361781,-2.729904,0.363240,-0.018185,-0.003707,1.022225
2011-09-26T15:07:20.166985,11460,6.236376,-2.675417,0.293946,-0.017962,-0.000926,1.016464
2011-09-26T15:07:20.176985,11470,6.110970,-2.620931,0.224653,-0.017740,0.001856,1.010703
2011-09-26T15:07:20.186985,11480,5.985565,-2.566444,0.155360,-0.017517,0.004637,1.004942
2011-09-26T15:07:20.196985,11490,5.860159,-2.511957,0.086067,-0.017295,0.007419,0.999181
2011-09-26T15:07:20.206985,11500,5.583129,-2.479229,0.146218,-0.017018,0.011730,1.000404
2011-09-26T15:07:20.216985,11510,5.297900,-2.447677,0.213368,-0.016738,0.016125,1.002005
2011-09-26T15:07:20.226985,11520,5.012672,-2.416125,0.280518,-0.016458,0.020519,1.003605
2011-09-26T15:07:20.236985,11530,4.727444,-2.384573,0.347668,-0.016178,0.024913,1.005206
2011-09-26T15:07:20.246985,11540,4.442215,-2.353022,0.414819,-0.015898,0.029308,1.006807
2011-09-26T15:07:20.256985,11550,4.156987,-2.321470,0.481969,-0.015618,0.033702,1.008408
2011-09-26T15:07:20.266985,11560,3.871758,-2.289918,0.549119,-0.015338,0.038096,1.010008
2011-09-26T15:07:20.276985,11570,3.586530,-2.258366,0.616269,-0.015058,0.042491,1.011609
2011-09-26T15:07:20.286985,11580,3.301302,-2.226814,0.683419,-0.014779,0.046885,1.013210
2011-09-26T15:07:20.296985,11590,3.016073,-2.195263,0.750569,-0.014499,0.051279,1.014811
2011-09-26T15:07:20.306985,11600,2.730845,-2.163711,0.817719,-0.014219,0.055674,1.016412
2011-09-26T15:07:20.316985,11610,2.292801,-1.997924,0.773275,-0.013276,0.058228,1.013956
2011-09-26T15:07:20.326985,11620,1.847188,-1.825488,0.723305,-0.012301,0.060691,1.011300
2011-09-26T15:07:20.336985,11630,1.401575,-1.653052,0.673334,-0.011326,0.063155,1.008644
2011-09-26T15:07:20.346985,11640,0.955962,-1.480617,0.623364,-0.010350,0.065618,1.005988
2011-09-26T15:07:20.356985,11650,0.510349,-1.308181,0.573393,-0.009375,0.068081,1.003332
2011-09-26T15:07:20.366985,11660,0.064736,-1.135745,0.523422,-0.008400,0.070545,1.000676
2011-09-26T15:07:20.376985,11670,-0.380877,-0.963310,0.473452,-0.007425,0.073008,0.998019
2011-09-26T15:07:20.386985,11680,-0.826490,-0.790874,0.423481,-0.006449,0.075471,0.995363
2011-09-26T15:07:20.396985,11690,-1.272103,-0.618438,0.373510,-0.005474,0.077935,0.992707
2011-09-26T15:07:20.406985,11700,-1.447633,-0.662103,0.362982,-0.006329,0.070878,0.991878
2011-09-26T15:07:20.416985,11710,-1.609546,-0.716663,0.354442,-0.007276,0.063342,0.991141
2011-09-26T15:07:20.426985,11720,-1.771458,-0.771223,0.345902,-0.008224,0.055805,0.990404
2011-09-26T15:07:20.436985,11730,-1.933371,-0.825783,0.337362,-0.009171,0.048269,0.989667
2011-09-26T15:07:20.446985,11740,-2.095284,-0.880344,0.328823,-0.010119,0.040732,0.988930
2011-09-26T15:07:20.456985,11750,-2.257197,-0.934904,0.320283,-0.011066,0.033196,0.988194
2011-09-26T15:07:20.466985,11760,-2.419109,-0.989464,0.311743,-0.012013,0.025659,0.987457
2011-09-26T15:07:20.476985,11770,-2.581022,-1.044024,0.303203,-0.012961,0.018123,0.986720
2011-09-26T15:07:20.486985,11780,-2.742935,-1.098584,0.294663,-0.013908,0.010587,0.985983
2011-09-26T15:07:20.496985,11790,-2.904848,-1.153144,0.286124,-0.014855,0.003050,0.985246
2011-09-26T15:07:20.506985,11800,-3.066760,-1.207705,0.277584,-0.015803,-0.004486,0.984509
2011-09-26T15:07:20.516985,11810,-3.228674,-1.262265,0.269044,-0.016750,-0.012023,0.983772
2011-09-26T15:07:20.526985,11820,-3.390587,-1.316825,0.260504,-0.017697,-0.019559,0.983035
2011-09-26T15:07:20.536985,11830,-3.552500,-1.371385,0.251964,-0.018645,-0.027096,0.982298
2011-09-26T15:07:20.546985,11840,-3.714413,-1.425946,0.243424,-0.019592,-0.034632,0.981561
2011-09-26T15:07:20.556985,11850,-3.876326,-1.480506,0.234884,-0.020540,-0.042169,0.980825
2011-09-26T15:07:20.566985,11860,-4.038239,-1.535066,0.226345,-0.021487,-0.049705,0.980088
2011-09-26T15:07:20.576985,11870,-4.200152,-1.589626,0.217805,-0.022434,-0.057242,0.979351
2011-09-26T15:07:20.586985,11880,-4.362065,-1.644187,0.209265,-0.023382,-0.064778,0.978614
2011-09-26T15:07:20.596985,11890,-4.523979,-1.698747,0.200725,-0.024329,-0.072315,0.977877
2011-09-26T15:07:20.606985,11900,-4.685892,-1.753307,0.192185,-0.025276,-0.079851,0.977140
2011-09-26T15:07:20.616985,11910,-4.480972,-1.834238,0.285996,-0.026254,-0.079330,0.984603
2011-09-26T15:07:20.626985,11920,-4.253473,-1.916793,0.386108,-0.027233,-0.078313,0.992571
2011-09-26T15:07:20.636985,11930,-4.025974,-1.999347,0.486219,-0.028212,-0.077296,1.000539
2011-09-26T15:07:20.646985,11940,-3.798475,-2.081901,0.586330,-0.029191,-0.076278,1.008507
2011-09-26T15:07:20.656985,11950,-3.570975,-2.164456,0.686441,-0.030170,-0.075261,1.016475
2011-09-26T15:07:20.666985,11960,-3.343476,-2.247010,0.786552,-0.031150,-0.074244,1.024442
2011-09-26T15:07:20.676985,11970,-3.115977,-2.329564,0.886663,-0.032129,-0.073227,1.032410
2011-09-26T15:07:20.686985,11980,-2.888478,-2.412119,0.986774,-0.033108,-0.072210,1.040378
2011-09-26T15:07:20.696985,11990,-2.660979,-2.494673,1.086885,-0.034087,-0.071193,1.048346
2011-09-26T15:07:20.706985,12000,-2.433480,-2.577227,1.186996,-0.035066,-0.070175,1.056314
2011-09-26T15:07:20.716985,12010,-2.205981,-2.659782,1.287108,-0.036045,-0.069158,1.064282
2011-09-26T15:07:20.726985,12020,-1.911533,-2.676209,1.199021,-0.034169,-0.062071,1.058867
2011-09-26T15:07:20.736985,12030,-1.613279,-2.688875,1.100232,-0.032129,-0.054638,1.052692
2011-09-26T15:07:20.746985,12040,-1.315025,-2.701542,1.001443,-0.030090,-0.047205,1.046517
2011-09-26T15:07:20.756985,12050,-1.016770,-2.714209,0.902653,-0.028051,-0.039772,1.040342
2011-09-26T15:07:20.766985,12060,-0.718516,-2.726875,0.803864,-0.026012,-0.032340,1.034167
2011-09-26T15:07:20.776985,12070,-0.420262,-2.739542,0.705075,-0.023973,-0.024907,1.027992
2011-09-26T15:07:20.786985,12080,-0.122007,-2.752208,0.606286,-0.021933,-0.017474,1.021817
2011-09-26T15:07:20.796985,12090,0.176247,-2.764875,0.507497,-0.019894,-0.010042,1.015641
2011-09-26T15:07:20.806985,12100,0.474501,-2.777541,0.408708,-0.017855,-0.002609,1.009466
2011-09-26T15:07:20.816985,12110,0.772756,-2.790208,0.309918,-0.015816,0.004824,1.003291
2011-09-26T15:07:20.826985,12120,0.775603,-2.713148,0.301488,-0.014932,-0.001004,1.011683
2011-09-26T15:07:20.836985,12130,0.764665,-2.631900,0.297273,-0.014103,-0.007450,1.020754
2011-09-26T15:07:20.846985,12140,0.753728,-2.550653,0.293059,-0.013273,-0.013897,1.029825
2011-09-26T15:07:20.856985,12150,0.742791,-2.469406,0.288845,-0.012443,-0.020343,1.038896
2011-09-26T15:07:20.866985,12160,0.731854,-2.388159,0.284630,-0.011614,-0.026790,1.047968
2011-09-26T15:07:20.876985,12170,0.720917,-2.306912,0.280416,-0.010784,-0.033236,1.057039
2011-09-26T15:07:20.886985,12180,0.709980,-2.225664,0.276201,-0.009955,-0.039683,1.066110
2011-09-26T15:07:20.896985,12190,0.699043,-2.144417,0.271987,-0.009125,-0.046129,1.075181
2011-09-26T15:07:20.906985,12200,0.688106,-2.063170,0.267773,-0.008295,-0.052575,1.084253
2011-09-26T15:07:20.916985,12210,0.677169,-1.981923,0.263558,-0.007466,-0.059022,1.093324
2011-09-26T15:07:20.926985,12220,0.703015,-1.696072,0.332006,-0.008465,-0.056373,1.092866
2011-09-26T15:07:20.936985,12230,0.730659,-1.400225,0.404003,-0.009555,-0.053280,1.091942
2011-09-26T15:07:20.946985,12240,0.758303,-1.104378,0.476000,-0.010644,-0.050187,1.091018
2011-09-26T15:07:20.956985,12250,0.785947,-0.808530,0.547998,-0.011733,-0.047093,1.090094
2011-09-26T15:07:20.966985,12260,0.813591,-0.512683,0.619995,-0.012822,-0.044000,1.089171
2011-09-26T15:07:20.976985,12270,0.841235,-0.216836,0.691993,-0.013911,-0.040907,1.088247
2011-09-26T15:07:20.986985,12280,0.868878,0.079012,0.763990,-0.015000,-0.037814,1.087323
2011-09-26T15:07:20.996985,12290,0.896522,0.374859,0.835987,-0.016089,-0.034720,1.086399
2011-09-26T15:07:21.006985,12300,0.924166,0.670706,0.907985,-0.017178,-0.031627,1.085476
2011-09-26T15:07:21.016985,12310,0.951810,0.966553,0.979982,-0.018268,-0.028534,1.084552
2011-09-26T15:07:21.026985,12320,0.979454,1.262401,1.051980,-0.019357,-0.025441,1.083628
2011-09-26T15:07:21.036985,12330,0.938384,1.308287,0.977855,-0.019534,-0.021473,1.072527
2011-09-26T15:07:21.046985,12340,0.893554,1.340497,0.895734,-0.019661,-0.017458,1.060870
2011-09-26T15:07:21.056985,12350,0.848725,1.372706,0.813613,-0.019788,-0.013443,1.049212
2011-09-26T15:07:21.066985,12360,0.803895,1.404915,0.731493,-0.019915,-0.009428,1.037555
2011-09-26T15:07:21.076985,12370,0.759065,1.437125,0.649372,-0.020042,-0.005413,1.025897
2011-09-26T15:07:21.086985,12380,0.714235,1.469334,0.567252,-0.020169,-0.001398,1.014239
2011-09-26T15:07:21.096985,12390,0.669406,1.501543,0.485131,-0.020296,0.002617,1.002582
2011-09-26T15:07:21.106985,12400,0.624576,1.533753,0.403010,-0.020423,0.006633,0.990924
2011-09-26T15:07:21.116985,12410,0.579746,1.565962,0.320890,-0.020550,0.010648,0.979266
2011-09-26T15:07:21.126985,12420,0.534917,1.598171,0.238769,-0.020677,0.014663,0.967609
2011-09-26T15:07:21.136985,12430,0.507732,1.453341,0.215070,-0.020883,0.014902,0.961946
2011-09-26T15:07:21.146985,12440,0.481831,1.295640,0.195618,-0.021094,0.014867,0.956719
2011-09-26T15:07:21.156985,12450,0.455930,1.137940,0.176166,-0.021305,0.014832,0.951492
2011-09-26T15:07:21.166985,12460,0.430028,0.980239,0.156713,-0.021516,0.014797,0.946265
2011-09-26T15:07:21.176985,12470,0.404127,0.822538,0.137261,-0.021727,0.014762,0.941038
2011-09-26T15:07:21.186985,12480,0.378225,0.664837,0.117809,-0.021938,0.014726,0.935812
2011-09-26T15:07:21.196985,12490,0.352324,0.507136,0.098357,-0.022149,0.014691,0.930585
2011-09-26T15:07:21.206985,12500,0.326422,0.349436,0.078905,-0.022360,0.014656,0.925358
2011-09-26T15:07:21.216985,12510,0.300521,0.191735,0.059453,-0.022571,0.014621,0.920131
2011-09-26T15:07:21.226985,12520,0.274619,0.034034,0.040000,-0.022782,0.014586,0.914904
2011-09-26T15:07:21.236985,12530,0.177992,-0.095199,0.079015,-0.021705,0.010580,0.920217
2011-09-26T15:07:21.246985,12540,0.078110,-0.223121,0.120721,-0.020569,0.006391,0.926014
2011-09-26T15:07:21.256985,12550,-0.021772,-0.351043,0.162426,-0.019433,0.002202,0.931812
2011-09-26T15:07:21.266985,12560,-0.121653,-0.478966,0.204132,-0.018297,-0.001987,0.937610
2011-09-26T15:07:21.276985,12570,-0.221535,-0.606888,0.245837,-0.017162,-0.006176,0.943407
2011-09-26T15:07:21.286985,12580,-0.321417,-0.734810,0.287543,-0.016026,-0.010364,0.949205
2011-09-26T15:07:21.296985,12590,-0.421299,-0.862733,0.329248,-0.014890,-0.014553,0.955002
2011-09-26T15:07:21.306985,12600,-0.521181,-0.990655,0.370954,-0.013754,-0.018742,0.960800
2011-09-26T15:07:21.316985,12610,-0.621063,-1.118577,0.412659,-0.012618,-0.022931,0.966597
2011-09-26T15:07:21.326985,12620,-0.720945,-1.246500,0.454365,-0.011482,-0.027120,0.972395
2011-09-26T15:07:21.336985,12630,-0.820827,-1.374422,0.496070,-0.010346,-0.031309,0.978193
2011-09-26T15:07:21.346985,12640,-0.863812,-1.349074,0.497911,-0.008813,-0.030633,0.983341
2011-09-26T15:07:21.356985,12650,-0.903644,-1.315234,0.497543,-0.007257,-0.029687,0.988454
2011-09-26T15:07:21.366985,12660,-0.943477,-1.281395,0.497175,-0.005702,-0.028742,0.993566
2011-09-26T15:07:21.376985,12670,-0.983310,-1.247556,0.496808,-0.004146,-0.027797,0.998679
2011-09-26T15:07:21.386985,12680,-1.023143,-1.213717,0.496440,-0.002591,-0.026851,1.003791
2011-09-26T15:07:21.396985,12690,-1.062975,-1.179878,0.496072,-0.001035,-0.025906,1.008904
2011-09-26T15:07:21.406985,12700,-1.102808,-1.146039,0.495704,0.000520,-0.024960,1.014017
2011-09-26T15:07:21.416985,12710,-1.142641,-1.112199,0.495337,0.002076,-0.024015,1.019129
2011-09-26T15:07:21.426985,12720,-1.182474,-1.078360,0.494969,0.003631,-0.023070,1.024242
2011-09-26T15:07:21.436985,12730,-1.222306,-1.044521,0.494601,0.005187,-0.022124,1.029354
2011-09-26T15:07:21.446985,12740,-1.123964,-0.952364,0.443761,0.003304,-0.025136,1.028820
2011-09-26T15:07:21.456985,12750,-1.017349,-0.856714,0.389900,0.001215,-0.028385,1.027947
2011-09-26T15:07:21.466985,12760,-0.910734,-0.761065,0.336038,-0.000873,-0.031633,1.027074
2011-09-26T15:07:21.476985,12770,-0.804118,-0.665416,0.282176,-0.002962,-0.034882,1.026201
2011-09-26T15:07:21.486985,12780,-0.697503,-0.569767,0.228314,-0.005051,-0.038131,1.025328
2011-09-26T15:07:21.496985,12790,-0.590888,-0.474117,0.174453,-0.007139,-0.041379,1.024455
2011-09-26T15:07:21.506985,12800,-0.484272,-0.378468,0.120591,-0.009228,-0.044628,1.023582
2011-09-26T15:07:21.516985,12810,-0.377657,-0.282819,0.066729,-0.011316,-0.047877,1.022710
2011-09-26T15:07:21.526985,12820,-0.271042,-0.187169,0.012867,-0.013405,-0.051125,1.021837
2011-09-26T15:07:21.536985,12830,-0.164426,-0.091520,-0.040995,-0.015494,-0.054374,1.020964
2011-09-26T15:07:21.546985,12840,-0.351057,-0.049913,-0.030180,-0.015427,-0.048128,1.020457
2011-09-26T15:07:21.556985,12850,-0.554525,-0.011408,-0.015652,-0.015238,-0.041336,1.019971
2011-09-26T15:07:21.566985,12860,-0.757992,0.027097,-0.001124,-0.015048,-0.034544,1.019485
2011-09-26T15:07:21.576985,12870,-0.961459,0.065602,0.013404,-0.014858,-0.027752,1.018999
2011-09-26T15:07:21.586985,12880,-1.164926,0.104107,0.027932,-0.014668,-0.020960,1.018513
2011-09-26T15:07:21.596985,12890,-1.368394,0.142612,0.042460,-0.014478,-0.014168,1.018027
2011-09-26T15:07:21.606985,12900,-1.571861,0.181117,0.056988,-0.014288,-0.007377,1.017541
2011-09-26T15:07:21.616985,12910,-1.775328,0.219622,0.071516,-0.014098,-0.000585,1.017055
2011-09-26T15:07:21.626985,12920,-1.978796,0.258127,0.086044,-0.013909,0.006207,1.016569
2011-09-26T15:07:21.636985,12930,-2.182263,0.296632,0.100572,-0.013719,0.012999,1.016083
2011-09-26T15:07:21.646985,12940,-2.385730,0.335137,0.115100,-0.013529,0.019791,1.015597
2011-09-26T15:07:21.656985,12950,-2.204483,0.360761,0.111202,-0.013915,0.012396,1.014859
2011-09-26T15:07:21.666985,12960,-2.000632,0.385630,0.106221,-0.014334,0.004168,1.014107
2011-09-26T15:07:21.676985,12970,-1.796780,0.410498,0.101240,-0.014754,-0.004061,1.013355
2011-09-26T15:07:21.686985,12980,-1.592929,0.435366,0.096260,-0.015173,-0.012289,1.012603
2011-09-26T15:07:21.696985,12990,-1.389078,0.460234,0.091279,-0.015593,-0.020517,1.011850
2011-09-26T15:07:21.706985,13000,-1.185227,0.485102,0.086299,-0.016013,-0.028746,1.011098
2011-09-26T15:07:21.716985,13010,-0.981376,0.509970,0.081318,-0.016432,-0.036974,1.010346
2011-09-26T15:07:21.726985,13020,-0.777525,0.534838,0.076337,-0.016852,-0.045202,1.009594
2011-09-26T15:07:21.736985,13030,-0.573674,0.559706,0.071357,-0.017271,-0.053431,1.008842
2011-09-26T15:07:21.746985,13040,-0.532915,0.587426,0.093386,-0.017315,-0.052807,1.006459
2011-09-26T15:07:21.756985,13050,-0.501190,0.615304,0.116911,-0.017337,-0.051693,1.003986
2011-09-26T15:07:21.766985,13060,-0.469466,0.643182,0.140436,-0.017359,-0.050579,1.001512
2011-09-26T15:07:21.776985,13070,-0.437742,0.671060,0.163961,-0.017382,-0.049465,0.999039
2011-09-26T15:07:21.786985,13080,-0.406017,0.698937,0.187486,-0.017404,-0.048351,0.996566
2011-09-26T15:07:21.796985,13090,-0.374293,0.726815,0.211012,-0.017426,-0.047236,0.994093
2011-09-26T15:07:21.806985,13100,-0.342569,0.754693,0.234537,-0.017449,-0.046122,0.991620
2011-09-26T15:07:21.816985,13110,-0.310845,0.782571,0.258062,-0.017471,-0.045008,0.989147
2011-09-26T15:07:21.826985,13120,-0.279120,0.810448,0.281587,-0.017493,-0.043894,0.986673
2011-09-26T15:07:21.836985,13130,-0.247396,0.838326,0.305112,-0.017516,-0.042780,0.984200
2011-09-26T15:07:21.846985,13140,-0.215672,0.866204,0.328637,-0.017538,-0.041666,0.981727
2011-09-26T15:07:21.856985,13150,-0.183947,0.894082,0.352163,-0.017560,-0.040552,0.979254
2011-09-26T15:07:21.866985,13160,-0.283220,0.827689,0.284878,-0.016500,-0.034439,0.975817
2011-09-26T15:07:21.876985,13170,-0.388938,0.756658,0.213125,-0.015388,-0.028080,0.972332
2011-09-26T15:07:21.886985,13180,-0.494657,0.685627,0.141371,-0.014275,-0.021722,0.968847
2011-09-26T15:07:21.896985,13190,-0.600375,0.614595,0.069618,-0.013162,-0.015363,0.965363
2011-09-26T15:07:21.906985,13200,-0.706094,0.543564,-0.002135,-0.012049,-0.009004,0.961878
2011-09-26T15:07:21.916985,13210,-0.811813,0.472533,-0.073888,-0.010936,-0.002646,0.958393
2011-09-26T15:07:21.926985,13220,-0.917531,0.401501,-0.145642,-0.009823,0.003713,0.954908
2011-09-26T15:07:21.936985,13230,-1.023250,0.330470,-0.217395,-0.008710,0.010072,0.951424
2011-09-26T15:07:21.946985,13240,-1.128968,0.259439,-0.289148,-0.007597,0.016430,0.947939
2011-09-26T15:07:21.956985,13250,-1.234687,0.188407,-0.360901,-0.006484,0.022789,0.944454
2011-09-26T15:07:21.966985,13260,-1.224446,0.112586,-0.315060,-0.008022,0.015986,0.951525
2011-09-26T15:07:21.976985,13270,-1.207207,0.036476,-0.262123,-0.009720,0.008389,0.959232
2011-09-26T15:07:21.986985,13280,-1.189969,-0.039634,-0.209185,-0.011419,0.000792,0.966939
2011-09-26T15:07:21.996985,13290,-1.172731,-0.115744,-0.156248,-0.013117,-0.006805,0.974646
2011-09-26T15:07:22.006985,13300,-1.155492,-0.191854,-0.103311,-0.014815,-0.014401,0.982353
2011-09-26T15:07:22.016985,13310,-1.138254,-0.267963,-0.050373,-0.016513,-0.021998,0.990061
2011-09-26T15:07:22.026985,13320,-1.121016,-0.344073,0.002564,-0.018211,-0.029595,0.997768
2011-09-26T15:07:22.036985,13330,-1.103777,-0.420183,0.055502,-0.019909,-0.037192,1.005475
2011-09-26T15:07:22.046985,13340,-1.086539,-0.496293,0.108439,-0.021607,-0.044789,1.013182
2011-09-26T15:07:22.056985,13350,-1.069300,-0.572403,0.161376,-0.023305,-0.052386,1.020889
2011-09-26T15:07:22.066985,13360,-1.117323,-0.543069,0.222805,-0.021438,-0.050527,1.021919
2011-09-26T15:07:22.076985,13370,-1.169355,-0.507256,0.284756,-0.019351,-0.048087,1.022538
2011-09-26T15:07:22.086985,13380,-1.221387,-0.471443,0.346707,-0.017264,-0.045647,1.023157
2011-09-26T15:07:22.096985,13390,-1.273419,-0.435630,0.408658,-0.015177,-0.043207,1.023776
2011-09-26T15:07:22.106985,13400,-1.325451,-0.399817,0.470608,-0.013090,-0.040766,1.024395
2011-09-26T15:07:22.116985,13410,-1.377483,-0.364004,0.532559,-0.011003,-0.038326,1.025015
