pc_time,ts_ms,gyroX,gyroY,gyroZ,accelX,accelY,accelZ
2011-09-26T14:18:15.074973,0,-0.133864,0.159637,-0.342511,-0.041396,0.028497,0.989433
2011-09-26T14:18:15.084973,10,-0.148754,0.185777,-0.344965,-0.042109,0.028622,0.987258
2011-09-26T14:18:15.094973,20,-0.163645,0.211916,-0.347419,-0.042822,0.028747,0.985082
2011-09-26T14:18:15.104973,30,-0.178536,0.238055,-0.349872,-0.043535,0.028871,0.982907
2011-09-26T14:18:15.114973,40,-0.193426,0.264195,-0.352326,-0.044247,0.028996,0.980731
2011-09-26T14:18:15.124973,50,-0.208317,0.290334,-0.354780,-0.044960,0.029121,0.978556
2011-09-26T14:18:15.134973,60,-0.223207,0.316473,-0.357233,-0.045673,0.029246,0.976380
2011-09-26T14:18:15.144973,70,-0.238098,0.342613,-0.359687,-0.046385,0.029371,0.974205
2011-09-26T14:18:15.154973,80,-0.252989,0.368752,-0.362141,-0.047098,0.029496,0.972030
2011-09-26T14:18:15.164973,90,-0.267879,0.394891,-0.364594,-0.047811,0.029621,0.969854
2011-09-26T14:18:15.174973,100,-0.283011,0.420410,-0.367025,-0.048516,0.029744,0.967701
2011-09-26T14:18:15.184973,110,-0.341688,0.334128,-0.365278,-0.047923,0.029579,0.969538
2011-09-26T14:18:15.194973,120,-0.400364,0.247847,-0.363532,-0.047329,0.029414,0.971374
2011-09-26T14:18:15.204973,130,-0.459041,0.161565,-0.361786,-0.046735,0.029248,0.973211
2011-09-26T14:18:15.214973,140,-0.517717,0.075284,-0.360040,-0.046141,0.029083,0.975048
2011-09-26T14:18:15.224973,150,-0.576394,-0.010998,-0.358293,-0.045547,0.028918,0.976885
2011-09-26T14:18:15.234973,160,-0.635070,-0.097280,-0.356547,-0.044953,0.028753,0.978722
2011-09-26T14:18:15.244973,170,-0.693747,-0.183561,-0.354801,-0.044359,0.028588,0.980559
2011-09-26T14:18:15.254973,180,-0.752423,-0.269843,-0.353054,-0.043765,0.028423,0.982395
2011-09-26T14:18:15.264973,190,-0.811100,-0.356125,-0.351308,-0.043171,0.028258,0.984232
2011-09-26T14:18:15.274973,200,-0.869776,-0.442406,-0.349562,-0.042577,0.028092,0.986069
2011-09-26T14:18:15.284973,210,-0.927593,-0.527441,-0.348095,-0.041987,0.027936,0.987914
2011-09-26T14:18:15.294973,220,-0.892832,-0.478229,-0.376750,-0.041799,0.028746,0.990682
2011-09-26T14:18:15.304973,230,-0.858072,-0.429017,-0.405404,-0.041610,0.029555,0.993449
2011-09-26T14:18:15.314973,240,-0.823311,-0.379805,-0.434058,-0.041422,0.030364,0.996216
2011-09-26T14:18:15.324973,250,-0.788551,-0.330593,-0.462712,-0.041234,0.031174,0.998984
2011-09-26T14:18:15.334973,260,-0.753790,-0.281381,-0.491367,-0.041046,0.031983,1.001751
2011-09-26T14:18:15.344973,270,-0.719030,-0.232169,-0.520021,-0.040858,0.032793,1.004519
2011-09-26T14:18:15.354973,280,-0.684269,-0.182957,-0.548675,-0.040669,0.033602,1.007286
2011-09-26T14:18:15.364973,290,-0.649508,-0.133745,-0.577330,-0.040481,0.034411,1.010053
2011-09-26T14:18:15.374973,300,-0.614748,-0.084533,-0.605984,-0.040293,0.035221,1.012821
2011-09-26T14:18:15.384973,310,-0.580632,-0.035794,-0.634365,-0.040102,0.035987,1.015538
2011-09-26T14:18:15.394973,320,-0.606014,-0.030614,-0.637527,-0.039633,0.032764,1.013684
2011-09-26T14:18:15.404973,330,-0.631397,-0.025435,-0.640690,-0.039163,0.029540,1.011830
2011-09-26T14:18:15.414973,340,-0.656779,-0.020256,-0.643852,-0.038694,0.026317,1.009976
2011-09-26T14:18:15.424973,350,-0.682162,-0.015077,-0.647014,-0.038225,0.023094,1.008122
2011-09-26T14:18:15.434973,360,-0.707544,-0.009897,-0.650176,-0.037755,0.019871,1.006268
2011-09-26T14:18:15.444973,370,-0.732926,-0.004718,-0.653338,-0.037286,0.016648,1.004415
2011-09-26T14:18:15.454973,380,-0.758309,0.000461,-0.656501,-0.036817,0.013424,1.002561
2011-09-26T14:18:15.464973,390,-0.783691,0.005640,-0.659663,-0.036347,0.010201,1.000707
2011-09-26T14:18:15.474973,400,-0.809074,0.010819,-0.662825,-0.035878,0.006978,0.998853
2011-09-26T14:18:15.484973,410,-0.833444,0.016442,-0.665897,-0.035426,0.003790,0.997033
2011-09-26T14:18:15.494973,420,-0.776690,0.057541,-0.661713,-0.036350,0.003416,0.997937
2011-09-26T14:18:15.504973,430,-0.719936,0.098640,-0.657529,-0.037273,0.003042,0.998842
2011-09-26T14:18:15.514973,440,-0.663182,0.139739,-0.653345,-0.038197,0.002668,0.999747
2011-09-26T14:18:15.524973,450,-0.606428,0.180839,-0.649161,-0.039120,0.002294,1.000652
2011-09-26T14:18:15.534973,460,-0.549675,0.221938,-0.644977,-0.040044,0.001920,1.001557
2011-09-26T14:18:15.544973,470,-0.492921,0.263037,-0.640793,-0.040968,0.001546,1.002462
2011-09-26T14:18:15.554973,480,-0.436167,0.304137,-0.636609,-0.041891,0.001172,1.003367
2011-09-26T14:18:15.564973,490,-0.379413,0.345236,-0.632425,-0.042815,0.000798,1.004272
2011-09-26T14:18:15.574973,500,-0.322660,0.386335,-0.628241,-0.043739,0.000424,1.005177
2011-09-26T14:18:15.584973,510,-0.265906,0.427435,-0.624058,-0.044662,0.000050,1.006082
2011-09-26T14:18:15.594973,520,-0.209152,0.468534,-0.619874,-0.045586,-0.000323,1.006987
2011-09-26T14:18:15.604973,530,-0.127869,0.409230,-0.609472,-0.045539,0.000234,1.003869
2011-09-26T14:18:15.614973,540,-0.046584,0.349916,-0.599069,-0.045492,0.000791,1.000751
2011-09-26T14:18:15.624973,550,0.034701,0.290602,-0.588667,-0.045445,0.001348,0.997632
2011-09-26T14:18:15.634973,560,0.115986,0.231289,-0.578264,-0.045398,0.001905,0.994514
2011-09-26T14:18:15.644973,570,0.197271,0.171975,-0.567861,-0.045351,0.002462,0.991396
2011-09-26T14:18:15.654973,580,0.278556,0.112661,-0.557459,-0.045304,0.003019,0.988278
2011-09-26T14:18:15.664973,590,0.359841,0.053347,-0.547056,-0.045258,0.003576,0.985159
2011-09-26T14:18:15.674973,600,0.441126,-0.005966,-0.536654,-0.045211,0.004133,0.982041
2011-09-26T14:18:15.684973,610,0.522411,-0.065280,-0.526251,-0.045164,0.004690,0.978923
2011-09-26T14:18:15.694973,620,0.603042,-0.124511,-0.515860,-0.045112,0.005258,0.975873
2011-09-26T14:18:15.704973,630,0.622083,-0.175933,-0.506521,-0.044578,0.006854,0.979247
2011-09-26T14:18:15.714973,640,0.641124,-0.227355,-0.497181,-0.044044,0.008450,0.982621
2011-09-26T14:18:15.724973,650,0.660164,-0.278777,-0.487842,-0.043510,0.010046,0.985995
2011-09-26T14:18:15.734973,660,0.679205,-0.330199,-0.478503,-0.042976,0.011642,0.989369
2011-09-26T14:18:15.744973,670,0.698246,-0.381621,-0.469164,-0.042441,0.013238,0.992743
2011-09-26T14:18:15.754973,680,0.717287,-0.433043,-0.459825,-0.041907,0.014834,0.996117
2011-09-26T14:18:15.764973,690,0.736327,-0.484465,-0.450486,-0.041373,0.016430,0.999491
2011-09-26T14:18:15.774973,700,0.755368,-0.535887,-0.441147,-0.040839,0.018026,1.002866
2011-09-26T14:18:15.784973,710,0.774409,-0.587309,-0.431807,-0.040305,0.019622,1.006240
2011-09-26T14:18:15.794973,720,0.793146,-0.638242,-0.422588,-0.039770,0.021204,1.009602
2011-09-26T14:18:15.804973,730,0.777232,-0.633337,-0.427020,-0.039082,0.021158,1.011676
2011-09-26T14:18:15.814973,740,0.761319,-0.628432,-0.431451,-0.038394,0.021112,1.013749
2011-09-26T14:18:15.824973,750,0.745405,-0.623527,-0.435883,-0.037706,0.021066,1.015822
2011-09-26T14:18:15.834973,760,0.729491,-0.618622,-0.440314,-0.037018,0.021020,1.017895
2011-09-26T14:18:15.844973,770,0.713578,-0.613717,-0.444746,-0.036330,0.020974,1.019968
2011-09-26T14:18:15.854973,780,0.697664,-0.608812,-0.449178,-0.035642,0.020927,1.022042
2011-09-26T14:18:15.864973,790,0.681750,-0.603907,-0.453609,-0.034954,0.020881,1.024115
2011-09-26T14:18:15.874973,800,0.665837,-0.599002,-0.458041,-0.034266,0.020835,1.026188
2011-09-26T14:18:15.884973,810,0.649923,-0.594097,-0.462472,-0.033578,0.020789,1.028261
2011-09-26T14:18:15.894973,820,0.634009,-0.589192,-0.466904,-0.032890,0.020743,1.030335
2011-09-26T14:18:15.904973,830,0.618000,-0.583665,-0.471446,-0.032214,0.020717,1.032368
2011-09-26T14:18:15.914973,840,0.592674,-0.517764,-0.486734,-0.032665,0.022665,1.030514
2011-09-26T14:18:15.924973,850,0.567348,-0.451864,-0.502021,-0.033116,0.024613,1.028660
2011-09-26T14:18:15.934973,860,0.542022,-0.385964,-0.517308,-0.033567,0.026561,1.026806
2011-09-26T14:18:15.944973,870,0.516696,-0.320064,-0.532596,-0.034019,0.028509,1.024952
2011-09-26T14:18:15.954973,880,0.491370,-0.254164,-0.547883,-0.034470,0.030457,1.023099
2011-09-26T14:18:15.964973,890,0.466044,-0.188264,-0.563170,-0.034921,0.032405,1.021245
2011-09-26T14:18:15.974973,900,0.440718,-0.122363,-0.578457,-0.035372,0.034352,1.019391
2011-09-26T14:18:15.984973,910,0.415392,-0.056463,-0.593745,-0.035823,0.036300,1.017537
2011-09-26T14:18:15.994973,920,0.390066,0.009437,-0.609032,-0.036274,0.038248,1.015683
2011-09-26T14:18:16.004973,930,0.364735,0.075256,-0.624303,-0.036723,0.040176,1.013830
2011-09-26T14:18:16.014973,940,0.338079,0.118770,-0.635193,-0.036659,0.036691,1.012220
2011-09-26T14:18:16.024973,950,0.311422,0.162283,-0.646082,-0.036595,0.033206,1.010610
2011-09-26T14:18:16.034973,960,0.284765,0.205796,-0.656972,-0.036531,0.029721,1.009000
2011-09-26T14:18:16.044973,970,0.258109,0.249310,-0.667862,-0.036467,0.026236,1.007390
2011-09-26T14:18:16.054973,980,0.231452,0.292823,-0.678751,-0.036402,0.022751,1.005780
2011-09-26T14:18:16.064973,990,0.204796,0.336336,-0.689641,-0.036338,0.019266,1.004170
2011-09-26T14:18:16.074973,1000,0.178139,0.379850,-0.700530,-0.036274,0.015781,1.002560
2011-09-26T14:18:16.084973,1010,0.151482,0.423363,-0.711420,-0.036210,0.012295,1.000950
2011-09-26T14:18:16.094973,1020,0.124826,0.466876,-0.722309,-0.036146,0.008810,0.999340
2011-09-26T14:18:16.104973,1030,0.098169,0.510390,-0.733199,-0.036081,0.005325,0.997730
2011-09-26T14:18:16.114973,1040,0.114510,0.512126,-0.749957,-0.036841,0.007383,0.997280
2011-09-26T14:18:16.124973,1050,0.131386,0.513342,-0.766789,-0.037611,0.009510,0.996843
2011-09-26T14:18:16.134973,1060,0.148262,0.514558,-0.783620,-0.038382,0.011637,0.996407
2011-09-26T14:18:16.144973,1070,0.165138,0.515774,-0.800452,-0.039152,0.013764,0.995971
2011-09-26T14:18:16.154973,1080,0.182014,0.516990,-0.817283,-0.039922,0.015892,0.995535
2011-09-26T14:18:16.164973,1090,0.198890,0.518205,-0.834115,-0.040692,0.018019,0.995099
2011-09-26T14:18:16.174973,1100,0.215766,0.519421,-0.850946,-0.041462,0.020146,0.994663
2011-09-26T14:18:16.184973,1110,0.232642,0.520637,-0.867777,-0.042232,0.022273,0.994226
2011-09-26T14:18:16.194973,1120,0.249518,0.521853,-0.884609,-0.043002,0.024400,0.993790
2011-09-26T14:18:16.204973,1130,0.266394,0.523069,-0.901440,-0.043772,0.026527,0.993354
2011-09-26T14:18:16.214973,1140,0.282715,0.523549,-0.918083,-0.044533,0.028610,0.992917
2011-09-26T14:18:16.224973,1150,0.232902,0.436391,-0.912263,-0.044119,0.025472,0.992372
2011-09-26T14:18:16.234973,1160,0.183088,0.349233,-0.906442,-0.043706,0.022333,0.991827
2011-09-26T14:18:16.244973,1170,0.133275,0.262074,-0.900622,-0.043293,0.019194,0.991282
2011-09-26T14:18:16.254973,1180,0.083462,0.174916,-0.894801,-0.042880,0.016055,0.990737
2011-09-26T14:18:16.264973,1190,0.033648,0.087758,-0.888981,-0.042466,0.012917,0.990191
2011-09-26T14:18:16.274973,1200,-0.016165,0.000599,-0.883160,-0.042053,0.009778,0.989646
2011-09-26T14:18:16.284973,1210,-0.065978,-0.086559,-0.877340,-0.041640,0.006639,0.989101
2011-09-26T14:18:16.294973,1220,-0.115792,-0.173717,-0.871519,-0.041226,0.003501,0.988556
2011-09-26T14:18:16.304973,1230,-0.165605,-0.260875,-0.865699,-0.040813,0.000362,0.988011
2011-09-26T14:18:16.314973,1240,-0.214560,-0.347457,-0.859987,-0.040398,-0.002743,0.987483
2011-09-26T14:18:16.324973,1250,-0.150255,-0.357979,-0.868672,-0.039774,-0.001334,0.989273
2011-09-26T14:18:16.334973,1260,-0.085950,-0.368501,-0.877357,-0.039149,0.000074,0.991063
2011-09-26T14:18:16.344973,1270,-0.021644,-0.379023,-0.886042,-0.038525,0.001483,0.992853
2011-09-26T14:18:16.354973,1280,0.042661,-0.389545,-0.894726,-0.037900,0.002891,0.994643
2011-09-26T14:18:16.364973,1290,0.106966,-0.400067,-0.903411,-0.037276,0.004300,0.996433
2011-09-26T14:18:16.374973,1300,0.171272,-0.410589,-0.912096,-0.036651,0.005708,0.998223
2011-09-26T14:18:16.384973,1310,0.235577,-0.421110,-0.920781,-0.036026,0.007117,1.000013
2011-09-26T14:18:16.394973,1320,0.299882,-0.431632,-0.929465,-0.035402,0.008525,1.001803
2011-09-26T14:18:16.404973,1330,0.364188,-0.442154,-0.938150,-0.034777,0.009933,1.003593
2011-09-26T14:18:16.414973,1340,0.427945,-0.452438,-0.946838,-0.034157,0.011333,1.005370
2011-09-26T14:18:16.424973,1350,0.378246,-0.413470,-0.956238,-0.034344,0.010864,1.004507
2011-09-26T14:18:16.434973,1360,0.328548,-0.374501,-0.965637,-0.034532,0.010395,1.003644
2011-09-26T14:18:16.444973,1370,0.278849,-0.335533,-0.975037,-0.034720,0.009927,1.002781
2011-09-26T14:18:16.454973,1380,0.229150,-0.296564,-0.984436,-0.034908,0.009458,1.001919
2011-09-26T14:18:16.464973,1390,0.179452,-0.257596,-0.993835,-0.035096,0.008989,1.001056
2011-09-26T14:18:16.474973,1400,0.129753,-0.218627,-1.003235,-0.035284,0.008521,1.000193
2011-09-26T14:18:16.484973,1410,0.080055,-0.179659,-1.012634,-0.035472,0.008052,0.999330
2011-09-26T14:18:16.494973,1420,0.030356,-0.140690,-1.022034,-0.035659,0.007583,0.998467
2011-09-26T14:18:16.504973,1430,-0.019343,-0.101722,-1.031433,-0.035847,0.007115,0.997604
2011-09-26T14:18:16.514973,1440,-0.069041,-0.062753,-1.040833,-0.036035,0.006646,0.996741
2011-09-26T14:18:16.524973,1450,-0.118259,-0.024039,-1.050135,-0.036223,0.006185,0.995886
2011-09-26T14:18:16.534973,1460,-0.091912,-0.025300,-1.044257,-0.036474,0.006875,0.996208
2011-09-26T14:18:16.544973,1470,-0.065565,-0.026561,-1.038378,-0.036724,0.007566,0.996531
2011-09-26T14:18:16.554973,1480,-0.039218,-0.027822,-1.032500,-0.036975,0.008256,0.996854
2011-09-26T14:18:16.564973,1490,-0.012870,-0.029083,-1.026621,-0.037225,0.008947,0.997176
2011-09-26T14:18:16.574973,1500,0.013477,-0.030344,-1.020742,-0.037476,0.009637,0.997499
2011-09-26T14:18:16.584973,1510,0.039824,-0.031605,-1.014864,-0.037726,0.010328,0.997821
2011-09-26T14:18:16.594973,1520,0.066171,-0.032866,-1.008985,-0.037976,0.011018,0.998144
2011-09-26T14:18:16.604973,1530,0.092518,-0.034127,-1.003107,-0.038227,0.011709,0.998466
2011-09-26T14:18:16.614973,1540,0.118865,-0.035388,-0.997228,-0.038477,0.012399,0.998789
2011-09-26T14:18:16.624973,1550,0.145184,-0.036638,-0.991353,-0.038727,0.013089,0.999111
2011-09-26T14:18:16.634973,1560,0.116481,-0.016560,-0.992392,-0.038003,0.012809,0.999429
2011-09-26T14:18:16.644973,1570,0.087778,0.003518,-0.993431,-0.037279,0.012528,0.999747
2011-09-26T14:18:16.654973,1580,0.059074,0.023596,-0.994471,-0.036555,0.012248,1.000065
2011-09-26T14:18:16.664973,1590,0.030371,0.043674,-0.995510,-0.035831,0.011967,1.000384
2011-09-26T14:18:16.674973,1600,0.001667,0.063752,-0.996549,-0.035106,0.011686,1.000702
2011-09-26T14:18:16.684973,1610,-0.027036,0.083830,-0.997588,-0.034382,0.011406,1.001020
2011-09-26T14:18:16.694973,1620,-0.055739,0.103908,-0.998628,-0.033658,0.011125,1.001338
2011-09-26T14:18:16.704973,1630,-0.084443,0.123986,-0.999667,-0.032934,0.010845,1.001656
2011-09-26T14:18:16.714973,1640,-0.113146,0.144064,-1.000706,-0.032210,0.010564,1.001974
2011-09-26T14:18:16.724973,1650,-0.141850,0.164142,-1.001745,-0.031486,0.010283,1.002292
2011-09-26T14:18:16.734973,1660,-0.100269,0.189976,-0.998057,-0.032722,0.011110,1.001549
2011-09-26T14:18:16.744973,1670,-0.058596,0.215818,-0.994362,-0.033962,0.011938,1.000805
2011-09-26T14:18:16.754973,1680,-0.016924,0.241660,-0.990667,-0.035201,0.012766,1.000061
2011-09-26T14:18:16.764973,1690,0.024748,0.267502,-0.986973,-0.036440,0.013594,0.999317
2011-09-26T14:18:16.774973,1700,0.066420,0.293344,-0.983278,-0.037679,0.014421,0.998572
2011-09-26T14:18:16.784973,1710,0.108092,0.319186,-0.979583,-0.038919,0.015249,0.997828
2011-09-26T14:18:16.794973,1720,0.149764,0.345028,-0.975888,-0.040158,0.016077,0.997084
2011-09-26T14:18:16.804973,1730,0.191437,0.370870,-0.972193,-0.041397,0.016905,0.996340
2011-09-26T14:18:16.814973,1740,0.233109,0.396712,-0.968499,-0.042636,0.017733,0.995595
2011-09-26T14:18:16.824973,1750,0.274781,0.422553,-0.964804,-0.043876,0.018561,0.994851
2011-09-26T14:18:16.834973,1760,0.316361,0.448085,-0.961075,-0.045110,0.019380,0.994105
2011-09-26T14:18:16.844973,1770,0.322751,0.355016,-0.944384,-0.044295,0.016726,0.992656
2011-09-26T14:18:16.854973,1780,0.329141,0.261948,-0.927693,-0.043481,0.014072,0.991207
2011-09-26T14:18:16.864973,1790,0.335531,0.168880,-0.911002,-0.042667,0.011419,0.989758
2011-09-26T14:18:16.874973,1800,0.341921,0.075812,-0.894311,-0.041853,0.008765,0.988309
2011-09-26T14:18:16.884973,1810,0.348310,-0.017257,-0.877621,-0.041039,0.006111,0.986860
2011-09-26T14:18:16.894973,1820,0.354700,-0.110325,-0.860930,-0.040224,0.003458,0.985411
2011-09-26T14:18:16.904973,1830,0.361090,-0.203393,-0.844239,-0.039410,0.000804,0.983962
2011-09-26T14:18:16.914973,1840,0.367480,-0.296462,-0.827548,-0.038596,-0.001850,0.982513
2011-09-26T14:18:16.924973,1850,0.373870,-0.389530,-0.810857,-0.037782,-0.004503,0.981064
2011-09-26T14:18:16.934973,1860,0.380258,-0.482448,-0.794169,-0.036972,-0.007142,0.979627
2011-09-26T14:18:16.944973,1870,0.385861,-0.517996,-0.778774,-0.038036,-0.004152,0.982784
2011-09-26T14:18:16.954973,1880,0.391464,-0.553544,-0.763378,-0.039099,-0.001161,0.985941
2011-09-26T14:18:16.964973,1890,0.397067,-0.589093,-0.747982,-0.040162,0.001829,0.989098
2011-09-26T14:18:16.974973,1900,0.402670,-0.624641,-0.732587,-0.041226,0.004819,0.992255
2011-09-26T14:18:16.984973,1910,0.408273,-0.660189,-0.717191,-0.042289,0.007810,0.995411
2011-09-26T14:18:16.994973,1920,0.413876,-0.695737,-0.701795,-0.043352,0.010800,0.998568
2011-09-26T14:18:17.004973,1930,0.419479,-0.731286,-0.686400,-0.044415,0.013791,1.001725
2011-09-26T14:18:17.014973,1940,0.425082,-0.766834,-0.671004,-0.045479,0.016781,1.004882
2011-09-26T14:18:17.024973,1950,0.430685,-0.802382,-0.655608,-0.046542,0.019772,1.008039
2011-09-26T14:18:17.034973,1960,0.436239,-0.837709,-0.640206,-0.047595,0.022745,1.011186
2011-09-26T14:18:17.044973,1970,0.429585,-0.817911,-0.623141,-0.046177,0.021453,1.012063
2011-09-26T14:18:17.054973,1980,0.422931,-0.798112,-0.606076,-0.044759,0.020162,1.012940
2011-09-26T14:18:17.064973,1990,0.416276,-0.778314,-0.589012,-0.043340,0.018870,1.013817
2011-09-26T14:18:17.074973,2000,0.409622,-0.758515,-0.571947,-0.041922,0.017579,1.014693
2011-09-26T14:18:17.084973,2010,0.402968,-0.738717,-0.554882,-0.040504,0.016287,1.015570
2011-09-26T14:18:17.094973,2020,0.396314,-0.718919,-0.537817,-0.039085,0.014996,1.016447
2011-09-26T14:18:17.104973,2030,0.389660,-0.699120,-0.520752,-0.037667,0.013704,1.017324
2011-09-26T14:18:17.114973,2040,0.383006,-0.679322,-0.503688,-0.036248,0.012412,1.018201
2011-09-26T14:18:17.124973,2050,0.376352,-0.659523,-0.486623,-0.034830,0.011121,1.019077
2011-09-26T14:18:17.134973,2060,0.369698,-0.639725,-0.469558,-0.033412,0.009829,1.019954
2011-09-26T14:18:17.144973,2070,0.363044,-0.619927,-0.452493,-0.031993,0.008538,1.020831
2011-09-26T14:18:17.154973,2080,0.382686,-0.560997,-0.426120,-0.032453,0.010854,1.021330
2011-09-26T14:18:17.164973,2090,0.402394,-0.501969,-0.399724,-0.032918,0.013178,1.021828
2011-09-26T14:18:17.174973,2100,0.422102,-0.442942,-0.373327,-0.033383,0.015503,1.022326
2011-09-26T14:18:17.184973,2110,0.441810,-0.383914,-0.346931,-0.033848,0.017828,1.022823
2011-09-26T14:18:17.194973,2120,0.461518,-0.324887,-0.320534,-0.034312,0.020153,1.023321
2011-09-26T14:18:17.204973,2130,0.481226,-0.265859,-0.294138,-0.034777,0.022478,1.023819
2011-09-26T14:18:17.214973,2140,0.500934,-0.206831,-0.267741,-0.035242,0.024803,1.024317
2011-09-26T14:18:17.224973,2150,0.520642,-0.147804,-0.241345,-0.035707,0.027128,1.024815
2011-09-26T14:18:17.234973,2160,0.540349,-0.088776,-0.214948,-0.036171,0.029452,1.025313
2011-09-26T14:18:17.244973,2170,0.560057,-0.029749,-0.188552,-0.036636,0.031777,1.025811
2011-09-26T14:18:17.254973,2180,0.561292,0.043888,-0.164690,-0.036394,0.031784,1.023575
2011-09-26T14:18:17.264973,2190,0.562519,0.117531,-0.140829,-0.036151,0.031790,1.021339
2011-09-26T14:18:17.274973,2200,0.563746,0.191173,-0.116967,-0.035909,0.031796,1.019102
2011-09-26T14:18:17.284973,2210,0.564973,0.264816,-0.093106,-0.035666,0.031802,1.016866
2011-09-26T14:18:17.294973,2220,0.566200,0.338458,-0.069245,-0.035424,0.031808,1.014629
2011-09-26T14:18:17.304973,2230,0.567427,0.412101,-0.045384,-0.035181,0.031814,1.012393
2011-09-26T14:18:17.314973,2240,0.568654,0.485743,-0.021523,-0.034939,0.031820,1.010156
2011-09-26T14:18:17.324973,2250,0.569881,0.559386,0.002338,-0.034696,0.031826,1.007920
2011-09-26T14:18:17.334973,2260,0.571108,0.633028,0.026199,-0.034454,0.031832,1.005683
2011-09-26T14:18:17.344973,2270,0.572497,0.706555,0.050015,-0.034206,0.031841,1.003447
2011-09-26T14:18:17.354973,2280,0.629520,0.740425,0.058358,-0.032152,0.032855,1.001353
2011-09-26T14:18:17.364973,2290,0.686542,0.774295,0.066701,-0.030098,0.033869,0.999260
2011-09-26T14:18:17.374973,2300,0.743564,0.808164,0.075044,-0.028045,0.034882,0.997166
2011-09-26T14:18:17.384973,2310,0.800587,0.842034,0.083387,-0.025991,0.035896,0.995072
2011-09-26T14:18:17.394973,2320,0.857609,0.875904,0.091730,-0.023937,0.036910,0.992979
2011-09-26T14:18:17.404973,2330,0.914632,0.909774,0.100073,-0.021884,0.037924,0.990885
2011-09-26T14:18:17.414973,2340,0.971654,0.943643,0.108415,-0.019830,0.038937,0.988791
2011-09-26T14:18:17.424973,2350,1.028676,0.977513,0.116758,-0.017776,0.039951,0.986697
2011-09-26T14:18:17.434973,2360,1.085699,1.011383,0.125101,-0.015722,0.040965,0.984604
2011-09-26T14:18:17.444973,2370,1.142721,1.045253,0.133444,-0.013669,0.041979,0.982510
2011-09-26T14:18:17.454973,2380,1.199744,1.079122,0.141787,-0.011615,0.042993,0.980416
2011-09-26T14:18:17.464973,2390,1.245729,1.204441,0.143350,-0.014138,0.043158,0.982676
2011-09-26T14:18:17.474973,2400,1.291703,1.329857,0.144906,-0.016666,0.043323,0.984940
2011-09-26T14:18:17.484973,2410,1.337677,1.455274,0.146463,-0.019194,0.043488,0.987204
2011-09-26T14:18:17.494973,2420,1.383651,1.580691,0.148019,-0.021722,0.043653,0.989468
2011-09-26T14:18:17.504973,2430,1.429625,1.706107,0.149575,-0.024250,0.043818,0.991733
2011-09-26T14:18:17.514973,2440,1.475599,1.831524,0.151131,-0.026778,0.043982,0.993997
2011-09-26T14:18:17.524973,2450,1.521573,1.956941,0.152687,-0.029306,0.044147,0.996261
2011-09-26T14:18:17.534973,2460,1.567547,2.082357,0.154243,-0.031834,0.044312,0.998525
2011-09-26T14:18:17.544973,2470,1.613521,2.207774,0.155799,-0.034362,0.044477,1.000789
2011-09-26T14:18:17.554973,2480,1.659495,2.333191,0.157355,-0.036890,0.044642,1.003054
2011-09-26T14:18:17.564973,2490,1.479204,2.217505,0.159625,-0.040169,0.044196,0.986523
2011-09-26T14:18:17.574973,2500,1.298759,2.101653,0.161896,-0.043449,0.043749,0.969980
2011-09-26T14:18:17.584973,2510,1.118314,1.985802,0.164167,-0.046729,0.043303,0.953437
2011-09-26T14:18:17.594973,2520,0.937869,1.869951,0.166437,-0.050008,0.042856,0.936894
2011-09-26T14:18:17.604973,2530,0.757423,1.754100,0.168708,-0.053288,0.042410,0.920351
2011-09-26T14:18:17.614973,2540,0.576978,1.638249,0.170979,-0.056567,0.041963,0.903807
2011-09-26T14:18:17.624973,2550,0.396533,1.522398,0.173249,-0.059847,0.041517,0.887264
2011-09-26T14:18:17.634973,2560,0.216088,1.406547,0.175520,-0.063126,0.041071,0.870721
2011-09-26T14:18:17.644973,2570,0.035642,1.290696,0.177791,-0.066406,0.040624,0.854178
2011-09-26T14:18:17.654973,2580,-0.144803,1.174845,0.180061,-0.069686,0.040178,0.837635
2011-09-26T14:18:17.664973,2590,0.013740,0.830772,0.187854,-0.067402,0.041909,0.853711
2011-09-26T14:18:17.674973,2600,0.172648,0.486454,0.195652,-0.065112,0.043643,0.869823
2011-09-26T14:18:17.684973,2610,0.331556,0.142136,0.203450,-0.062823,0.045376,0.885935
2011-09-26T14:18:17.694973,2620,0.490464,-0.202182,0.211248,-0.060533,0.047110,0.902046
2011-09-26T14:18:17.704973,2630,0.649372,-0.546500,0.219046,-0.058244,0.048843,0.918158
2011-09-26T14:18:17.714973,2640,0.808280,-0.890818,0.226845,-0.055954,0.050577,0.934269
2011-09-26T14:18:17.724973,2650,0.967188,-1.235136,0.234643,-0.053665,0.052311,0.950381
2011-09-26T14:18:17.734973,2660,1.126096,-1.579454,0.242441,-0.051375,0.054044,0.966493
2011-09-26T14:18:17.744973,2670,1.285004,-1.923772,0.250239,-0.049086,0.055778,0.982604
2011-09-26T14:18:17.754973,2680,1.443912,-2.268090,0.258038,-0.046796,0.057511,0.998716
2011-09-26T14:18:17.764973,2690,1.601939,-2.611628,0.265850,-0.044509,0.059244,1.014803
2011-09-26T14:18:17.774973,2700,1.396602,-2.633087,0.279349,-0.042983,0.060607,1.020740
2011-09-26T14:18:17.784973,2710,1.191266,-2.654547,0.292849,-0.041457,0.061969,1.026677
2011-09-26T14:18:17.794973,2720,0.985929,-2.676007,0.306348,-0.039932,0.063332,1.032613
2011-09-26T14:18:17.804973,2730,0.780592,-2.697466,0.319848,-0.038406,0.064694,1.038550
2011-09-26T14:18:17.814973,2740,0.575255,-2.718926,0.333348,-0.036880,0.066057,1.044487
2011-09-26T14:18:17.824973,2750,0.369919,-2.740386,0.346847,-0.035355,0.067419,1.050424
2011-09-26T14:18:17.834973,2760,0.164582,-2.761845,0.360347,-0.033829,0.068782,1.056361
2011-09-26T14:18:17.844973,2770,-0.040755,-2.783305,0.373847,-0.032303,0.070145,1.062297
2011-09-26T14:18:17.854973,2780,-0.246092,-2.804765,0.387346,-0.030778,0.071507,1.068234
2011-09-26T14:18:17.864973,2790,-0.451429,-2.826224,0.400846,-0.029252,0.072870,1.074171
2011-09-26T14:18:17.874973,2800,-0.412528,-2.725943,0.380821,-0.029183,0.070267,1.074274
2011-09-26T14:18:17.884973,2810,-0.372530,-2.625116,0.360647,-0.029121,0.067645,1.074350
2011-09-26T14:18:17.894973,2820,-0.332533,-2.524289,0.340472,-0.029059,0.065024,1.074427
2011-09-26T14:18:17.904973,2830,-0.292536,-2.423461,0.320297,-0.028996,0.062403,1.074503
2011-09-26T14:18:17.914973,2840,-0.252539,-2.322634,0.300122,-0.028934,0.059782,1.074580
2011-09-26T14:18:17.924973,2850,-0.212542,-2.221807,0.279947,-0.028872,0.057161,1.074656
2011-09-26T14:18:17.934973,2860,-0.172545,-2.120979,0.259772,-0.028809,0.054540,1.074733
2011-09-26T14:18:17.944973,2870,-0.132547,-2.020152,0.239597,-0.028747,0.051919,1.074809
2011-09-26T14:18:17.954973,2880,-0.092550,-1.919325,0.219422,-0.028685,0.049298,1.074886
2011-09-26T14:18:17.964973,2890,-0.052553,-1.818498,0.199247,-0.028622,0.046677,1.074962
2011-09-26T14:18:17.974973,2900,-0.012556,-1.717670,0.179072,-0.028560,0.044056,1.075039
2011-09-26T14:18:17.984973,2910,-0.084635,-1.576403,0.188692,-0.027532,0.046817,1.073124
2011-09-26T14:18:17.994973,2920,-0.156882,-1.435076,0.198357,-0.026502,0.049586,1.071207
2011-09-26T14:18:18.004973,2930,-0.229128,-1.293749,0.208021,-0.025472,0.052355,1.069290
2011-09-26T14:18:18.014973,2940,-0.301374,-1.152422,0.217685,-0.024442,0.055123,1.067372
2011-09-26T14:18:18.024973,2950,-0.373621,-1.011095,0.227350,-0.023412,0.057892,1.065455
2011-09-26T14:18:18.034973,2960,-0.445867,-0.869768,0.237014,-0.022382,0.060661,1.063538
2011-09-26T14:18:18.044973,2970,-0.518113,-0.728441,0.246678,-0.021352,0.063430,1.061621
2011-09-26T14:18:18.054973,2980,-0.590360,-0.587114,0.256343,-0.020322,0.066199,1.059704
2011-09-26T14:18:18.064973,2990,-0.662606,-0.445787,0.266007,-0.019292,0.068968,1.057786
2011-09-26T14:18:18.074973,3000,-0.734853,-0.304460,0.275672,-0.018262,0.071736,1.055869
2011-09-26T14:18:18.084973,3010,-0.698277,-0.160894,0.271813,-0.019301,0.068250,1.050746
2011-09-26T14:18:18.094973,3020,-0.659311,-0.017278,0.267658,-0.020386,0.064626,1.045552
2011-09-26T14:18:18.104973,3030,-0.620346,0.126337,0.263503,-0.021470,0.061002,1.040358
2011-09-26T14:18:18.114973,3040,-0.581380,0.269953,0.259348,-0.022554,0.057379,1.035164
2011-09-26T14:18:18.124973,3050,-0.542415,0.413569,0.255193,-0.023639,0.053755,1.029971
2011-09-26T14:18:18.134973,3060,-0.503449,0.557184,0.251038,-0.024723,0.050131,1.024777
2011-09-26T14:18:18.144973,3070,-0.464484,0.700800,0.246883,-0.025808,0.046507,1.019583
2011-09-26T14:18:18.154973,3080,-0.425518,0.844415,0.242728,-0.026892,0.042883,1.014389
2011-09-26T14:18:18.164973,3090,-0.386553,0.988031,0.238573,-0.027977,0.039260,1.009196
2011-09-26T14:18:18.174973,3100,-0.347587,1.131646,0.234418,-0.029061,0.035636,1.004002
2011-09-26T14:18:18.184973,3110,-0.240700,1.208835,0.254710,-0.029629,0.036270,1.000619
2011-09-26T14:18:18.194973,3120,-0.133348,1.285569,0.275168,-0.030193,0.036932,0.997248
2011-09-26T14:18:18.204973,3130,-0.025997,1.362304,0.295627,-0.030758,0.037595,0.993877
2011-09-26T14:18:18.214973,3140,0.081355,1.439038,0.316085,-0.031322,0.038258,0.990506
2011-09-26T14:18:18.224973,3150,0.188706,1.515773,0.336544,-0.031887,0.038920,0.987135
2011-09-26T14:18:18.234973,3160,0.296058,1.592507,0.357003,-0.032451,0.039583,0.983764
2011-09-26T14:18:18.244973,3170,0.403410,1.669242,0.377461,-0.033015,0.040246,0.980393
2011-09-26T14:18:18.254973,3180,0.510761,1.745976,0.397920,-0.033580,0.040908,0.977022
2011-09-26T14:18:18.264973,3190,0.618113,1.822711,0.418378,-0.034144,0.041571,0.973652
2011-09-26T14:18:18.274973,3200,0.725464,1.899445,0.438837,-0.034708,0.042234,0.970281
2011-09-26T14:18:18.284973,3210,0.734734,1.776372,0.461581,-0.035823,0.043681,0.967862
2011-09-26T14:18:18.294973,3220,0.743908,1.653102,0.484328,-0.036938,0.045129,0.965445
2011-09-26T14:18:18.304973,3230,0.753082,1.529833,0.507074,-0.038053,0.046578,0.963028
2011-09-26T14:18:18.314973,3240,0.762255,1.406564,0.529820,-0.039168,0.048026,0.960611
2011-09-26T14:18:18.324973,3250,0.771429,1.283295,0.552567,-0.040283,0.049474,0.958194
2011-09-26T14:18:18.334973,3260,0.780603,1.160026,0.575313,-0.041398,0.050922,0.955776
2011-09-26T14:18:18.344973,3270,0.789777,1.036757,0.598060,-0.042513,0.052370,0.953359
2011-09-26T14:18:18.354973,3280,0.798950,0.913488,0.620806,-0.043628,0.053818,0.950942
2011-09-26T14:18:18.364973,3290,0.808124,0.790219,0.643552,-0.044743,0.055266,0.948525
2011-09-26T14:18:18.374973,3300,0.817298,0.666949,0.666299,-0.045858,0.056714,0.946107
2011-09-26T14:18:18.384973,3310,0.826555,0.543756,0.689039,-0.046969,0.058161,0.943700
2011-09-26T14:18:18.394973,3320,0.899156,0.477741,0.707091,-0.045678,0.058210,0.949003
2011-09-26T14:18:18.404973,3330,0.971757,0.411725,0.725142,-0.044386,0.058258,0.954305
2011-09-26T14:18:18.414973,3340,1.044357,0.345710,0.743194,-0.043094,0.058307,0.959608
2011-09-26T14:18:18.424973,3350,1.116958,0.279695,0.761245,-0.041802,0.058356,0.964911
2011-09-26T14:18:18.434973,3360,1.189558,0.213679,0.779297,-0.040510,0.058405,0.970213
2011-09-26T14:18:18.444973,3370,1.262159,0.147664,0.797348,-0.039218,0.058453,0.975516
2011-09-26T14:18:18.454973,3380,1.334759,0.081649,0.815400,-0.037926,0.058502,0.980818
2011-09-26T14:18:18.464973,3390,1.407360,0.015634,0.833452,-0.036635,0.058551,0.986121
2011-09-26T14:18:18.474973,3400,1.479960,-0.050382,0.851503,-0.035343,0.058600,0.991423
2011-09-26T14:18:18.484973,3410,1.552561,-0.116397,0.869555,-0.034051,0.058649,0.996726
2011-09-26T14:18:18.494973,3420,1.583564,-0.047718,0.875697,-0.034902,0.059630,0.997472
2011-09-26T14:18:18.504973,3430,1.614518,0.021121,0.881826,-0.035755,0.060612,0.998213
2011-09-26T14:18:18.514973,3440,1.645472,0.089961,0.887954,-0.036609,0.061594,0.998954
2011-09-26T14:18:18.524973,3450,1.676426,0.158801,0.894083,-0.037462,0.062577,0.999695
2011-09-26T14:18:18.534973,3460,1.707380,0.227641,0.900211,-0.038315,0.063559,1.000436
2011-09-26T14:18:18.544973,3470,1.738333,0.296481,0.906340,-0.039169,0.064542,1.001176
2011-09-26T14:18:18.554973,3480,1.769287,0.365321,0.912468,-0.040022,0.065524,1.001917
2011-09-26T14:18:18.564973,3490,1.800241,0.434160,0.918597,-0.040876,0.066506,1.002658
2011-09-26T14:18:18.574973,3500,1.831195,0.503000,0.924725,-0.041729,0.067489,1.003399
2011-09-26T14:18:18.584973,3510,1.862149,0.571840,0.930854,-0.042583,0.068471,1.004140
2011-09-26T14:18:18.594973,3520,1.915077,0.476306,0.940671,-0.042624,0.067850,1.001968
2011-09-26T14:18:18.604973,3530,1.968243,0.379000,0.950529,-0.042657,0.067212,0.999765
2011-09-26T14:18:18.614973,3540,2.021408,0.281694,0.960386,-0.042690,0.066574,0.997562
2011-09-26T14:18:18.624973,3550,2.074574,0.184388,0.970243,-0.042723,0.065935,0.995359
2011-09-26T14:18:18.634973,3560,2.127739,0.087081,0.980101,-0.042755,0.065297,0.993156
2011-09-26T14:18:18.644973,3570,2.180905,-0.010225,0.989958,-0.042788,0.064659,0.990953
2011-09-26T14:18:18.654973,3580,2.234070,-0.107531,0.999815,-0.042821,0.064021,0.988749
2011-09-26T14:18:18.664973,3590,2.287236,-0.204837,1.009672,-0.042854,0.063382,0.986546
2011-09-26T14:18:18.674973,3600,2.340401,-0.302144,1.019530,-0.042887,0.062744,0.984343
2011-09-26T14:18:18.684973,3610,2.393567,-0.399450,1.029387,-0.042920,0.062106,0.982140
2011-09-26T14:18:18.694973,3620,2.446732,-0.496756,1.039244,-0.042952,0.061468,0.979937
2011-09-26T14:18:18.704973,3630,2.330638,-0.612665,1.090353,-0.042829,0.065100,0.982293
2011-09-26T14:18:18.714973,3640,2.213338,-0.728706,1.141755,-0.042704,0.068763,0.984682
2011-09-26T14:18:18.724973,3650,2.096037,-0.844747,1.193158,-0.042579,0.072426,0.987071
2011-09-26T14:18:18.734973,3660,1.978736,-0.960788,1.244561,-0.042454,0.076089,0.989459
2011-09-26T14:18:18.744973,3670,1.861435,-1.076829,1.295963,-0.042329,0.079751,0.991848
2011-09-26T14:18:18.754973,3680,1.744134,-1.192871,1.347366,-0.042204,0.083414,0.994237
2011-09-26T14:18:18.764973,3690,1.626833,-1.308912,1.398769,-0.042080,0.087077,0.996625
2011-09-26T14:18:18.774973,3700,1.509532,-1.424953,1.450171,-0.041955,0.090740,0.999014
2011-09-26T14:18:18.784973,3710,1.392231,-1.540994,1.501574,-0.041830,0.094403,1.001403
2011-09-26T14:18:18.794973,3720,1.274930,-1.657035,1.552977,-0.041705,0.098066,1.003792
2011-09-26T14:18:18.804973,3730,1.088321,-1.596633,1.575389,-0.040911,0.100875,1.007476
2011-09-26T14:18:18.814973,3740,0.901489,-1.535665,1.597708,-0.040115,0.103681,1.011164
2011-09-26T14:18:18.824973,3750,0.714657,-1.474697,1.620028,-0.039319,0.106488,1.014853
2011-09-26T14:18:18.834973,3760,0.527825,-1.413729,1.642347,-0.038523,0.109295,1.018541
2011-09-26T14:18:18.844973,3770,0.340993,-1.352761,1.664666,-0.037727,0.112101,1.022229
2011-09-26T14:18:18.854973,3780,0.154161,-1.291793,1.686985,-0.036931,0.114908,1.025918
2011-09-26T14:18:18.864973,3790,-0.032671,-1.230825,1.709305,-0.036135,0.117714,1.029606
2011-09-26T14:18:18.874973,3800,-0.219503,-1.169857,1.731624,-0.035339,0.120521,1.033294
2011-09-26T14:18:18.884973,3810,-0.406335,-1.108889,1.753943,-0.034543,0.123328,1.036983
2011-09-26T14:18:18.894973,3820,-0.593168,-1.047921,1.776262,-0.033747,0.126134,1.040671
2011-09-26T14:18:18.904973,3830,-0.772258,-0.983945,1.736453,-0.033898,0.126471,1.038779
2011-09-26T14:18:18.914973,3840,-0.951294,-0.919947,1.696198,-0.034057,0.126790,1.036847
2011-09-26T14:18:18.924973,3850,-1.130329,-0.855949,1.655944,-0.034215,0.127109,1.034915
2011-09-26T14:18:18.934973,3860,-1.309365,-0.791951,1.615690,-0.034374,0.127429,1.032983
2011-09-26T14:18:18.944973,3870,-1.488401,-0.727953,1.575436,-0.034532,0.127748,1.031051
2011-09-26T14:18:18.954973,3880,-1.667436,-0.663955,1.535181,-0.034691,0.128067,1.029118
2011-09-26T14:18:18.964973,3890,-1.846472,-0.599957,1.494927,-0.034849,0.128386,1.027186
2011-09-26T14:18:18.974973,3900,-2.025507,-0.535959,1.454673,-0.035008,0.128705,1.025254
2011-09-26T14:18:18.984973,3910,-2.204543,-0.471961,1.414418,-0.035166,0.129024,1.023322
2011-09-26T14:18:18.994973,3920,-2.383578,-0.407963,1.374164,-0.035325,0.129344,1.021390
2011-09-26T14:18:19.004973,3930,-2.562614,-0.343965,1.333910,-0.035484,0.129663,1.019458
2011-09-26T14:18:19.014973,3940,-2.638753,-0.380237,1.283519,-0.036686,0.124847,1.019190
2011-09-26T14:18:19.024973,3950,-2.714512,-0.416880,1.233091,-0.037891,0.120012,1.018929
2011-09-26T14:18:19.034973,3960,-2.790270,-0.453523,1.182662,-0.039097,0.115177,1.018668
2011-09-26T14:18:19.044973,3970,-2.866029,-0.490166,1.132234,-0.040303,0.110342,1.018406
2011-09-26T14:18:19.054973,3980,-2.941787,-0.526809,1.081805,-0.041509,0.105507,1.018145
2011-09-26T14:18:19.064973,3990,-3.017546,-0.563452,1.031377,-0.042715,0.100671,1.017884
2011-09-26T14:18:19.074973,4000,-3.093304,-0.600095,0.980949,-0.043921,0.095836,1.017622
2011-09-26T14:18:19.084973,4010,-3.169063,-0.636738,0.930520,-0.045127,0.091001,1.017361
2011-09-26T14:18:19.094973,4020,-3.244821,-0.673381,0.880092,-0.046333,0.086166,1.017100
2011-09-26T14:18:19.104973,4030,-3.320580,-0.710024,0.829664,-0.047539,0.081331,1.016838
2011-09-26T14:18:19.114973,4040,-3.259354,-0.614218,0.809157,-0.046930,0.077501,1.014695
2011-09-26T14:18:19.124973,4050,-3.194256,-0.514668,0.789496,-0.046269,0.073700,1.012499
2011-09-26T14:18:19.134973,4060,-3.129158,-0.415118,0.769836,-0.045609,0.069899,1.010302
2011-09-26T14:18:19.144973,4070,-3.064060,-0.315568,0.750175,-0.044949,0.066097,1.008105
2011-09-26T14:18:19.154973,4080,-2.998962,-0.216017,0.730514,-0.044289,0.062296,1.005909
2011-09-26T14:18:19.164973,4090,-2.933864,-0.116467,0.710853,-0.043628,0.058495,1.003712
2011-09-26T14:18:19.174973,4100,-2.868766,-0.016917,0.691193,-0.042968,0.054693,1.001516
2011-09-26T14:18:19.184973,4110,-2.803667,0.082633,0.671532,-0.042308,0.050892,0.999319
2011-09-26T14:18:19.194973,4120,-2.738569,0.182183,0.651871,-0.041647,0.047091,0.997123
2011-09-26T14:18:19.204973,4130,-2.673471,0.281734,0.632211,-0.040987,0.043289,0.994926
2011-09-26T14:18:19.214973,4140,-2.520471,0.317401,0.647239,-0.042825,0.042675,0.995065
2011-09-26T14:18:19.224973,4150,-2.367093,0.352794,0.662416,-0.044673,0.042073,0.995213
2011-09-26T14:18:19.234973,4160,-2.213715,0.388187,0.677594,-0.046522,0.041472,0.995362
2011-09-26T14:18:19.244973,4170,-2.060337,0.423580,0.692771,-0.048370,0.040871,0.995510
2011-09-26T14:18:19.254973,4180,-1.906959,0.458973,0.707948,-0.050219,0.040270,0.995659
2011-09-26T14:18:19.264973,4190,-1.753581,0.494367,0.723125,-0.052067,0.039669,0.995808
2011-09-26T14:18:19.274973,4200,-1.600203,0.529760,0.738303,-0.053916,0.039067,0.995956
2011-09-26T14:18:19.284973,4210,-1.446826,0.565153,0.753480,-0.055764,0.038466,0.996105
2011-09-26T14:18:19.294973,4220,-1.293448,0.600546,0.768657,-0.057613,0.037865,0.996253
2011-09-26T14:18:19.304973,4230,-1.140070,0.635939,0.783834,-0.059461,0.037264,0.996402
2011-09-26T14:18:19.314973,4240,-0.986692,0.671332,0.799012,-0.061310,0.036663,0.996551
2011-09-26T14:18:19.324973,4250,-0.928036,0.638046,0.792817,-0.061741,0.039644,0.996451
2011-09-26T14:18:19.334973,4260,-0.869730,0.604505,0.786544,-0.062166,0.042640,0.996351
2011-09-26T14:18:19.344973,4270,-0.811424,0.570964,0.780270,-0.062591,0.045635,0.996250
2011-09-26T14:18:19.354973,4280,-0.753118,0.537423,0.773996,-0.063017,0.048630,0.996150
2011-09-26T14:18:19.364973,4290,-0.694812,0.503883,0.767723,-0.063442,0.051625,0.996049
2011-09-26T14:18:19.374973,4300,-0.636506,0.470342,0.761449,-0.063867,0.054620,0.995949
2011-09-26T14:18:19.384973,4310,-0.578200,0.436801,0.755176,-0.064293,0.057615,0.995848
2011-09-26T14:18:19.394973,4320,-0.519894,0.403260,0.748902,-0.064718,0.060610,0.995748
2011-09-26T14:18:19.404973,4330,-0.461589,0.369720,0.742628,-0.065143,0.063605,0.995647
2011-09-26T14:18:19.414973,4340,-0.403283,0.336179,0.736355,-0.065569,0.066600,0.995547
2011-09-26T14:18:19.424973,4350,-0.350816,0.357887,0.711905,-0.066137,0.065554,0.996208
2011-09-26T14:18:19.434973,4360,-0.298399,0.380061,0.687302,-0.066707,0.064474,0.996875
2011-09-26T14:18:19.444973,4370,-0.245982,0.402236,0.662699,-0.067277,0.063394,0.997543
2011-09-26T14:18:19.454973,4380,-0.193565,0.424411,0.638096,-0.067846,0.062314,0.998210
2011-09-26T14:18:19.464973,4390,-0.141148,0.446585,0.613493,-0.068416,0.061234,0.998878
2011-09-26T14:18:19.474973,4400,-0.088731,0.468760,0.588890,-0.068986,0.060153,0.999545
2011-09-26T14:18:19.484973,4410,-0.036314,0.490934,0.564287,-0.069555,0.059073,1.000212
2011-09-26T14:18:19.494973,4420,0.016103,0.513109,0.539684,-0.070125,0.057993,1.000880
2011-09-26T14:18:19.504973,4430,0.068520,0.535283,0.515081,-0.070694,0.056913,1.001547
2011-09-26T14:18:19.514973,4440,0.120937,0.557458,0.490478,-0.071264,0.055833,1.002215
2011-09-26T14:18:19.524973,4450,0.081942,0.537548,0.488091,-0.072723,0.056039,1.000838
2011-09-26T14:18:19.534973,4460,0.042295,0.517338,0.485863,-0.074188,0.056254,0.999446
2011-09-26T14:18:19.544973,4470,0.002648,0.497128,0.483635,-0.075652,0.056469,0.998055
2011-09-26T14:18:19.554973,4480,-0.036999,0.476917,0.481406,-0.077117,0.056684,0.996663
2011-09-26T14:18:19.564973,4490,-0.076646,0.456707,0.479178,-0.078582,0.056899,0.995272
2011-09-26T14:18:19.574973,4500,-0.116293,0.436497,0.476950,-0.080047,0.057114,0.993880
2011-09-26T14:18:19.584973,4510,-0.155940,0.416287,0.474722,-0.081512,0.057329,0.992489
2011-09-26T14:18:19.594973,4520,-0.195587,0.396077,0.472494,-0.082977,0.057544,0.991097
2011-09-26T14:18:19.604973,4530,-0.235234,0.375867,0.470266,-0.084442,0.057760,0.989706
2011-09-26T14:18:19.614973,4540,-0.274880,0.355657,0.468037,-0.085907,0.057975,0.988314
2011-09-26T14:18:19.624973,4550,-0.314527,0.335446,0.465809,-0.087372,0.058190,0.986923
2011-09-26T14:18:19.634973,4560,-0.247444,0.283231,0.471509,-0.087187,0.056687,0.986946
2011-09-26T14:18:19.644973,4570,-0.178616,0.230492,0.477339,-0.086976,0.055157,0.986993
2011-09-26T14:18:19.654973,4580,-0.109787,0.177753,0.483169,-0.086765,0.053626,0.987040
2011-09-26T14:18:19.664973,4590,-0.040959,0.125014,0.488998,-0.086554,0.052095,0.987086
2011-09-26T14:18:19.674973,4600,0.027870,0.072275,0.494828,-0.086343,0.050565,0.987133
2011-09-26T14:18:19.684973,4610,0.096698,0.019536,0.500658,-0.086132,0.049034,0.987180
2011-09-26T14:18:19.694973,4620,0.165526,-0.033202,0.506487,-0.085920,0.047504,0.987227
2011-09-26T14:18:19.704973,4630,0.234355,-0.085941,0.512317,-0.085709,0.045973,0.987273
2011-09-26T14:18:19.714973,4640,0.303183,-0.138680,0.518147,-0.085498,0.044442,0.987320
2011-09-26T14:18:19.724973,4650,0.372012,-0.191419,0.523976,-0.085287,0.042912,0.987367
2011-09-26T14:18:19.734973,4660,0.371504,-0.172602,0.527571,-0.085968,0.045056,0.990673
2011-09-26T14:18:19.744973,4670,0.370354,-0.153122,0.531145,-0.086657,0.047235,0.994009
2011-09-26T14:18:19.754973,4680,0.369204,-0.133642,0.534719,-0.087346,0.049414,0.997345
2011-09-26T14:18:19.764973,4690,0.368054,-0.114162,0.538293,-0.088035,0.051593,1.000682
2011-09-26T14:18:19.774973,4700,0.366905,-0.094682,0.541868,-0.088724,0.053771,1.004018
2011-09-26T14:18:19.784973,4710,0.365755,-0.075202,0.545442,-0.089413,0.055950,1.007354
2011-09-26T14:18:19.794973,4720,0.364605,-0.055723,0.549016,-0.090102,0.058129,1.010690
2011-09-26T14:18:19.804973,4730,0.363455,-0.036243,0.552590,-0.090790,0.060307,1.014026
2011-09-26T14:18:19.814973,4740,0.362305,-0.016763,0.556164,-0.091479,0.062486,1.017362
2011-09-26T14:18:19.824973,4750,0.361155,0.002717,0.559738,-0.092168,0.064665,1.020699
2011-09-26T14:18:19.834973,4760,0.354655,0.071223,0.546405,-0.093026,0.064317,1.018622
2011-09-26T14:18:19.844973,4770,0.348115,0.140099,0.532945,-0.093885,0.063950,1.016504
2011-09-26T14:18:19.854973,4780,0.341575,0.208974,0.519485,-0.094743,0.063583,1.014387
2011-09-26T14:18:19.864973,4790,0.335035,0.277849,0.506025,-0.095602,0.063216,1.012269
2011-09-26T14:18:19.874973,4800,0.328494,0.346724,0.492565,-0.096460,0.062849,1.010152
2011-09-26T14:18:19.884973,4810,0.321954,0.415599,0.479104,-0.097319,0.062482,1.008034
2011-09-26T14:18:19.894973,4820,0.315414,0.484475,0.465644,-0.098178,0.062115,1.005916
2011-09-26T14:18:19.904973,4830,0.308874,0.553350,0.452184,-0.099036,0.061748,1.003799
2011-09-26T14:18:19.914973,4840,0.302334,0.622225,0.438724,-0.099895,0.061381,1.001681
2011-09-26T14:18:19.924973,4850,0.295793,0.691100,0.425264,-0.100754,0.061014,0.999564
2011-09-26T14:18:19.934973,4860,0.289253,0.759975,0.411804,-0.101612,0.060647,0.997446
2011-09-26T14:18:19.944973,4870,0.246477,0.763721,0.412700,-0.102478,0.060115,0.995651
2011-09-26T14:18:19.954973,4880,0.203468,0.767049,0.413687,-0.103344,0.059582,0.993857
2011-09-26T14:18:19.964973,4890,0.160459,0.770377,0.414675,-0.104211,0.059048,0.992063
2011-09-26T14:18:19.974973,4900,0.117450,0.773706,0.415663,-0.105077,0.058515,0.990270
2011-09-26T14:18:19.984973,4910,0.074441,0.777034,0.416651,-0.105943,0.057981,0.988476
2011-09-26T14:18:19.994973,4920,0.031432,0.780362,0.417639,-0.106809,0.057448,0.986683
2011-09-26T14:18:20.004973,4930,-0.011577,0.783690,0.418627,-0.107675,0.056914,0.984889
2011-09-26T14:18:20.014973,4940,-0.054586,0.787018,0.419615,-0.108541,0.056381,0.983095
2011-09-26T14:18:20.024973,4950,-0.097596,0.790346,0.420603,-0.109407,0.055848,0.981302
2011-09-26T14:18:20.034973,4960,-0.140605,0.793674,0.421591,-0.110273,0.055314,0.979508
2011-09-26T14:18:20.044973,4970,-0.145833,0.721013,0.416285,-0.111485,0.055666,0.979607
2011-09-26T14:18:20.054973,4980,-0.150712,0.647648,0.410920,-0.112700,0.056027,0.979724
2011-09-26T14:18:20.064973,4990,-0.155591,0.574283,0.405555,-0.113915,0.056387,0.979841
2011-09-26T14:18:20.074973,5000,-0.160469,0.500918,0.400191,-0.115130,0.056748,0.979957
2011-09-26T14:18:20.084973,5010,-0.165348,0.427553,0.394826,-0.116345,0.057108,0.980074
2011-09-26T14:18:20.094973,5020,-0.170227,0.354188,0.389461,-0.117560,0.057469,0.980191
2011-09-26T14:18:20.104973,5030,-0.175106,0.280823,0.384097,-0.118775,0.057829,0.980307
2011-09-26T14:18:20.114973,5040,-0.179984,0.207458,0.378732,-0.119990,0.058190,0.980424
2011-09-26T14:18:20.124973,5050,-0.184863,0.134093,0.373368,-0.121205,0.058550,0.980541
2011-09-26T14:18:20.134973,5060,-0.189742,0.060728,0.368003,-0.122420,0.058911,0.980657
2011-09-26T14:18:20.144973,5070,-0.247769,0.030494,0.361284,-0.122786,0.058761,0.981707
2011-09-26T14:18:20.154973,5080,-0.306577,0.000894,0.354545,-0.123140,0.058604,0.982770
2011-09-26T14:18:20.164973,5090,-0.365385,-0.028707,0.347806,-0.123493,0.058446,0.983833
2011-09-26T14:18:20.174973,5100,-0.424192,-0.058307,0.341067,-0.123846,0.058289,0.984896
2011-09-26T14:18:20.184973,5110,-0.483000,-0.087907,0.334328,-0.124200,0.058131,0.985959
2011-09-26T14:18:20.194973,5120,-0.541808,-0.117507,0.327589,-0.124553,0.057974,0.987022
2011-09-26T14:18:20.204973,5130,-0.600616,-0.147107,0.320850,-0.124907,0.057817,0.988085
2011-09-26T14:18:20.214973,5140,-0.659424,-0.176707,0.314111,-0.125260,0.057659,0.989149
2011-09-26T14:18:20.224973,5150,-0.718232,-0.206307,0.307372,-0.125614,0.057502,0.990212
2011-09-26T14:18:20.234973,5160,-0.777039,-0.235907,0.300633,-0.125967,0.057344,0.991275
2011-09-26T14:18:20.244973,5170,-0.835847,-0.265508,0.293894,-0.126320,0.057187,0.992338
2011-09-26T14:18:20.254973,5180,-0.818382,-0.242361,0.286551,-0.126772,0.056307,0.993211
2011-09-26T14:18:20.264973,5190,-0.799943,-0.218541,0.279200,-0.127225,0.055419,0.994082
2011-09-26T14:18:20.274973,5200,-0.781504,-0.194721,0.271849,-0.127677,0.054530,0.994952
2011-09-26T14:18:20.284973,5210,-0.763066,-0.170901,0.264498,-0.128130,0.053641,0.995823
2011-09-26T14:18:20.294973,5220,-0.744627,-0.147081,0.257147,-0.128583,0.052752,0.996694
2011-09-26T14:18:20.304973,5230,-0.726188,-0.123261,0.249796,-0.129036,0.051864,0.997564
2011-09-26T14:18:20.314973,5240,-0.707750,-0.099441,0.242445,-0.129488,0.050975,0.998435
2011-09-26T14:18:20.324973,5250,-0.689311,-0.075621,0.235094,-0.129941,0.050086,0.999305
2011-09-26T14:18:20.334973,5260,-0.670872,-0.051801,0.227743,-0.130394,0.049198,1.000176
2011-09-26T14:18:20.344973,5270,-0.652434,-0.027981,0.220392,-0.130847,0.048309,1.001047
2011-09-26T14:18:20.354973,5280,-0.636200,0.013476,0.216986,-0.131649,0.048836,1.002279
2011-09-26T14:18:20.364973,5290,-0.619987,0.055102,0.213618,-0.132454,0.049377,1.003514
2011-09-26T14:18:20.374973,5300,-0.603774,0.096728,0.210250,-0.133259,0.049918,1.004749
2011-09-26T14:18:20.384973,5310,-0.587561,0.138354,0.206882,-0.134064,0.050459,1.005985
2011-09-26T14:18:20.394973,5320,-0.571348,0.179980,0.203513,-0.134870,0.051000,1.007220
2011-09-26T14:18:20.404973,5330,-0.555135,0.221606,0.200145,-0.135675,0.051541,1.008455
2011-09-26T14:18:20.414973,5340,-0.538922,0.263231,0.196777,-0.136480,0.052082,1.009690
2011-09-26T14:18:20.424973,5350,-0.522709,0.304857,0.193409,-0.137285,0.052623,1.010926
2011-09-26T14:18:20.434973,5360,-0.506496,0.346483,0.190041,-0.138091,0.053164,1.012161
2011-09-26T14:18:20.444973,5370,-0.490283,0.388109,0.186672,-0.138896,0.053705,1.013396
2011-09-26T14:18:20.454973,5380,-0.478530,0.377692,0.160918,-0.139534,0.051461,1.012191
2011-09-26T14:18:20.464973,5390,-0.466815,0.366840,0.134976,-0.140171,0.049194,1.010966
2011-09-26T14:18:20.474973,5400,-0.455099,0.355989,0.109035,-0.140808,0.046927,1.009741
2011-09-26T14:18:20.484973,5410,-0.443384,0.345137,0.083093,-0.141444,0.044660,1.008516
2011-09-26T14:18:20.494973,5420,-0.431668,0.334285,0.057152,-0.142081,0.042392,1.007291
2011-09-26T14:18:20.504973,5430,-0.419953,0.323434,0.031211,-0.142718,0.040125,1.006065
2011-09-26T14:18:20.514973,5440,-0.408238,0.312582,0.005269,-0.143355,0.037858,1.004840
2011-09-26T14:18:20.524973,5450,-0.396522,0.301731,-0.020672,-0.143992,0.035591,1.003615
2011-09-26T14:18:20.534973,5460,-0.384807,0.290879,-0.046614,-0.144628,0.033324,1.002390
2011-09-26T14:18:20.544973,5470,-0.373091,0.280027,-0.072555,-0.145265,0.031057,1.001164
2011-09-26T14:18:20.554973,5480,-0.361376,0.269176,-0.098497,-0.145902,0.028789,0.999939
2011-09-26T14:18:20.564973,5490,-0.333621,0.285984,-0.114122,-0.145449,0.029646,0.999347
2011-09-26T14:18:20.574973,5500,-0.305698,0.303084,-0.129638,-0.144985,0.030535,0.998762
2011-09-26T14:18:20.584973,5510,-0.277775,0.320183,-0.145155,-0.144521,0.031424,0.998177
2011-09-26T14:18:20.594973,5520,-0.249851,0.337282,-0.160672,-0.144057,0.032313,0.997592
2011-09-26T14:18:20.604973,5530,-0.221928,0.354381,-0.176189,-0.143592,0.033202,0.997007
2011-09-26T14:18:20.614973,5540,-0.194005,0.371481,-0.191705,-0.143128,0.034091,0.996422
2011-09-26T14:18:20.624973,5550,-0.166082,0.388580,-0.207222,-0.142664,0.034980,0.995837
2011-09-26T14:18:20.634973,5560,-0.138158,0.405679,-0.222739,-0.142200,0.035870,0.995252
2011-09-26T14:18:20.644973,5570,-0.110235,0.422779,-0.238255,-0.141735,0.036759,0.994667
2011-09-26T14:18:20.654973,5580,-0.082312,0.439878,-0.253772,-0.141271,0.037648,0.994082
2011-09-26T14:18:20.664973,5590,-0.066366,0.427809,-0.294045,-0.138578,0.036471,0.993024
2011-09-26T14:18:20.674973,5600,-0.050611,0.415275,-0.334713,-0.135850,0.035262,0.991958
2011-09-26T14:18:20.684973,5610,-0.034855,0.402741,-0.375381,-0.133121,0.034053,0.990893
2011-09-26T14:18:20.694973,5620,-0.019100,0.390207,-0.416048,-0.130393,0.032844,0.989828
2011-09-26T14:18:20.704973,5630,-0.003345,0.377673,-0.456716,-0.127664,0.031635,0.988762
2011-09-26T14:18:20.714973,5640,0.012410,0.365139,-0.497383,-0.124936,0.030425,0.987697
2011-09-26T14:18:20.724973,5650,0.028166,0.352606,-0.538051,-0.122207,0.029216,0.986631
2011-09-26T14:18:20.734973,5660,0.043921,0.340072,-0.578718,-0.119479,0.028007,0.985566
2011-09-26T14:18:20.744973,5670,0.059676,0.327538,-0.619386,-0.116750,0.026798,0.984501
2011-09-26T14:18:20.754973,5680,0.075431,0.315004,-0.660054,-0.114022,0.025588,0.983435
2011-09-26T14:18:20.764973,5690,-0.005598,0.258574,-0.682125,-0.111350,0.026502,0.982504
2011-09-26T14:18:20.774973,5700,-0.087763,0.201629,-0.703979,-0.108678,0.027441,0.981574
2011-09-26T14:18:20.784973,5710,-0.169928,0.144683,-0.725832,-0.106007,0.028379,0.980644
2011-09-26T14:18:20.794973,5720,-0.252092,0.087738,-0.747686,-0.103335,0.029318,0.979714
2011-09-26T14:18:20.804973,5730,-0.334257,0.030792,-0.769539,-0.100664,0.030257,0.978784
2011-09-26T14:18:20.814973,5740,-0.416422,-0.026153,-0.791393,-0.097992,0.031195,0.977854
2011-09-26T14:18:20.824973,5750,-0.498587,-0.083098,-0.813247,-0.095321,0.032134,0.976924
2011-09-26T14:18:20.834973,5760,-0.580752,-0.140044,-0.835100,-0.092650,0.033072,0.975994
2011-09-26T14:18:20.844973,5770,-0.662917,-0.196989,-0.856954,-0.089978,0.034011,0.975064
2011-09-26T14:18:20.854973,5780,-0.745082,-0.253934,-0.878807,-0.087307,0.034950,0.974134
2011-09-26T14:18:20.864973,5790,-0.827246,-0.310880,-0.900661,-0.084635,0.035888,0.973204
2011-09-26T14:18:20.874973,5800,-0.808146,-0.397261,-0.920729,-0.082212,0.034162,0.973819
2011-09-26T14:18:20.884973,5810,-0.787734,-0.484023,-0.940775,-0.079792,0.032402,0.974455
2011-09-26T14:18:20.894973,5820,-0.767322,-0.570785,-0.960820,-0.077372,0.030641,0.975090
2011-09-26T14:18:20.904973,5830,-0.746909,-0.657548,-0.980865,-0.074952,0.028881,0.975726
2011-09-26T14:18:20.914973,5840,-0.726497,-0.744310,-1.000910,-0.072532,0.027120,0.976361
2011-09-26T14:18:20.924973,5850,-0.706085,-0.831073,-1.020956,-0.070112,0.025360,0.976997
2011-09-26T14:18:20.934973,5860,-0.685672,-0.917835,-1.041001,-0.067691,0.023600,0.977632
2011-09-26T14:18:20.944973,5870,-0.665260,-1.004597,-1.061046,-0.065271,0.021839,0.978268
2011-09-26T14:18:20.954973,5880,-0.644848,-1.091360,-1.081091,-0.062851,0.020079,0.978903
2011-09-26T14:18:20.964973,5890,-0.624435,-1.178122,-1.101137,-0.060431,0.018318,0.979539
2011-09-26T14:18:20.974973,5900,-0.668375,-1.189276,-1.134031,-0.059086,0.019191,0.982720
2011-09-26T14:18:20.984973,5910,-0.714115,-1.198315,-1.167284,-0.057771,0.020137,0.985973
2011-09-26T14:18:20.994973,5920,-0.759854,-1.207355,-1.200537,-0.056456,0.021083,0.989226
2011-09-26T14:18:21.004973,5930,-0.805593,-1.216394,-1.233790,-0.055141,0.022029,0.992479
2011-09-26T14:18:21.014973,5940,-0.851333,-1.225434,-1.267043,-0.053827,0.022975,0.995732
2011-09-26T14:18:21.024973,5950,-0.897072,-1.234473,-1.300296,-0.052512,0.023921,0.998985
2011-09-26T14:18:21.034973,5960,-0.942811,-1.243513,-1.333549,-0.051197,0.024867,1.002238
2011-09-26T14:18:21.044973,5970,-0.988550,-1.252552,-1.366802,-0.049882,0.025813,1.005491
2011-09-26T14:18:21.054973,5980,-1.034290,-1.261592,-1.400055,-0.048567,0.026759,1.008744
2011-09-26T14:18:21.064973,5990,-1.080029,-1.270631,-1.433308,-0.047252,0.027705,1.011997
2011-09-26T14:18:21.074973,6000,-1.153512,-1.209685,-1.525331,-0.046489,0.025820,1.012644
2011-09-26T14:18:21.084973,6010,-1.227756,-1.146820,-1.618966,-0.045740,0.023858,1.013220
2011-09-26T14:18:21.094973,6020,-1.302000,-1.083955,-1.712600,-0.044992,0.021895,1.013796
2011-09-26T14:18:21.104973,6030,-1.376244,-1.021090,-1.806234,-0.044244,0.019932,1.014372
2011-09-26T14:18:21.114973,6040,-1.450488,-0.958225,-1.899869,-0.043496,0.017970,1.014948
2011-09-26T14:18:21.124973,6050,-1.524732,-0.895361,-1.993503,-0.042747,0.016007,1.015524
2011-09-26T14:18:21.134973,6060,-1.598976,-0.832496,-2.087137,-0.041999,0.014045,1.016100
2011-09-26T14:18:21.144973,6070,-1.673220,-0.769631,-2.180772,-0.041251,0.012082,1.016676
2011-09-26T14:18:21.154973,6080,-1.747464,-0.706766,-2.274406,-0.040502,0.010119,1.017251
2011-09-26T14:18:21.164973,6090,-1.821708,-0.643901,-2.368040,-0.039754,0.008157,1.017827
2011-09-26T14:18:21.174973,6100,-1.895952,-0.581036,-2.461674,-0.039006,0.006194,1.018403
2011-09-26T14:18:21.184973,6110,-1.889929,-0.513246,-2.543019,-0.039309,0.002536,1.018589
2011-09-26T14:18:21.194973,6120,-1.882585,-0.445376,-2.624161,-0.039629,-0.001150,1.018769
2011-09-26T14:18:21.204973,6130,-1.875241,-0.377506,-2.705304,-0.039950,-0.004836,1.018948
2011-09-26T14:18:21.214973,6140,-1.867897,-0.309635,-2.786446,-0.040270,-0.008522,1.019127
2011-09-26T14:18:21.224973,6150,-1.860553,-0.241765,-2.867589,-0.040591,-0.012208,1.019307
2011-09-26T14:18:21.234973,6160,-1.853209,-0.173894,-2.948731,-0.040911,-0.015894,1.019486
2011-09-26T14:18:21.244973,6170,-1.845865,-0.106024,-3.029873,-0.041232,-0.019580,1.019666
2011-09-26T14:18:21.254973,6180,-1.838520,-0.038153,-3.111016,-0.041552,-0.023266,1.019845
2011-09-26T14:18:21.264973,6190,-1.831176,0.029717,-3.192158,-0.041873,-0.026952,1.020025
2011-09-26T14:18:21.274973,6200,-1.823832,0.097588,-3.273300,-0.042193,-0.030638,1.020204
2011-09-26T14:18:21.284973,6210,-1.740211,0.125560,-3.337160,-0.043655,-0.033188,1.018380
2011-09-26T14:18:21.294973,6220,-1.655398,0.152908,-3.400750,-0.045134,-0.035721,1.016525
2011-09-26T14:18:21.304973,6230,-1.570585,0.180257,-3.464339,-0.046613,-0.038254,1.014669
2011-09-26T14:18:21.314973,6240,-1.485772,0.207606,-3.527929,-0.048092,-0.040787,1.012814
2011-09-26T14:18:21.324973,6250,-1.400959,0.234954,-3.591518,-0.049572,-0.043320,1.010958
2011-09-26T14:18:21.334973,6260,-1.316146,0.262303,-3.655108,-0.051051,-0.045852,1.009103
2011-09-26T14:18:21.344973,6270,-1.231333,0.289652,-3.718697,-0.052530,-0.048385,1.007248
2011-09-26T14:18:21.354973,6280,-1.146520,0.317000,-3.782287,-0.054010,-0.050918,1.005392
2011-09-26T14:18:21.364973,6290,-1.061707,0.344349,-3.845877,-0.055489,-0.053451,1.003537
2011-09-26T14:18:21.374973,6300,-0.976894,0.371698,-3.909466,-0.056968,-0.055984,1.001682
2011-09-26T14:18:21.384973,6310,-0.892081,0.399047,-3.973056,-0.058448,-0.058516,0.999826
2011-09-26T14:18:21.394973,6320,-0.815327,0.406421,-4.006091,-0.058739,-0.059622,0.999686
2011-09-26T14:18:21.404973,6330,-0.738697,0.413489,-4.038657,-0.059012,-0.060706,0.999571
2011-09-26T14:18:21.414973,6340,-0.662066,0.420558,-4.071224,-0.059285,-0.061789,0.999457
2011-09-26T14:18:21.424973,6350,-0.585436,0.427626,-4.103791,-0.059558,-0.062873,0.999343
2011-09-26T14:18:21.434973,6360,-0.508806,0.434694,-4.136358,-0.059831,-0.063957,0.999229
2011-09-26T14:18:21.444973,6370,-0.432175,0.441763,-4.168925,-0.060104,-0.065040,0.999114
2011-09-26T14:18:21.454973,6380,-0.355545,0.448831,-4.201492,-0.060377,-0.066124,0.999000
2011-09-26T14:18:21.464973,6390,-0.278915,0.455899,-4.234059,-0.060651,-0.067208,0.998886
2011-09-26T14:18:21.474973,6400,-0.202285,0.462968,-4.266625,-0.060924,-0.068292,0.998772
2011-09-26T14:18:21.484973,6410,-0.125654,0.470036,-4.299192,-0.061197,-0.069375,0.998657
2011-09-26T14:18:21.494973,6420,-0.128128,0.494027,-4.327389,-0.062184,-0.068963,0.998198
2011-09-26T14:18:21.504973,6430,-0.132043,0.518326,-4.355506,-0.063184,-0.068524,0.997732
2011-09-26T14:18:21.514973,6440,-0.135958,0.542624,-4.383624,-0.064184,-0.068085,0.997267
2011-09-26T14:18:21.524973,6450,-0.139874,0.566923,-4.411741,-0.065185,-0.067645,0.996801
2011-09-26T14:18:21.534973,6460,-0.143789,0.591222,-4.439858,-0.066185,-0.067206,0.996335
2011-09-26T14:18:21.544973,6470,-0.147704,0.615521,-4.467976,-0.067185,-0.066767,0.995869
2011-09-26T14:18:21.554973,6480,-0.151619,0.639820,-4.496093,-0.068185,-0.066327,0.995404
2011-09-26T14:18:21.564973,6490,-0.155534,0.664119,-4.524210,-0.069185,-0.065888,0.994938
2011-09-26T14:18:21.574973,6500,-0.159450,0.688417,-4.552327,-0.070186,-0.065449,0.994472
2011-09-26T14:18:21.584973,6510,-0.163365,0.712716,-4.580445,-0.071186,-0.065010,0.994007
2011-09-26T14:18:21.594973,6520,-0.170204,0.704016,-4.617807,-0.070912,-0.064627,0.993063
2011-09-26T14:18:21.604973,6530,-0.177172,0.693852,-4.655579,-0.070581,-0.064248,0.992097
2011-09-26T14:18:21.614973,6540,-0.184141,0.683688,-4.693351,-0.070251,-0.063868,0.991132
2011-09-26T14:18:21.624973,6550,-0.191110,0.673524,-4.731123,-0.069920,-0.063488,0.990167
2011-09-26T14:18:21.634973,6560,-0.198078,0.663361,-4.768895,-0.069590,-0.063109,0.989202
2011-09-26T14:18:21.644973,6570,-0.205047,0.653197,-4.806668,-0.069259,-0.062729,0.988237
2011-09-26T14:18:21.654973,6580,-0.212016,0.643033,-4.844440,-0.068929,-0.062349,0.987271
2011-09-26T14:18:21.664973,6590,-0.218984,0.632869,-4.882212,-0.068598,-0.061970,0.986306
2011-09-26T14:18:21.674973,6600,-0.225953,0.622705,-4.919984,-0.068268,-0.061590,0.985341
2011-09-26T14:18:21.684973,6610,-0.232922,0.612541,-4.957756,-0.067937,-0.061210,0.984376
2011-09-26T14:18:21.694973,6620,-0.239890,0.602377,-4.995529,-0.067607,-0.060831,0.983411
2011-09-26T14:18:21.704973,6630,-0.235578,0.577226,-5.039871,-0.066533,-0.063248,0.983673
2011-09-26T14:18:21.714973,6640,-0.231069,0.551814,-5.084329,-0.065446,-0.065714,0.983957
2011-09-26T14:18:21.724973,6650,-0.226560,0.526402,-5.128786,-0.064358,-0.068181,0.984240
2011-09-26T14:18:21.734973,6660,-0.222052,0.500990,-5.173244,-0.063271,-0.070647,0.984524
2011-09-26T14:18:21.744973,6670,-0.217543,0.475578,-5.217701,-0.062184,-0.073113,0.984808
2011-09-26T14:18:21.754973,6680,-0.213034,0.450166,-5.262158,-0.061097,-0.075579,0.985092
2011-09-26T14:18:21.764973,6690,-0.208525,0.424754,-5.306616,-0.060010,-0.078046,0.985375
2011-09-26T14:18:21.774973,6700,-0.204016,0.399342,-5.351073,-0.058923,-0.080512,0.985659
2011-09-26T14:18:21.784973,6710,-0.199507,0.373930,-5.395531,-0.057836,-0.082978,0.985943
2011-09-26T14:18:21.794973,6720,-0.194998,0.348518,-5.439988,-0.056749,-0.085445,0.986227
2011-09-26T14:18:21.804973,6730,-0.145604,0.357888,-5.461142,-0.055751,-0.086213,0.987333
2011-09-26T14:18:21.814973,6740,-0.095445,0.367851,-5.481897,-0.054755,-0.086952,0.988453
2011-09-26T14:18:21.824973,6750,-0.045286,0.377815,-5.502653,-0.053759,-0.087691,0.989574
2011-09-26T14:18:21.834973,6760,0.004873,0.387778,-5.523409,-0.052763,-0.088430,0.990694
2011-09-26T14:18:21.844973,6770,0.055032,0.397742,-5.544165,-0.051766,-0.089169,0.991814
2011-09-26T14:18:21.854973,6780,0.105191,0.407705,-5.564921,-0.050770,-0.089907,0.992935
2011-09-26T14:18:21.864973,6790,0.155351,0.417669,-5.585676,-0.049774,-0.090646,0.994055
2011-09-26T14:18:21.874973,6800,0.205510,0.427632,-5.606432,-0.048778,-0.091385,0.995175
2011-09-26T14:18:21.884973,6810,0.255669,0.437596,-5.627188,-0.047782,-0.092124,0.996296
2011-09-26T14:18:21.894973,6820,0.305828,0.447560,-5.647944,-0.046785,-0.092863,0.997416
2011-09-26T14:18:21.904973,6830,0.305672,0.426276,-5.653567,-0.046888,-0.092689,0.996289
2011-09-26T14:18:21.914973,6840,0.304468,0.404342,-5.658875,-0.047013,-0.092495,0.995116
2011-09-26T14:18:21.924973,6850,0.303265,0.382407,-5.664183,-0.047138,-0.092302,0.993943
2011-09-26T14:18:21.934973,6860,0.302062,0.360473,-5.669491,-0.047263,-0.092108,0.992769
2011-09-26T14:18:21.944973,6870,0.300858,0.338539,-5.674799,-0.047388,-0.091914,0.991596
2011-09-26T14:18:21.954973,6880,0.299655,0.316605,-5.680107,-0.047513,-0.091721,0.990422
2011-09-26T14:18:21.964973,6890,0.298452,0.294671,-5.685415,-0.047639,-0.091527,0.989249
2011-09-26T14:18:21.974973,6900,0.297248,0.272737,-5.690723,-0.047764,-0.091333,0.988076
2011-09-26T14:18:21.984973,6910,0.296045,0.250803,-5.696031,-0.047889,-0.091140,0.986902
2011-09-26T14:18:21.994973,6920,0.294842,0.228869,-5.701339,-0.048014,-0.090946,0.985729
2011-09-26T14:18:22.004973,6930,0.313616,0.188193,-5.695923,-0.048145,-0.091547,0.986364
2011-09-26T14:18:22.014973,6940,0.332689,0.147237,-5.690347,-0.048276,-0.092160,0.987027
2011-09-26T14:18:22.024973,6950,0.351761,0.106282,-5.684771,-0.048407,-0.092773,0.987690
2011-09-26T14:18:22.034973,6960,0.370834,0.065326,-5.679195,-0.048539,-0.093386,0.988352
2011-09-26T14:18:22.044973,6970,0.389906,0.024370,-5.673618,-0.048670,-0.093999,0.989015
2011-09-26T14:18:22.054973,6980,0.408979,-0.016585,-5.668042,-0.048801,-0.094612,0.989677
2011-09-26T14:18:22.064973,6990,0.428051,-0.057541,-5.662466,-0.048932,-0.095225,0.990340
2011-09-26T14:18:22.074973,7000,0.447124,-0.098496,-5.656890,-0.049063,-0.095838,0.991002
2011-09-26T14:18:22.084973,7010,0.466196,-0.139452,-5.651314,-0.049194,-0.096451,0.991665
2011-09-26T14:18:22.094973,7020,0.485268,-0.180408,-5.645737,-0.049326,-0.097064,0.992328
2011-09-26T14:18:22.104973,7030,0.504341,-0.221363,-5.640161,-0.049457,-0.097677,0.992990
2011-09-26T14:18:22.114973,7040,0.570008,-0.250916,-5.636612,-0.048469,-0.097327,0.994479
2011-09-26T14:18:22.124973,7050,0.637196,-0.280096,-5.633128,-0.047444,-0.096946,0.995994
2011-09-26T14:18:22.134973,7060,0.704383,-0.309276,-5.629645,-0.046420,-0.096565,0.997509
2011-09-26T14:18:22.144973,7070,0.771570,-0.338457,-5.626161,-0.045396,-0.096183,0.999024
2011-09-26T14:18:22.154973,7080,0.838758,-0.367637,-5.622678,-0.044371,-0.095802,1.000539
2011-09-26T14:18:22.164973,7090,0.905945,-0.396817,-5.619195,-0.043347,-0.095421,1.002055
2011-09-26T14:18:22.174973,7100,0.973132,-0.425997,-5.615711,-0.042323,-0.095039,1.003570
2011-09-26T14:18:22.184973,7110,1.040320,-0.455178,-5.612228,-0.041298,-0.094658,1.005085
2011-09-26T14:18:22.194973,7120,1.107507,-0.484358,-5.608745,-0.040274,-0.094277,1.006600
2011-09-26T14:18:22.204973,7130,1.174695,-0.513538,-5.605261,-0.039249,-0.093895,1.008116
2011-09-26T14:18:22.214973,7140,1.092457,-0.509448,-5.596345,-0.039605,-0.093018,1.007522
2011-09-26T14:18:22.224973,7150,1.007792,-0.504818,-5.587341,-0.039982,-0.092132,1.006893
2011-09-26T14:18:22.234973,7160,0.923126,-0.500187,-5.578337,-0.040360,-0.091246,1.006265
2011-09-26T14:18:22.244973,7170,0.838460,-0.495557,-5.569332,-0.040738,-0.090361,1.005637
2011-09-26T14:18:22.254973,7180,0.753795,-0.490926,-5.560328,-0.041116,-0.089475,1.005008
2011-09-26T14:18:22.264973,7190,0.669129,-0.486295,-5.551324,-0.041493,-0.088589,1.004380
2011-09-26T14:18:22.274973,7200,0.584464,-0.481665,-5.542319,-0.041871,-0.087703,1.003752
2011-09-26T14:18:22.284973,7210,0.499798,-0.477034,-5.533315,-0.042249,-0.086818,1.003123
2011-09-26T14:18:22.294973,7220,0.415132,-0.472404,-5.524311,-0.042626,-0.085932,1.002495
2011-09-26T14:18:22.304973,7230,0.330467,-0.467773,-5.515307,-0.043004,-0.085046,1.001867
2011-09-26T14:18:22.314973,7240,0.316803,-0.492708,-5.528947,-0.042995,-0.084812,1.001666
2011-09-26T14:18:22.324973,7250,0.304504,-0.518213,-5.543024,-0.042978,-0.084589,1.001473
2011-09-26T14:18:22.334973,7260,0.292205,-0.543717,-5.557101,-0.042961,-0.084367,1.001281
2011-09-26T14:18:22.344973,7270,0.279907,-0.569221,-5.571177,-0.042944,-0.084145,1.001088
2011-09-26T14:18:22.354973,7280,0.267608,-0.594725,-5.585254,-0.042927,-0.083923,1.000895
2011-09-26T14:18:22.364973,7290,0.255310,-0.620229,-5.599330,-0.042910,-0.083701,1.000703
2011-09-26T14:18:22.374973,7300,0.243011,-0.645733,-5.613407,-0.042894,-0.083479,1.000510
2011-09-26T14:18:22.384973,7310,0.230713,-0.671237,-5.627483,-0.042877,-0.083256,1.000318
2011-09-26T14:18:22.394973,7320,0.218414,-0.696741,-5.641560,-0.042860,-0.083034,1.000125
2011-09-26T14:18:22.404973,7330,0.206115,-0.722246,-5.655636,-0.042843,-0.082812,0.999933
2011-09-26T14:18:22.414973,7340,0.193817,-0.747750,-5.669713,-0.042826,-0.082590,0.999740
2011-09-26T14:18:22.424973,7350,0.118451,-0.738443,-5.661272,-0.043180,-0.081799,1.000700
2011-09-26T14:18:22.434973,7360,0.041878,-0.728471,-5.652400,-0.043542,-0.080998,1.001682
2011-09-26T14:18:22.444973,7370,-0.034695,-0.718498,-5.643528,-0.043903,-0.080197,1.002664
2011-09-26T14:18:22.454973,7380,-0.111268,-0.708525,-5.634656,-0.044264,-0.079395,1.003646
2011-09-26T14:18:22.464973,7390,-0.187841,-0.698553,-5.625785,-0.044625,-0.078594,1.004628
2011-09-26T14:18:22.474973,7400,-0.264414,-0.688580,-5.616913,-0.044986,-0.077792,1.005611
2011-09-26T14:18:22.484973,7410,-0.340987,-0.678608,-5.608041,-0.045348,-0.076991,1.006593
2011-09-26T14:18:22.494973,7420,-0.417560,-0.668635,-5.599169,-0.045709,-0.076190,1.007575
2011-09-26T14:18:22.504973,7430,-0.494133,-0.658662,-5.590297,-0.046070,-0.075388,1.008557
2011-09-26T14:18:22.514973,7440,-0.570706,-0.648690,-5.581425,-0.046431,-0.074587,1.009539
2011-09-26T14:18:22.524973,7450,-0.637940,-0.645572,-5.584979,-0.046943,-0.074351,1.010758
2011-09-26T14:18:22.534973,7460,-0.704973,-0.642603,-5.588799,-0.047459,-0.074126,1.011983
2011-09-26T14:18:22.544973,7470,-0.772005,-0.639633,-5.592620,-0.047974,-0.073902,1.013207
2011-09-26T14:18:22.554973,7480,-0.839038,-0.636664,-5.596441,-0.048489,-0.073678,1.014431
2011-09-26T14:18:22.564973,7490,-0.906070,-0.633694,-5.600261,-0.049005,-0.073454,1.015656
2011-09-26T14:18:22.574973,7500,-0.973103,-0.630724,-5.604082,-0.049520,-0.073230,1.016880
2011-09-26T14:18:22.584973,7510,-1.040136,-0.627755,-5.607903,-0.050035,-0.073005,1.018104
2011-09-26T14:18:22.594973,7520,-1.107168,-0.624785,-5.611723,-0.050551,-0.072781,1.019329
2011-09-26T14:18:22.604973,7530,-1.174201,-0.621815,-5.615544,-0.051066,-0.072557,1.020553
2011-09-26T14:18:22.614973,7540,-1.241233,-0.618846,-5.619365,-0.051581,-0.072333,1.021777
2011-09-26T14:18:22.624973,7550,-1.238752,-0.612077,-5.614040,-0.051841,-0.073512,1.020966
2011-09-26T14:18:22.634973,7560,-1.233269,-0.605144,-5.608320,-0.052090,-0.074751,1.020066
2011-09-26T14:18:22.644973,7570,-1.227786,-0.598212,-5.602600,-0.052339,-0.075990,1.019167
2011-09-26T14:18:22.654973,7580,-1.222304,-0.591279,-5.596881,-0.052587,-0.077230,1.018268
2011-09-26T14:18:22.664973,7590,-1.216821,-0.584347,-5.591161,-0.052836,-0.078469,1.017368
2011-09-26T14:18:22.674973,7600,-1.211339,-0.577414,-5.585441,-0.053085,-0.079708,1.016469
2011-09-26T14:18:22.684973,7610,-1.205856,-0.570482,-5.579721,-0.053333,-0.080948,1.015569
2011-09-26T14:18:22.694973,7620,-1.200373,-0.563549,-5.574001,-0.053582,-0.082187,1.014670
2011-09-26T14:18:22.704973,7630,-1.194891,-0.556617,-5.568282,-0.053831,-0.083426,1.013770
2011-09-26T14:18:22.714973,7640,-1.189408,-0.549684,-5.562562,-0.054079,-0.084666,1.012871
2011-09-26T14:18:22.724973,7650,-1.183926,-0.542752,-5.556842,-0.054328,-0.085905,1.011972
2011-09-26T14:18:22.734973,7660,-1.192876,-0.521672,-5.560160,-0.054254,-0.086023,1.012273
2011-09-26T14:18:22.744973,7670,-1.202133,-0.500292,-5.563670,-0.054172,-0.086117,1.012601
2011-09-26T14:18:22.754973,7680,-1.211390,-0.478911,-5.567180,-0.054091,-0.086212,1.012928
2011-09-26T14:18:22.764973,7690,-1.220647,-0.457531,-5.570691,-0.054010,-0.086306,1.013256
2011-09-26T14:18:22.774973,7700,-1.229904,-0.436151,-5.574201,-0.053928,-0.086401,1.013583
2011-09-26T14:18:22.784973,7710,-1.239160,-0.414771,-5.577711,-0.053847,-0.086495,1.013911
2011-09-26T14:18:22.794973,7720,-1.248417,-0.393390,-5.581221,-0.053766,-0.086589,1.014238
2011-09-26T14:18:22.804973,7730,-1.257674,-0.372010,-5.584731,-0.053684,-0.086684,1.014565
2011-09-26T14:18:22.814973,7740,-1.266931,-0.350630,-5.588241,-0.053603,-0.086778,1.014893
2011-09-26T14:18:22.824973,7750,-1.276188,-0.329250,-5.591751,-0.053522,-0.086872,1.015220
2011-09-26T14:18:22.834973,7760,-1.258884,-0.254851,-5.579870,-0.053544,-0.087935,1.014910
2011-09-26T14:18:22.844973,7770,-1.240987,-0.179267,-5.567644,-0.053569,-0.089019,1.014585
2011-09-26T14:18:22.854973,7780,-1.223089,-0.103683,-5.555418,-0.053594,-0.090103,1.014260
2011-09-26T14:18:22.864973,7790,-1.205191,-0.028099,-5.543192,-0.053618,-0.091187,1.013935
2011-09-26T14:18:22.874973,7800,-1.187293,0.047486,-5.530966,-0.053643,-0.092271,1.013610
2011-09-26T14:18:22.884973,7810,-1.169395,0.123070,-5.518740,-0.053668,-0.093355,1.013285
2011-09-26T14:18:22.894973,7820,-1.151497,0.198654,-5.506515,-0.053692,-0.094438,1.012960
2011-09-26T14:18:22.904973,7830,-1.133600,0.274238,-5.494289,-0.053717,-0.095522,1.012635
2011-09-26T14:18:22.914973,7840,-1.115702,0.349822,-5.482063,-0.053742,-0.096606,1.012310
2011-09-26T14:18:22.924973,7850,-1.097804,0.425406,-5.469837,-0.053766,-0.097690,1.011985
2011-09-26T14:18:22.934973,7860,-1.017325,0.484371,-5.454309,-0.054125,-0.097384,1.011312
2011-09-26T14:18:22.944973,7870,-0.935642,0.543015,-5.438718,-0.054490,-0.097050,1.010632
2011-09-26T14:18:22.954973,7880,-0.853958,0.601659,-5.423127,-0.054855,-0.096717,1.009952
2011-09-26T14:18:22.964973,7890,-0.772274,0.660303,-5.407536,-0.055219,-0.096384,1.009272
2011-09-26T14:18:22.974973,7900,-0.690590,0.718948,-5.391944,-0.055584,-0.096050,1.008593
2011-09-26T14:18:22.984973,7910,-0.608906,0.777592,-5.376353,-0.055949,-0.095717,1.007913
2011-09-26T14:18:22.994973,7920,-0.527222,0.836236,-5.360762,-0.056314,-0.095383,1.007233
2011-09-26T14:18:23.004973,7930,-0.445538,0.894880,-5.345171,-0.056679,-0.095050,1.006553
2011-09-26T14:18:23.014973,7940,-0.363854,0.953525,-5.329579,-0.057044,-0.094717,1.005874
2011-09-26T14:18:23.024973,7950,-0.282170,1.012169,-5.313988,-0.057409,-0.094383,1.005194
2011-09-26T14:18:23.034973,7960,-0.200487,1.070813,-5.298397,-0.057773,-0.094050,1.004514
2011-09-26T14:18:23.044973,7970,-0.170609,1.016952,-5.289932,-0.058599,-0.093270,1.001118
2011-09-26T14:18:23.054973,7980,-0.141707,0.960973,-5.281602,-0.059433,-0.092482,0.997670
2011-09-26T14:18:23.064973,7990,-0.112805,0.904993,-5.273272,-0.060268,-0.091694,0.994223
2011-09-26T14:18:23.074973,8000,-0.083903,0.849014,-5.264942,-0.061102,-0.090906,0.990775
2011-09-26T14:18:23.084973,8010,-0.055001,0.793035,-5.256611,-0.061936,-0.090118,0.987328
2011-09-26T14:18:23.094973,8020,-0.026099,0.737055,-5.248281,-0.062770,-0.089330,0.983880
2011-09-26T14:18:23.104973,8030,0.002803,0.681076,-5.239951,-0.063605,-0.088542,0.980433
2011-09-26T14:18:23.114973,8040,0.031706,0.625097,-5.231621,-0.064439,-0.087754,0.976985
2011-09-26T14:18:23.124973,8050,0.060608,0.569117,-5.223291,-0.065273,-0.086966,0.973538
2011-09-26T14:18:23.134973,8060,0.089510,0.513138,-5.214960,-0.066107,-0.086178,0.970090
2011-09-26T14:18:23.144973,8070,0.209065,0.455062,-5.197768,-0.066245,-0.086459,0.971440
2011-09-26T14:18:23.154973,8080,0.332219,0.396904,-5.180223,-0.066355,-0.086782,0.972981
2011-09-26T14:18:23.164973,8090,0.455374,0.338745,-5.162679,-0.066464,-0.087105,0.974521
2011-09-26T14:18:23.174973,8100,0.578528,0.280586,-5.145134,-0.066574,-0.087428,0.976062
2011-09-26T14:18:23.184973,8110,0.701682,0.222428,-5.127590,-0.066684,-0.087751,0.977603
2011-09-26T14:18:23.194973,8120,0.824837,0.164269,-5.110046,-0.066794,-0.088074,0.979143
2011-09-26T14:18:23.204973,8130,0.947991,0.106110,-5.092501,-0.066904,-0.088397,0.980684
2011-09-26T14:18:23.214973,8140,1.071145,0.047951,-5.074957,-0.067013,-0.088720,0.982224
2011-09-26T14:18:23.224973,8150,1.194300,-0.010207,-5.057412,-0.067123,-0.089043,0.983765
2011-09-26T14:18:23.234973,8160,1.317454,-0.068366,-5.039868,-0.067233,-0.089366,0.985306
2011-09-26T14:18:23.244973,8170,1.311531,-0.129317,-5.005032,-0.067639,-0.087413,0.987454
2011-09-26T14:18:23.254973,8180,1.302682,-0.190332,-4.969803,-0.068052,-0.085408,0.989616
2011-09-26T14:18:23.264973,8190,1.293834,-0.251347,-4.934575,-0.068465,-0.083403,0.991778
2011-09-26T14:18:23.274973,8200,1.284985,-0.312362,-4.899347,-0.068877,-0.081399,0.993940
2011-09-26T14:18:23.284973,8210,1.276136,-0.373377,-4.864119,-0.069290,-0.079394,0.996103
2011-09-26T14:18:23.294973,8220,1.267287,-0.434392,-4.828890,-0.069703,-0.077390,0.998265
2011-09-26T14:18:23.304973,8230,1.258438,-0.495407,-4.793662,-0.070115,-0.075385,1.000427
2011-09-26T14:18:23.314973,8240,1.249589,-0.556421,-4.758434,-0.070528,-0.073380,1.002589
2011-09-26T14:18:23.324973,8250,1.240740,-0.617436,-4.723205,-0.070941,-0.071376,1.004751
2011-09-26T14:18:23.334973,8260,1.231891,-0.678451,-4.687977,-0.071354,-0.069371,1.006913
2011-09-26T14:18:23.344973,8270,1.223043,-0.739466,-4.652749,-0.071766,-0.067366,1.009076
2011-09-26T14:18:23.354973,8280,1.218094,-0.670598,-4.596821,-0.071535,-0.067736,1.010194
2011-09-26T14:18:23.364973,8290,1.213238,-0.598676,-4.540406,-0.071289,-0.068161,1.011288
2011-09-26T14:18:23.374973,8300,1.208381,-0.526754,-4.483992,-0.071043,-0.068586,1.012383
2011-09-26T14:18:23.384973,8310,1.203524,-0.454832,-4.427577,-0.070797,-0.069012,1.013477
2011-09-26T14:18:23.394973,8320,1.198668,-0.382911,-4.371163,-0.070551,-0.069437,1.014571
2011-09-26T14:18:23.404973,8330,1.193811,-0.310989,-4.314748,-0.070305,-0.069862,1.015665
2011-09-26T14:18:23.414973,8340,1.188954,-0.239067,-4.258334,-0.070059,-0.070287,1.016759
2011-09-26T14:18:23.424973,8350,1.184098,-0.167145,-4.201919,-0.069813,-0.070713,1.017854
2011-09-26T14:18:23.434973,8360,1.179241,-0.095223,-4.145504,-0.069567,-0.071138,1.018948
2011-09-26T14:18:23.444973,8370,1.174384,-0.023301,-4.089090,-0.069321,-0.071563,1.020042
2011-09-26T14:18:23.454973,8380,1.157719,-0.029825,-4.045388,-0.068017,-0.069340,1.018890
2011-09-26T14:18:23.464973,8390,1.140782,-0.038153,-4.001979,-0.066689,-0.067055,1.017687
2011-09-26T14:18:23.474973,8400,1.123845,-0.046481,-3.958570,-0.065361,-0.064770,1.016484
2011-09-26T14:18:23.484973,8410,1.106908,-0.054809,-3.915161,-0.064033,-0.062486,1.015281
2011-09-26T14:18:23.494973,8420,1.089970,-0.063137,-3.871752,-0.062705,-0.060201,1.014078
2011-09-26T14:18:23.504973,8430,1.073033,-0.071465,-3.828343,-0.061377,-0.057916,1.012875
2011-09-26T14:18:23.514973,8440,1.056096,-0.079793,-3.784934,-0.060049,-0.055632,1.011672
2011-09-26T14:18:23.524973,8450,1.039159,-0.088121,-3.741525,-0.058721,-0.053347,1.010469
2011-09-26T14:18:23.534973,8460,1.022222,-0.096449,-3.698115,-0.057393,-0.051063,1.009266
2011-09-26T14:18:23.544973,8470,1.005285,-0.104777,-3.654706,-0.056065,-0.048778,1.008063
2011-09-26T14:18:23.554973,8480,0.997759,-0.053190,-3.629915,-0.055124,-0.047432,1.006213
2011-09-26T14:18:23.564973,8490,0.990469,-0.000105,-3.605588,-0.054194,-0.046109,1.004346
2011-09-26T14:18:23.574973,8500,0.983179,0.052980,-3.581262,-0.053263,-0.044787,1.002479
2011-09-26T14:18:23.584973,8510,0.975889,0.106064,-3.556936,-0.052332,-0.043464,1.000613
2011-09-26T14:18:23.594973,8520,0.968598,0.159149,-3.532610,-0.051402,-0.042142,0.998746
2011-09-26T14:18:23.604973,8530,0.961308,0.212233,-3.508283,-0.050471,-0.040819,0.996880
2011-09-26T14:18:23.614973,8540,0.954018,0.265318,-3.483957,-0.049541,-0.039497,0.995013
2011-09-26T14:18:23.624973,8550,0.946728,0.318403,-3.459631,-0.048610,-0.038174,0.993147
2011-09-26T14:18:23.634973,8560,0.939438,0.371487,-3.435305,-0.047679,-0.036852,0.991280
2011-09-26T14:18:23.644973,8570,0.932147,0.424572,-3.410979,-0.046749,-0.035529,0.989413
2011-09-26T14:18:23.654973,8580,0.924857,0.477657,-3.386652,-0.045818,-0.034207,0.987547
2011-09-26T14:18:23.664973,8590,0.903993,0.511103,-3.345820,-0.046313,-0.033815,0.988879
2011-09-26T14:18:23.674973,8600,0.882726,0.543966,-3.304496,-0.046850,-0.033451,0.990307
2011-09-26T14:18:23.684973,8610,0.861459,0.576829,-3.263172,-0.047388,-0.033088,0.991734
2011-09-26T14:18:23.694973,8620,0.840191,0.609691,-3.221849,-0.047925,-0.032724,0.993161
2011-09-26T14:18:23.704973,8630,0.818924,0.642554,-3.180525,-0.048462,-0.032360,0.994589
2011-09-26T14:18:23.714973,8640,0.797657,0.675417,-3.139202,-0.048999,-0.031997,0.996016
2011-09-26T14:18:23.724973,8650,0.776389,0.708279,-3.097878,-0.049537,-0.031633,0.997444
2011-09-26T14:18:23.734973,8660,0.755122,0.741142,-3.056554,-0.050074,-0.031269,0.998871
2011-09-26T14:18:23.744973,8670,0.733854,0.774004,-3.015231,-0.050611,-0.030906,1.000298
2011-09-26T14:18:23.754973,8680,0.712587,0.806867,-2.973907,-0.051148,-0.030542,1.001726
2011-09-26T14:18:23.764973,8690,0.732522,0.793068,-2.945459,-0.051418,-0.030350,0.998643
2011-09-26T14:18:23.774973,8700,0.753564,0.778014,-2.917356,-0.051680,-0.030163,0.995439
2011-09-26T14:18:23.784973,8710,0.774607,0.762961,-2.889253,-0.051942,-0.029976,0.992234
2011-09-26T14:18:23.794973,8720,0.795649,0.747907,-2.861150,-0.052204,-0.029789,0.989030
2011-09-26T14:18:23.804973,8730,0.816691,0.732854,-2.833047,-0.052466,-0.029602,0.985826
2011-09-26T14:18:23.814973,8740,0.837733,0.717801,-2.804945,-0.052728,-0.029414,0.982622
2011-09-26T14:18:23.824973,8750,0.858776,0.702747,-2.776842,-0.052991,-0.029227,0.979417
2011-09-26T14:18:23.834973,8760,0.879818,0.687694,-2.748739,-0.053253,-0.029040,0.976213
2011-09-26T14:18:23.844973,8770,0.900860,0.672640,-2.720636,-0.053515,-0.028853,0.973009
2011-09-26T14:18:23.854973,8780,0.921902,0.657587,-2.692534,-0.053777,-0.028666,0.969805
2011-09-26T14:18:23.864973,8790,0.968947,0.544274,-2.669776,-0.054240,-0.027533,0.971180
2011-09-26T14:18:23.874973,8800,1.016637,0.428525,-2.647150,-0.054707,-0.026376,0.972669
2011-09-26T14:18:23.884973,8810,1.064326,0.312776,-2.624524,-0.055175,-0.025220,0.974157
2011-09-26T14:18:23.894973,8820,1.112016,0.197026,-2.601899,-0.055642,-0.024064,0.975646
2011-09-26T14:18:23.904973,8830,1.159706,0.081277,-2.579273,-0.056109,-0.022907,0.977135
2011-09-26T14:18:23.914973,8840,1.207395,-0.034472,-2.556647,-0.056577,-0.021751,0.978624
2011-09-26T14:18:23.924973,8850,1.255085,-0.150221,-2.534022,-0.057044,-0.020595,0.980113
2011-09-26T14:18:23.934973,8860,1.302775,-0.265970,-2.511396,-0.057512,-0.019439,0.981601
2011-09-26T14:18:23.944973,8870,1.350464,-0.381720,-2.488771,-0.057979,-0.018282,0.983090
2011-09-26T14:18:23.954973,8880,1.398154,-0.497469,-2.466145,-0.058447,-0.017126,0.984579
2011-09-26T14:18:23.964973,8890,1.445844,-0.613218,-2.443519,-0.058914,-0.015970,0.986068
2011-09-26T14:18:23.974973,8900,1.353495,-0.697321,-2.401805,-0.058516,-0.014580,0.988333
2011-09-26T14:18:23.984973,8910,1.256923,-0.780470,-2.359515,-0.058092,-0.013183,0.990622
2011-09-26T14:18:23.994973,8920,1.160351,-0.863618,-2.317224,-0.057668,-0.011786,0.992911
2011-09-26T14:18:24.004973,8930,1.063780,-0.946767,-2.274934,-0.057244,-0.010389,0.995199
2011-09-26T14:18:24.014973,8940,0.967208,-1.029916,-2.232644,-0.056819,-0.008992,0.997488
2011-09-26T14:18:24.024973,8950,0.870636,-1.113064,-2.190354,-0.056395,-0.007595,0.999777
2011-09-26T14:18:24.034973,8960,0.774064,-1.196213,-2.148064,-0.055971,-0.006198,1.002066
2011-09-26T14:18:24.044973,8970,0.677493,-1.279362,-2.105774,-0.055547,-0.004801,1.004354
2011-09-26T14:18:24.054973,8980,0.580921,-1.362510,-2.063483,-0.055123,-0.003404,1.006643
2011-09-26T14:18:24.064973,8990,0.484349,-1.445659,-2.021193,-0.054699,-0.002007,1.008932
2011-09-26T14:18:24.074973,9000,0.497360,-1.460797,-1.991109,-0.053829,-0.002898,1.009574
2011-09-26T14:18:24.084973,9010,0.514710,-1.473241,-1.961508,-0.052943,-0.003880,1.010151
2011-09-26T14:18:24.094973,9020,0.532060,-1.485686,-1.931906,-0.052056,-0.004862,1.010729
2011-09-26T14:18:24.104973,9030,0.549410,-1.498130,-1.902305,-0.051169,-0.005843,1.011306
2011-09-26T14:18:24.114973,9040,0.566759,-1.510575,-1.872704,-0.050282,-0.006825,1.011883
2011-09-26T14:18:24.124973,9050,0.584109,-1.523020,-1.843103,-0.049395,-0.007807,1.012460
2011-09-26T14:18:24.134973,9060,0.601459,-1.535464,-1.813502,-0.048508,-0.008788,1.013037
2011-09-26T14:18:24.144973,9070,0.618809,-1.547909,-1.783901,-0.047621,-0.009770,1.013614
2011-09-26T14:18:24.154973,9080,0.636159,-1.560353,-1.754300,-0.046734,-0.010752,1.014191
2011-09-26T14:18:24.164973,9090,0.653508,-1.572798,-1.724698,-0.045847,-0.011733,1.014769
2011-09-26T14:18:24.174973,9100,0.608000,-1.473213,-1.674394,-0.045554,-0.009537,1.016645
2011-09-26T14:18:24.184973,9110,0.559281,-1.367906,-1.623032,-0.045291,-0.007178,1.018589
2011-09-26T14:18:24.194973,9120,0.510562,-1.262600,-1.571671,-0.045028,-0.004819,1.020532
2011-09-26T14:18:24.204973,9130,0.461844,-1.157294,-1.520309,-0.044765,-0.002460,1.022476
2011-09-26T14:18:24.214973,9140,0.413125,-1.051988,-1.468948,-0.044502,-0.000101,1.024419
2011-09-26T14:18:24.224973,9150,0.364406,-0.946682,-1.417586,-0.044238,0.002258,1.026362
2011-09-26T14:18:24.234973,9160,0.315688,-0.841376,-1.366225,-0.043975,0.004617,1.028306
2011-09-26T14:18:24.244973,9170,0.266969,-0.736070,-1.314863,-0.043712,0.006976,1.030249
2011-09-26T14:18:24.254973,9180,0.218250,-0.630764,-1.263501,-0.043449,0.009335,1.032192
2011-09-26T14:18:24.264973,9190,0.169532,-0.525457,-1.212140,-0.043186,0.011694,1.034136
2011-09-26T14:18:24.274973,9200,0.120813,-0.420151,-1.160778,-0.042923,0.014053,1.036079
2011-09-26T14:18:24.284973,9210,0.073844,-0.266052,-1.131071,-0.042801,0.015711,1.034494
2011-09-26T14:18:24.294973,9220,0.026924,-0.110599,-1.101964,-0.042682,0.017349,1.032811
2011-09-26T14:18:24.304973,9230,-0.019996,0.044854,-1.072858,-0.042564,0.018988,1.031129
2011-09-26T14:18:24.314973,9240,-0.066916,0.200307,-1.043752,-0.042445,0.020626,1.029446
2011-09-26T14:18:24.324973,9250,-0.113836,0.355760,-1.014645,-0.042327,0.022265,1.027763
2011-09-26T14:18:24.334973,9260,-0.160756,0.511213,-0.985539,-0.042208,0.023903,1.026080
2011-09-26T14:18:24.344973,9270,-0.207676,0.666666,-0.956432,-0.042089,0.025542,1.024397
2011-09-26T14:18:24.354973,9280,-0.254596,0.822119,-0.927326,-0.041971,0.027180,1.022715
2011-09-26T14:18:24.364973,9290,-0.301516,0.977572,-0.898220,-0.041852,0.028819,1.021032
2011-09-26T14:18:24.374973,9300,-0.348436,1.133025,-0.869113,-0.041734,0.030457,1.019349
2011-09-26T14:18:24.384973,9310,-0.426974,1.144204,-0.802617,-0.043322,0.030646,1.014872
2011-09-26T14:18:24.394973,9320,-0.506455,1.151078,-0.735005,-0.044960,0.030790,1.010311
2011-09-26T14:18:24.404973,9330,-0.585937,1.157951,-0.667394,-0.046599,0.030935,1.005750
2011-09-26T14:18:24.414973,9340,-0.665418,1.164825,-0.599782,-0.048238,0.031080,1.001189
2011-09-26T14:18:24.424973,9350,-0.744899,1.171699,-0.532170,-0.049876,0.031225,0.996628
2011-09-26T14:18:24.434973,9360,-0.824381,1.178572,-0.464558,-0.051515,0.031370,0.992068
2011-09-26T14:18:24.444973,9370,-0.903862,1.185446,-0.396946,-0.053153,0.031515,0.987507
2011-09-26T14:18:24.454973,9380,-0.983343,1.192320,-0.329335,-0.054792,0.031660,0.982946
2011-09-26T14:18:24.464973,9390,-1.062825,1.199193,-0.261723,-0.056431,0.031805,0.978385
2011-09-26T14:18:24.474973,9400,-1.142306,1.206067,-0.194111,-0.058069,0.031949,0.973825
2011-09-26T14:18:24.484973,9410,-1.051922,1.035176,-0.166641,-0.058089,0.030722,0.973782
2011-09-26T14:18:24.494973,9420,-0.957183,0.859728,-0.140200,-0.058067,0.029459,0.973855
2011-09-26T14:18:24.504973,9430,-0.862444,0.684279,-0.113760,-0.058046,0.028196,0.973929
2011-09-26T14:18:24.514973,9440,-0.767705,0.508830,-0.087319,-0.058024,0.026933,0.974002
2011-09-26T14:18:24.524973,9450,-0.672966,0.333382,-0.060878,-0.058002,0.025670,0.974076
2011-09-26T14:18:24.534973,9460,-0.578227,0.157933,-0.034438,-0.057981,0.024407,0.974149
2011-09-26T14:18:24.544973,9470,-0.483488,-0.017515,-0.007997,-0.057959,0.023144,0.974222
2011-09-26T14:18:24.554973,9480,-0.388749,-0.192964,0.018444,-0.057937,0.021881,0.974296
2011-09-26T14:18:24.564973,9490,-0.294010,-0.368413,0.044884,-0.057916,0.020618,0.974369
2011-09-26T14:18:24.574973,9500,-0.199270,-0.543861,0.071325,-0.057894,0.019355,0.974443
2011-09-26T14:18:24.584973,9510,-0.104531,-0.719310,0.097765,-0.057872,0.018092,0.974516
2011-09-26T14:18:24.594973,9520,-0.108263,-0.826217,0.150459,-0.057018,0.020760,0.975452
2011-09-26T14:18:24.604973,9530,-0.117196,-0.929505,0.204539,-0.056120,0.023636,0.976434
2011-09-26T14:18:24.614973,9540,-0.126130,-1.032792,0.258619,-0.055222,0.026512,0.977416
2011-09-26T14:18:24.624973,9550,-0.135063,-1.136079,0.312699,-0.054324,0.029387,0.978397
2011-09-26T14:18:24.634973,9560,-0.143996,-1.239366,0.366779,-0.053425,0.032263,0.979379
2011-09-26T14:18:24.644973,9570,-0.152929,-1.342653,0.420859,-0.052527,0.035139,0.980361
2011-09-26T14:18:24.654973,9580,-0.161862,-1.445940,0.474939,-0.051629,0.038014,0.981343
2011-09-26T14:18:24.664973,9590,-0.170795,-1.549227,0.529019,-0.050731,0.040890,0.982324
2011-09-26T14:18:24.674973,9600,-0.179729,-1.652514,0.583099,-0.049833,0.043766,0.983306
2011-09-26T14:18:24.684973,9610,-0.188662,-1.755801,0.637179,-0.048934,0.046641,0.984288
2011-09-26T14:18:24.694973,9620,-0.206009,-1.734616,0.673984,-0.047843,0.046260,0.989365
2011-09-26T14:18:24.704973,9630,-0.223607,-1.709715,0.710274,-0.046746,0.045781,0.994564
2011-09-26T14:18:24.714973,9640,-0.241205,-1.684815,0.746564,-0.045650,0.045303,0.999763
2011-09-26T14:18:24.724973,9650,-0.258803,-1.659914,0.782854,-0.044553,0.044824,1.004962
2011-09-26T14:18:24.734973,9660,-0.276401,-1.635014,0.819144,-0.043456,0.044345,1.010161
2011-09-26T14:18:24.744973,9670,-0.294000,-1.610114,0.855434,-0.042359,0.043867,1.015360
2011-09-26T14:18:24.754973,9680,-0.311598,-1.585213,0.891724,-0.041262,0.043388,1.020559
2011-09-26T14:18:24.764973,9690,-0.329196,-1.560313,0.928014,-0.040165,0.042909,1.025758
2011-09-26T14:18:24.774973,9700,-0.346794,-1.535412,0.964304,-0.039068,0.042431,1.030957
2011-09-26T14:18:24.784973,9710,-0.364392,-1.510512,1.000593,-0.037972,0.041952,1.036157
2011-09-26T14:18:24.794973,9720,-0.365539,-1.358794,1.054074,-0.037075,0.042128,1.037870
2011-09-26T14:18:24.804973,9730,-0.366205,-1.203370,1.108056,-0.036185,0.042323,1.039482
2011-09-26T14:18:24.814973,9740,-0.366871,-1.047946,1.162039,-0.035295,0.042518,1.041094
2011-09-26T14:18:24.824973,9750,-0.367537,-0.892522,1.216021,-0.034405,0.042712,1.042706
2011-09-26T14:18:24.834973,9760,-0.368203,-0.737098,1.270004,-0.033514,0.042907,1.044317
2011-09-26T14:18:24.844973,9770,-0.368868,-0.581674,1.323986,-0.032624,0.043102,1.045929
2011-09-26T14:18:24.854973,9780,-0.369534,-0.426250,1.377969,-0.031734,0.043297,1.047541
2011-09-26T14:18:24.864973,9790,-0.370200,-0.270826,1.431952,-0.030844,0.043491,1.049153
2011-09-26T14:18:24.874973,9800,-0.370866,-0.115403,1.485934,-0.029954,0.043686,1.050765
2011-09-26T14:18:24.884973,9810,-0.371532,0.040021,1.539917,-0.029063,0.043881,1.052376
2011-09-26T14:18:24.894973,9820,-0.372198,0.195445,1.593899,-0.028173,0.044076,1.053988
2011-09-26T14:18:24.904973,9830,-0.331634,0.374596,1.623820,-0.028486,0.044920,1.049105
2011-09-26T14:18:24.914973,9840,-0.289726,0.554521,1.652956,-0.028838,0.045786,1.044010
2011-09-26T14:18:24.924973,9850,-0.247817,0.734447,1.682092,-0.029190,0.046652,1.038914
2011-09-26T14:18:24.934973,9860,-0.205909,0.914372,1.711228,-0.029541,0.047517,1.033819
2011-09-26T14:18:24.944973,9870,-0.164000,1.094297,1.740364,-0.029893,0.048383,1.028724
2011-09-26T14:18:24.954973,9880,-0.122092,1.274222,1.769500,-0.030245,0.049249,1.023629
2011-09-26T14:18:24.964973,9890,-0.080183,1.454147,1.798636,-0.030597,0.050114,1.018534
2011-09-26T14:18:24.974973,9900,-0.038275,1.634072,1.827772,-0.030949,0.050980,1.013439
2011-09-26T14:18:24.984973,9910,0.003634,1.813997,1.856908,-0.031301,0.051846,1.008343
2011-09-26T14:18:24.994973,9920,0.045542,1.993922,1.886044,-0.031653,0.052712,1.003248
2011-09-26T14:18:25.004973,9930,0.058403,2.042660,1.906957,-0.032873,0.054391,1.000668
2011-09-26T14:18:25.014973,9940,0.070428,2.087619,1.927633,-0.034118,0.056094,0.998160
2011-09-26T14:18:25.024973,9950,0.082452,2.132578,1.948310,-0.035363,0.057796,0.995652
2011-09-26T14:18:25.034973,9960,0.094477,2.177537,1.968986,-0.036608,0.059499,0.993144
2011-09-26T14:18:25.044973,9970,0.106501,2.222496,1.989662,-0.037853,0.061202,0.990636
2011-09-26T14:18:25.054973,9980,0.118526,2.267455,2.010338,-0.039098,0.062904,0.988128
2011-09-26T14:18:25.064973,9990,0.130550,2.312413,2.031014,-0.040343,0.064607,0.985620
2011-09-26T14:18:25.074973,10000,0.142575,2.357372,2.051690,-0.041589,0.066310,0.983112
2011-09-26T14:18:25.084973,10010,0.154599,2.402331,2.072366,-0.042834,0.068012,0.980604
2011-09-26T14:18:25.094973,10020,0.166624,2.447290,2.093043,-0.044079,0.069715,0.978096
2011-09-26T14:18:25.104973,10030,0.119223,2.366878,2.118115,-0.044857,0.070111,0.974856
2011-09-26T14:18:25.114973,10040,0.068861,2.280216,2.143406,-0.045612,0.070441,0.971579
2011-09-26T14:18:25.124973,10050,0.018498,2.193554,2.168697,-0.046367,0.070771,0.968302
2011-09-26T14:18:25.134973,10060,-0.031865,2.106893,2.193989,-0.047122,0.071102,0.965026
2011-09-26T14:18:25.144973,10070,-0.082227,2.020231,2.219280,-0.047877,0.071432,0.961749
2011-09-26T14:18:25.154973,10080,-0.132590,1.933569,2.244571,-0.048632,0.071763,0.958473
2011-09-26T14:18:25.164973,10090,-0.182953,1.846907,2.269863,-0.049387,0.072093,0.955196
2011-09-26T14:18:25.174973,10100,-0.233315,1.760245,2.295154,-0.050142,0.072423,0.951919
2011-09-26T14:18:25.184973,10110,-0.283678,1.673583,2.320445,-0.050897,0.072754,0.948643
2011-09-26T14:18:25.194973,10120,-0.334040,1.586922,2.345737,-0.051652,0.073084,0.945366
2011-09-26T14:18:25.204973,10130,-0.384403,1.500260,2.371028,-0.052407,0.073414,0.942089
2011-09-26T14:18:25.214973,10140,-0.320354,1.392943,2.393429,-0.052097,0.073056,0.943071
2011-09-26T14:18:25.224973,10150,-0.252549,1.284949,2.415735,-0.051752,0.072674,0.944193
2011-09-26T14:18:25.234973,10160,-0.184744,1.176955,2.438041,-0.051407,0.072293,0.945315
2011-09-26T14:18:25.244973,10170,-0.116938,1.068960,2.460347,-0.051062,0.071912,0.946436
2011-09-26T14:18:25.254973,10180,-0.049133,0.960966,2.482653,-0.050717,0.071530,0.947558
2011-09-26T14:18:25.264973,10190,0.018672,0.852971,2.504959,-0.050372,0.071149,0.948680
2011-09-26T14:18:25.274973,10200,0.086478,0.744977,2.527265,-0.050027,0.070768,0.949802
2011-09-26T14:18:25.284973,10210,0.154283,0.636982,2.549571,-0.049682,0.070386,0.950923
2011-09-26T14:18:25.294973,10220,0.222088,0.528988,2.571877,-0.049337,0.070005,0.952045
2011-09-26T14:18:25.304973,10230,0.289893,0.420993,2.594182,-0.048992,0.069624,0.953167
2011-09-26T14:18:25.314973,10240,0.306791,0.329273,2.608468,-0.048738,0.070246,0.956061
2011-09-26T14:18:25.324973,10250,0.322208,0.238025,2.622520,-0.048488,0.070899,0.959006
2011-09-26T14:18:25.334973,10260,0.337625,0.146778,2.636572,-0.048237,0.071551,0.961952
2011-09-26T14:18:25.344973,10270,0.353042,0.055531,2.650624,-0.047987,0.072203,0.964898
2011-09-26T14:18:25.354973,10280,0.368459,-0.035716,2.664676,-0.047736,0.072855,0.967843
2011-09-26T14:18:25.364973,10290,0.383876,-0.126964,2.678728,-0.047485,0.073507,0.970789
2011-09-26T14:18:25.374973,10300,0.399293,-0.218211,2.692780,-0.047235,0.074159,0.973734
2011-09-26T14:18:25.384973,10310,0.414709,-0.309458,2.706831,-0.046984,0.074811,0.976680
2011-09-26T14:18:25.394973,10320,0.430126,-0.400705,2.720883,-0.046734,0.075463,0.979626
2011-09-26T14:18:25.404973,10330,0.445543,-0.491953,2.734935,-0.046483,0.076115,0.982571
2011-09-26T14:18:25.414973,10340,0.420432,-0.525606,2.727625,-0.045866,0.076847,0.985233
2011-09-26T14:18:25.424973,10350,0.394054,-0.557459,2.719647,-0.045237,0.077581,0.987885
2011-09-26T14:18:25.434973,10360,0.367677,-0.589313,2.711670,-0.044608,0.078316,0.990538
2011-09-26T14:18:25.444973,10370,0.341299,-0.621166,2.703692,-0.043980,0.079050,0.993191
2011-09-26T14:18:25.454973,10380,0.314922,-0.653020,2.695714,-0.043351,0.079784,0.995843
2011-09-26T14:18:25.464973,10390,0.288544,-0.684873,2.687737,-0.042722,0.080519,0.998496
2011-09-26T14:18:25.474973,10400,0.262167,-0.716727,2.679759,-0.042094,0.081253,1.001148
2011-09-26T14:18:25.484973,10410,0.235789,-0.748580,2.671781,-0.041465,0.081988,1.003801
2011-09-26T14:18:25.494973,10420,0.209411,-0.780434,2.663803,-0.040836,0.082722,1.006454
2011-09-26T14:18:25.504973,10430,0.183034,-0.812288,2.655826,-0.040208,0.083457,1.009106
2011-09-26T14:18:25.514973,10440,0.156656,-0.844141,2.647848,-0.039579,0.084191,1.011759
2011-09-26T14:18:25.524973,10450,0.158181,-0.818901,2.636429,-0.039239,0.083754,1.012123
2011-09-26T14:18:25.534973,10460,0.160627,-0.791774,2.624897,-0.038909,0.083279,1.012411
2011-09-26T14:18:25.544973,10470,0.163074,-0.764648,2.613364,-0.038579,0.082803,1.012699
2011-09-26T14:18:25.554973,10480,0.165520,-0.737521,2.601832,-0.038248,0.082328,1.012987
2011-09-26T14:18:25.564973,10490,0.167966,-0.710395,2.590300,-0.037918,0.081852,1.013275
2011-09-26T14:18:25.574973,10500,0.170413,-0.683268,2.578767,-0.037588,0.081377,1.013564
2011-09-26T14:18:25.584973,10510,0.172859,-0.656141,2.567235,-0.037258,0.080901,1.013852
2011-09-26T14:18:25.594973,10520,0.175305,-0.629015,2.555702,-0.036927,0.080425,1.014140
2011-09-26T14:18:25.604973,10530,0.177752,-0.601888,2.544170,-0.036597,0.079950,1.014428
2011-09-26T14:18:25.614973,10540,0.180198,-0.574762,2.532637,-0.036267,0.079474,1.014716
2011-09-26T14:18:25.624973,10550,0.152669,-0.494338,2.555177,-0.036382,0.078789,1.015184
2011-09-26T14:18:25.634973,10560,0.123615,-0.411205,2.579450,-0.036519,0.078093,1.015660
2011-09-26T14:18:25.644973,10570,0.094561,-0.328072,2.603722,-0.036657,0.077398,1.016137
2011-09-26T14:18:25.654973,10580,0.065507,-0.244939,2.627995,-0.036794,0.076702,1.016614
2011-09-26T14:18:25.664973,10590,0.036454,-0.161806,2.652268,-0.036932,0.076006,1.017091
2011-09-26T14:18:25.674973,10600,0.007400,-0.078672,2.676540,-0.037069,0.075310,1.017567
2011-09-26T14:18:25.684973,10610,-0.021654,0.004461,2.700813,-0.037206,0.074615,1.018044
2011-09-26T14:18:25.694973,10620,-0.050708,0.087594,2.725085,-0.037344,0.073919,1.018521
2011-09-26T14:18:25.704973,10630,-0.079761,0.170727,2.749358,-0.037481,0.073223,1.018998
2011-09-26T14:18:25.714973,10640,-0.108815,0.253860,2.773630,-0.037619,0.072527,1.019474
2011-09-26T14:18:25.724973,10650,-0.073353,0.293243,2.774578,-0.037890,0.072403,1.017782
2011-09-26T14:18:25.734973,10660,-0.035606,0.331076,2.774700,-0.038166,0.072299,1.016014
2011-09-26T14:18:25.744973,10670,0.002142,0.368908,2.774822,-0.038443,0.072194,1.014245
2011-09-26T14:18:25.754973,10680,0.039889,0.406741,2.774945,-0.038719,0.072090,1.012476
2011-09-26T14:18:25.764973,10690,0.077636,0.444574,2.775067,-0.038995,0.071986,1.010708
2011-09-26T14:18:25.774973,10700,0.115383,0.482407,2.775189,-0.039271,0.071882,1.008939
2011-09-26T14:18:25.784973,10710,0.153130,0.520240,2.775311,-0.039547,0.071778,1.007170
2011-09-26T14:18:25.794973,10720,0.190877,0.558072,2.775433,-0.039824,0.071673,1.005402
2011-09-26T14:18:25.804973,10730,0.228625,0.595905,2.775555,-0.040100,0.071569,1.003633
2011-09-26T14:18:25.814973,10740,0.266372,0.633738,2.775677,-0.040376,0.071465,1.001864
2011-09-26T14:18:25.824973,10750,0.304119,0.671571,2.775799,-0.040652,0.071361,1.000096
2011-09-26T14:18:25.834973,10760,0.316007,0.687281,2.779661,-0.041379,0.071935,0.996745
2011-09-26T14:18:25.844973,10770,0.326993,0.702221,2.783654,-0.042122,0.072533,0.993339
2011-09-26T14:18:25.854973,10780,0.337979,0.717160,2.787646,-0.042865,0.073131,0.989933
2011-09-26T14:18:25.864973,10790,0.348965,0.732099,2.791639,-0.043608,0.073729,0.986527
2011-09-26T14:18:25.874973,10800,0.359952,0.747038,2.795631,-0.044351,0.074327,0.983122
2011-09-26T14:18:25.884973,10810,0.370938,0.761978,2.799624,-0.045094,0.074926,0.979716
2011-09-26T14:18:25.894973,10820,0.381924,0.776917,2.803617,-0.045837,0.075524,0.976310
2011-09-26T14:18:25.904973,10830,0.392910,0.791856,2.807609,-0.046580,0.076122,0.972904
2011-09-26T14:18:25.914973,10840,0.403897,0.806795,2.811602,-0.047323,0.076720,0.969498
2011-09-26T14:18:25.924973,10850,0.414883,0.821735,2.815594,-0.048066,0.077318,0.966092
2011-09-26T14:18:25.934973,10860,0.445821,0.717116,2.813883,-0.047582,0.077743,0.967880
2011-09-26T14:18:25.944973,10870,0.477500,0.608059,2.811959,-0.047053,0.078162,0.969860
2011-09-26T14:18:25.954973,10880,0.509179,0.499003,2.810036,-0.046524,0.078581,0.971840
2011-09-26T14:18:25.964973,10890,0.540859,0.389946,2.808113,-0.045995,0.079000,0.973821
2011-09-26T14:18:25.974973,10900,0.572538,0.280890,2.806189,-0.045465,0.079419,0.975801
2011-09-26T14:18:25.984973,10910,0.604217,0.171833,2.804266,-0.044936,0.079837,0.977781
2011-09-26T14:18:25.994973,10920,0.635896,0.062777,2.802343,-0.044407,0.080256,0.979762
2011-09-26T14:18:26.004973,10930,0.667575,-0.046280,2.800419,-0.043877,0.080675,0.981742
2011-09-26T14:18:26.014973,10940,0.699254,-0.155337,2.798496,-0.043348,0.081094,0.983722
2011-09-26T14:18:26.024973,10950,0.730933,-0.264393,2.796573,-0.042819,0.081513,0.985703
2011-09-26T14:18:26.034973,10960,0.588533,-0.315989,2.799673,-0.042633,0.081691,0.986527
2011-09-26T14:18:26.044973,10970,0.439483,-0.365390,2.802966,-0.042461,0.081860,0.987308
2011-09-26T14:18:26.054973,10980,0.290434,-0.414792,2.806259,-0.042289,0.082029,0.988088
2011-09-26T14:18:26.064973,10990,0.141385,-0.464193,2.809551,-0.042116,0.082198,0.988869
2011-09-26T14:18:26.074973,11000,-0.007665,-0.513594,2.812844,-0.041944,0.082367,0.989649
2011-09-26T14:18:26.084973,11010,-0.156714,-0.562995,2.816137,-0.041772,0.082536,0.990429
2011-09-26T14:18:26.094973,11020,-0.305764,-0.612396,2.819429,-0.041600,0.082705,0.991210
2011-09-26T14:18:26.104973,11030,-0.454813,-0.661798,2.822722,-0.041427,0.082874,0.991990
2011-09-26T14:18:26.114973,11040,-0.603863,-0.711199,2.826015,-0.041255,0.083043,0.992771
2011-09-26T14:18:26.124973,11050,-0.752912,-0.760600,2.829308,-0.041083,0.083212,0.993551
2011-09-26T14:18:26.134973,11060,-0.901961,-0.810001,2.832600,-0.040910,0.083381,0.994332
2011-09-26T14:18:26.144973,11070,-0.707489,-0.817174,2.791681,-0.039329,0.081351,0.995507
2011-09-26T14:18:26.154973,11080,-0.494491,-0.822069,2.748378,-0.037672,0.079203,0.996703
2011-09-26T14:18:26.164973,11090,-0.281492,-0.826964,2.705075,-0.036014,0.077054,0.997899
2011-09-26T14:18:26.174973,11100,-0.068493,-0.831859,2.661772,-0.034357,0.074906,0.999095
2011-09-26T14:18:26.184973,11110,0.144506,-0.836754,2.618469,-0.032700,0.072757,1.000291
2011-09-26T14:18:26.194973,11120,0.357504,-0.841649,2.575166,-0.031042,0.070609,1.001487
2011-09-26T14:18:26.204973,11130,0.570503,-0.846544,2.531862,-0.029385,0.068461,1.002684
2011-09-26T14:18:26.214973,11140,0.783502,-0.851439,2.488559,-0.027727,0.066312,1.003880
2011-09-26T14:18:26.224973,11150,0.996501,-0.856334,2.445256,-0.026070,0.064164,1.005076
2011-09-26T14:18:26.234973,11160,1.209499,-0.861229,2.401953,-0.024413,0.062015,1.006272
2011-09-26T14:18:26.244973,11170,1.011098,-0.680653,2.373789,-0.024920,0.068479,1.005314
2011-09-26T14:18:26.254973,11180,0.798890,-0.493852,2.346133,-0.025501,0.075231,1.004283
2011-09-26T14:18:26.264973,11190,0.586681,-0.307051,2.318478,-0.026081,0.081984,1.003252
2011-09-26T14:18:26.274973,11200,0.374473,-0.120250,2.290822,-0.026662,0.088737,1.002222
2011-09-26T14:18:26.284973,11210,0.162265,0.066551,2.263166,-0.027242,0.095489,1.001191
2011-09-26T14:18:26.294973,11220,-0.049943,0.253352,2.235510,-0.027822,0.102242,1.000160
2011-09-26T14:18:26.304973,11230,-0.262152,0.440153,2.207854,-0.028403,0.108994,0.999129
2011-09-26T14:18:26.314973,11240,-0.474360,0.626954,2.180199,-0.028983,0.115747,0.998099
2011-09-26T14:18:26.324973,11250,-0.686568,0.813755,2.152543,-0.029564,0.122499,0.997068
2011-09-26T14:18:26.334973,11260,-0.898776,1.000556,2.124887,-0.030144,0.129252,0.996037
2011-09-26T14:18:26.344973,11270,-0.936322,1.039154,2.068282,-0.031492,0.122371,0.998096
2011-09-26T14:18:26.354973,11280,-0.968000,1.072774,2.010705,-0.032867,0.115032,1.000259
2011-09-26T14:18:26.364973,11290,-0.999679,1.106394,1.953127,-0.034241,0.107693,1.002423
2011-09-26T14:18:26.374973,11300,-1.031358,1.140014,1.895550,-0.035615,0.100355,1.004586
2011-09-26T14:18:26.384973,11310,-1.063036,1.173634,1.837972,-0.036990,0.093016,1.006749
2011-09-26T14:18:26.394973,11320,-1.094715,1.207254,1.780395,-0.038364,0.085677,1.008912
2011-09-26T14:18:26.404973,11330,-1.126394,1.240874,1.722818,-0.039739,0.078338,1.011075
2011-09-26T14:18:26.414973,11340,-1.158073,1.274494,1.665240,-0.041113,0.070999,1.013238
2011-09-26T14:18:26.424973,11350,-1.189751,1.308114,1.607663,-0.042487,0.063660,1.015401
2011-09-26T14:18:26.434973,11360,-1.221430,1.341734,1.550086,-0.043862,0.056321,1.017564
2011-09-26T14:18:26.444973,11370,-1.253109,1.375354,1.492508,-0.045236,0.048983,1.019727
2011-09-26T14:18:26.454973,11380,-1.195473,1.323975,1.484518,-0.046685,0.048810,1.006530
2011-09-26T14:18:26.464973,11390,-1.134598,1.269514,1.478325,-0.048136,0.048898,0.992777
2011-09-26T14:18:26.474973,11400,-1.073724,1.215053,1.472132,-0.049588,0.048986,0.979023
2011-09-26T14:18:26.484973,11410,-1.012850,1.160592,1.465940,-0.051040,0.049074,0.965270
2011-09-26T14:18:26.494973,11420,-0.951976,1.106131,1.459747,-0.052491,0.049161,0.951517
2011-09-26T14:18:26.504973,11430,-0.891102,1.051670,1.453554,-0.053943,0.049249,0.937763
2011-09-26T14:18:26.514973,11440,-0.830228,0.997209,1.447361,-0.055395,0.049337,0.924010
2011-09-26T14:18:26.524973,11450,-0.769353,0.942748,1.441169,-0.056846,0.049425,0.910256
2011-09-26T14:18:26.534973,11460,-0.708479,0.888287,1.434976,-0.058298,0.049512,0.896503
2011-09-26T14:18:26.544973,11470,-0.647605,0.833826,1.428783,-0.059749,0.049600,0.882749
2011-09-26T14:18:26.554973,11480,-0.643561,0.599755,1.391213,-0.057773,0.050828,0.894975
2011-09-26T14:18:26.564973,11490,-0.641540,0.359289,1.352527,-0.055674,0.052096,0.908125
2011-09-26T14:18:26.574973,11500,-0.639520,0.118824,1.313840,-0.053576,0.053365,0.921275
2011-09-26T14:18:26.584973,11510,-0.637499,-0.121641,1.275153,-0.051477,0.054633,0.934425
2011-09-26T14:18:26.594973,11520,-0.635478,-0.362107,1.236466,-0.049379,0.055902,0.947576
2011-09-26T14:18:26.604973,11530,-0.633457,-0.602572,1.197779,-0.047280,0.057170,0.960726
2011-09-26T14:18:26.614973,11540,-0.631436,-0.843037,1.159093,-0.045182,0.058439,0.973876
2011-09-26T14:18:26.624973,11550,-0.629415,-1.083502,1.120406,-0.043083,0.059707,0.987026
2011-09-26T14:18:26.634973,11560,-0.627395,-1.323968,1.081719,-0.040985,0.060976,1.000176
2011-09-26T14:18:26.644973,11570,-0.625374,-1.564433,1.043032,-0.038886,0.062244,1.013327
2011-09-26T14:18:26.654973,11580,-0.623353,-1.804898,1.004346,-0.036788,0.063512,1.026477
2011-09-26T14:18:26.664973,11590,-0.656973,-1.745184,1.000989,-0.036424,0.062163,1.029157
2011-09-26T14:18:26.674973,11600,-0.692020,-1.673449,0.999047,-0.036129,0.060710,1.031418
2011-09-26T14:18:26.684973,11610,-0.727068,-1.601715,0.997104,-0.035835,0.059256,1.033680
2011-09-26T14:18:26.694973,11620,-0.762115,-1.529981,0.995162,-0.035540,0.057802,1.035941
2011-09-26T14:18:26.704973,11630,-0.797162,-1.458246,0.993220,-0.035246,0.056348,1.038202
2011-09-26T14:18:26.714973,11640,-0.832209,-1.386512,0.991278,-0.034951,0.054894,1.040463
2011-09-26T14:18:26.724973,11650,-0.867256,-1.314777,0.989335,-0.034656,0.053440,1.042724
2011-09-26T14:18:26.734973,11660,-0.902304,-1.243043,0.987393,-0.034362,0.051986,1.044986
2011-09-26T14:18:26.744973,11670,-0.937351,-1.171309,0.985451,-0.034067,0.050533,1.047247
2011-09-26T14:18:26.754973,11680,-0.972398,-1.099574,0.983509,-0.033773,0.049079,1.049508
2011-09-26T14:18:26.764973,11690,-0.954779,-1.010709,0.971948,-0.033551,0.047545,1.048473
2011-09-26T14:18:26.774973,11700,-0.935266,-0.921229,0.960043,-0.033331,0.046009,1.047319
2011-09-26T14:18:26.784973,11710,-0.915754,-0.831748,0.948137,-0.033111,0.044472,1.046165
2011-09-26T14:18:26.794973,11720,-0.896242,-0.742268,0.936231,-0.032892,0.042936,1.045011
2011-09-26T14:18:26.804973,11730,-0.876730,-0.652787,0.924325,-0.032672,0.041399,1.043857
2011-09-26T14:18:26.814973,11740,-0.857217,-0.563307,0.912419,-0.032452,0.039863,1.042703
2011-09-26T14:18:26.824973,11750,-0.837705,-0.473826,0.900514,-0.032233,0.038326,1.041549
2011-09-26T14:18:26.834973,11760,-0.818193,-0.384346,0.888608,-0.032013,0.036790,1.040395
2011-09-26T14:18:26.844973,11770,-0.798681,-0.294865,0.876702,-0.031793,0.035253,1.039241
2011-09-26T14:18:26.854973,11780,-0.779169,-0.205385,0.864796,-0.031574,0.033717,1.038087
2011-09-26T14:18:26.864973,11790,-0.775757,-0.119804,0.854740,-0.031599,0.033732,1.033754
2011-09-26T14:18:26.874973,11800,-0.772989,-0.034380,0.844759,-0.031634,0.033810,1.029293
2011-09-26T14:18:26.884973,11810,-0.770222,0.051045,0.834777,-0.031669,0.033888,1.024833
2011-09-26T14:18:26.894973,11820,-0.767454,0.136470,0.824796,-0.031704,0.033965,1.020372
2011-09-26T14:18:26.904973,11830,-0.764687,0.221894,0.814814,-0.031739,0.034043,1.015912
2011-09-26T14:18:26.914973,11840,-0.761919,0.307319,0.804832,-0.031774,0.034121,1.011451
2011-09-26T14:18:26.924973,11850,-0.759152,0.392744,0.794851,-0.031809,0.034199,1.006991
2011-09-26T14:18:26.934973,11860,-0.756384,0.478168,0.784869,-0.031844,0.034276,1.002530
2011-09-26T14:18:26.944973,11870,-0.753616,0.563593,0.774887,-0.031879,0.034354,0.998070
2011-09-26T14:18:26.954973,11880,-0.750849,0.649018,0.764906,-0.031914,0.034432,0.993609
2011-09-26T14:18:26.964973,11890,-0.692752,0.681950,0.736292,-0.032988,0.034587,0.993688
2011-09-26T14:18:26.974973,11900,-0.632338,0.712684,0.706897,-0.034106,0.034745,0.993956
2011-09-26T14:18:26.984973,11910,-0.571924,0.743418,0.677503,-0.035224,0.034903,0.994224
2011-09-26T14:18:26.994973,11920,-0.511510,0.774152,0.648108,-0.036342,0.035062,0.994493
2011-09-26T14:18:27.004973,11930,-0.451097,0.804886,0.618714,-0.037460,0.035220,0.994761
2011-09-26T14:18:27.014973,11940,-0.390683,0.835621,0.589320,-0.038578,0.035378,0.995029
2011-09-26T14:18:27.024973,11950,-0.330269,0.866355,0.559925,-0.039696,0.035537,0.995298
2011-09-26T14:18:27.034973,11960,-0.269855,0.897089,0.530531,-0.040815,0.035695,0.995566
2011-09-26T14:18:27.044973,11970,-0.209441,0.927823,0.501136,-0.041933,0.035853,0.995834
2011-09-26T14:18:27.054973,11980,-0.149028,0.958557,0.471742,-0.043051,0.036011,0.996103
2011-09-26T14:18:27.064973,11990,-0.088614,0.989292,0.442348,-0.044169,0.036170,0.996371
2011-09-26T14:18:27.074973,12000,-0.086905,0.914939,0.407224,-0.044437,0.035267,0.993598
2011-09-26T14:18:27.084973,12010,-0.089083,0.833631,0.371722,-0.044649,0.034293,0.990623
2011-09-26T14:18:27.094973,12020,-0.091260,0.752322,0.336220,-0.044861,0.033320,0.987648
2011-09-26T14:18:27.104973,12030,-0.093438,0.671013,0.300717,-0.045073,0.032347,0.984673
2011-09-26T14:18:27.114973,12040,-0.095615,0.589705,0.265215,-0.045285,0.031373,0.981698
2011-09-26T14:18:27.124973,12050,-0.097793,0.508396,0.229713,-0.045497,0.030400,0.978724
2011-09-26T14:18:27.134973,12060,-0.099970,0.427087,0.194211,-0.045709,0.029427,0.975749
2011-09-26T14:18:27.144973,12070,-0.102148,0.345779,0.158708,-0.045921,0.028454,0.972774
2011-09-26T14:18:27.154973,12080,-0.104325,0.264470,0.123206,-0.046133,0.027480,0.969799
2011-09-26T14:18:27.164973,12090,-0.106503,0.183161,0.087704,-0.046345,0.026507,0.966825
2011-09-26T14:18:27.174973,12100,-0.286674,0.054100,0.059957,-0.046791,0.029614,0.967454
2011-09-26T14:18:27.184973,12110,-0.477161,-0.077730,0.032660,-0.047250,0.032958,0.968292
2011-09-26T14:18:27.194973,12120,-0.667648,-0.209559,0.005363,-0.047710,0.036301,0.969131
2011-09-26T14:18:27.204973,12130,-0.858136,-0.341389,-0.021934,-0.048169,0.039645,0.969969
2011-09-26T14:18:27.214973,12140,-1.048623,-0.473218,-0.049231,-0.048629,0.042988,0.970807
2011-09-26T14:18:27.224973,12150,-1.239111,-0.605047,-0.076528,-0.049088,0.046332,0.971645
2011-09-26T14:18:27.234973,12160,-1.429598,-0.736877,-0.103825,-0.049548,0.049675,0.972484
2011-09-26T14:18:27.244973,12170,-1.620086,-0.868706,-0.131122,-0.050007,0.053019,0.973322
2011-09-26T14:18:27.254973,12180,-1.810573,-1.000536,-0.158419,-0.050467,0.056362,0.974160
2011-09-26T14:18:27.264973,12190,-2.001060,-1.132365,-0.185716,-0.050926,0.059706,0.974999
2011-09-26T14:18:27.274973,12200,-2.020773,-1.241397,-0.242985,-0.049784,0.055989,0.976914
2011-09-26T14:18:27.284973,12210,-2.033133,-1.349446,-0.301545,-0.048572,0.051969,0.978875
2011-09-26T14:18:27.294973,12220,-2.045492,-1.457496,-0.360105,-0.047360,0.047948,0.980837
2011-09-26T14:18:27.304973,12230,-2.057851,-1.565546,-0.418665,-0.046148,0.043928,0.982799
2011-09-26T14:18:27.314973,12240,-2.070211,-1.673596,-0.477225,-0.044936,0.039907,0.984760
2011-09-26T14:18:27.324973,12250,-2.082570,-1.781646,-0.535785,-0.043725,0.035887,0.986722
2011-09-26T14:18:27.334973,12260,-2.094929,-1.889696,-0.594345,-0.042513,0.031866,0.988684
2011-09-26T14:18:27.344973,12270,-2.107288,-1.997745,-0.652905,-0.041301,0.027846,0.990645
2011-09-26T14:18:27.354973,12280,-2.119648,-2.105795,-0.711465,-0.040089,0.023825,0.992607
2011-09-26T14:18:27.364973,12290,-2.132007,-2.213845,-0.770025,-0.038877,0.019805,0.994568
2011-09-26T14:18:27.374973,12300,-2.144366,-2.321895,-0.828585,-0.037665,0.015784,0.996530
2011-09-26T14:18:27.384973,12310,-2.054493,-2.338000,-0.885931,-0.036258,0.014025,1.002215
2011-09-26T14:18:27.394973,12320,-1.960429,-2.350336,-0.943226,-0.034842,0.012359,1.008052
2011-09-26T14:18:27.404973,12330,-1.866364,-2.362672,-1.000522,-0.033427,0.010693,1.013889
2011-09-26T14:18:27.414973,12340,-1.772300,-2.375008,-1.057817,-0.032011,0.009026,1.019727
2011-09-26T14:18:27.424973,12350,-1.678236,-2.387344,-1.115112,-0.030595,0.007360,1.025564
2011-09-26T14:18:27.434973,12360,-1.584172,-2.399680,-1.172408,-0.029180,0.005694,1.031401
2011-09-26T14:18:27.444973,12370,-1.490107,-2.412015,-1.229703,-0.027764,0.004028,1.037238
2011-09-26T14:18:27.454973,12380,-1.396043,-2.424351,-1.286999,-0.026348,0.002362,1.043076
2011-09-26T14:18:27.464973,12390,-1.301979,-2.436687,-1.344294,-0.024933,0.000695,1.048913
2011-09-26T14:18:27.474973,12400,-1.207915,-2.449023,-1.401589,-0.023517,-0.000971,1.054750
2011-09-26T14:18:27.484973,12410,-1.254444,-2.251029,-1.496749,-0.024747,-0.003056,1.054197
2011-09-26T14:18:27.494973,12420,-1.306295,-2.045072,-1.593343,-0.026077,-0.005157,1.053403
2011-09-26T14:18:27.504973,12430,-1.358146,-1.839116,-1.689937,-0.027408,-0.007258,1.052608
2011-09-26T14:18:27.514973,12440,-1.409998,-1.633159,-1.786530,-0.028738,-0.009359,1.051813
2011-09-26T14:18:27.524973,12450,-1.461849,-1.427203,-1.883124,-0.030068,-0.011460,1.051018
2011-09-26T14:18:27.534973,12460,-1.513701,-1.221246,-1.979717,-0.031398,-0.013561,1.050224
2011-09-26T14:18:27.544973,12470,-1.565552,-1.015289,-2.076311,-0.032729,-0.015662,1.049429
2011-09-26T14:18:27.554973,12480,-1.617403,-0.809333,-2.172904,-0.034059,-0.017763,1.048634
2011-09-26T14:18:27.564973,12490,-1.669255,-0.603376,-2.269498,-0.035389,-0.019864,1.047839
2011-09-26T14:18:27.574973,12500,-1.721106,-0.397420,-2.366091,-0.036719,-0.021965,1.047045
2011-09-26T14:18:27.584973,12510,-1.686997,-0.223946,-2.413468,-0.036152,-0.021132,1.042585
2011-09-26T14:18:27.594973,12520,-1.647858,-0.052374,-2.457966,-0.035473,-0.020128,1.037911
2011-09-26T14:18:27.604973,12530,-1.608719,0.119199,-2.502463,-0.034794,-0.019124,1.033237
2011-09-26T14:18:27.614973,12540,-1.569580,0.290772,-2.546960,-0.034116,-0.018119,1.028562
2011-09-26T14:18:27.624973,12550,-1.530442,0.462344,-2.591458,-0.033437,-0.017115,1.023888
2011-09-26T14:18:27.634973,12560,-1.491303,0.633917,-2.635955,-0.032758,-0.016110,1.019214
2011-09-26T14:18:27.644973,12570,-1.452164,0.805490,-2.680452,-0.032080,-0.015106,1.014540
2011-09-26T14:18:27.654973,12580,-1.413025,0.977062,-2.724950,-0.031401,-0.014101,1.009866
2011-09-26T14:18:27.664973,12590,-1.373887,1.148635,-2.769447,-0.030722,-0.013097,1.005192
2011-09-26T14:18:27.674973,12600,-1.334748,1.320208,-2.813944,-0.030044,-0.012092,1.000517
2011-09-26T14:18:27.684973,12610,-1.295609,1.491780,-2.858442,-0.029365,-0.011088,0.995843
2011-09-26T14:18:27.694973,12620,-1.300915,1.440231,-2.892079,-0.030149,-0.018249,0.996918
2011-09-26T14:18:27.704973,12630,-1.308211,1.378688,-2.925231,-0.030999,-0.025776,0.998249
2011-09-26T14:18:27.714973,12640,-1.315508,1.317146,-2.958382,-0.031849,-0.033303,0.999581
2011-09-26T14:18:27.724973,12650,-1.322804,1.255603,-2.991533,-0.032698,-0.040830,1.000913
2011-09-26T14:18:27.734973,12660,-1.330100,1.194060,-3.024684,-0.033548,-0.048356,1.002245
2011-09-26T14:18:27.744973,12670,-1.337397,1.132517,-3.057835,-0.034398,-0.055883,1.003576
2011-09-26T14:18:27.754973,12680,-1.344693,1.070974,-3.090987,-0.035247,-0.063410,1.004908
2011-09-26T14:18:27.764973,12690,-1.351990,1.009431,-3.124138,-0.036097,-0.070937,1.006240
2011-09-26T14:18:27.774973,12700,-1.359286,0.947888,-3.157289,-0.036947,-0.078464,1.007572
2011-09-26T14:18:27.784973,12710,-1.366583,0.886345,-3.190440,-0.037797,-0.085991,1.008903
2011-09-26T14:18:27.794973,12720,-1.204606,0.753342,-3.247011,-0.037669,-0.085939,1.009708
2011-09-26T14:18:27.804973,12730,-1.034805,0.617035,-3.304664,-0.037496,-0.085536,1.010488
2011-09-26T14:18:27.814973,12740,-0.865003,0.480728,-3.362317,-0.037322,-0.085134,1.011268
2011-09-26T14:18:27.824973,12750,-0.695201,0.344421,-3.419970,-0.037149,-0.084732,1.012049
2011-09-26T14:18:27.834973,12760,-0.525399,0.208115,-3.477623,-0.036976,-0.084330,1.012829
2011-09-26T14:18:27.844973,12770,-0.355597,0.071808,-3.535276,-0.036803,-0.083927,1.013609
2011-09-26T14:18:27.854973,12780,-0.185795,-0.064499,-3.592929,-0.036630,-0.083525,1.014389
2011-09-26T14:18:27.864973,12790,-0.015993,-0.200806,-3.650582,-0.036457,-0.083123,1.015170
2011-09-26T14:18:27.874973,12800,0.153809,-0.337113,-3.708235,-0.036283,-0.082720,1.015950
2011-09-26T14:18:27.884973,12810,0.323611,-0.473420,-3.765888,-0.036110,-0.082318,1.016730
2011-09-26T14:18:27.894973,12820,0.299059,-0.410509,-3.825328,-0.034529,-0.075718,1.012537
2011-09-26T14:18:27.904973,12830,0.266261,-0.339147,-3.884845,-0.032889,-0.068854,1.008133
2011-09-26T14:18:27.914973,12840,0.233463,-0.267785,-3.944361,-0.031248,-0.061991,1.003729
2011-09-26T14:18:27.924973,12850,0.200666,-0.196423,-4.003877,-0.029608,-0.055128,0.999325
2011-09-26T14:18:27.934973,12860,0.167868,-0.125061,-4.063393,-0.027967,-0.048265,0.994920
2011-09-26T14:18:27.944973,12870,0.135070,-0.053699,-4.122909,-0.026327,-0.041401,0.990516
2011-09-26T14:18:27.954973,12880,0.102273,0.017664,-4.182425,-0.024686,-0.034538,0.986112
2011-09-26T14:18:27.964973,12890,0.069475,0.089026,-4.241941,-0.023046,-0.027675,0.981708
2011-09-26T14:18:27.974973,12900,0.036677,0.160388,-4.301457,-0.021405,-0.020812,0.977304
2011-09-26T14:18:27.984973,12910,0.003880,0.231750,-4.360973,-0.019765,-0.013948,0.972900
2011-09-26T14:18:27.994973,12920,-0.028918,0.303112,-4.420489,-0.018124,-0.007085,0.968496
2011-09-26T14:18:28.004973,12930,-0.062290,0.306344,-4.472642,-0.018670,-0.010281,0.972014
2011-09-26T14:18:28.014973,12940,-0.095688,0.306493,-4.524461,-0.019314,-0.013933,0.975890
2011-09-26T14:18:28.024973,12950,-0.129086,0.306642,-4.576281,-0.019958,-0.017584,0.979767
2011-09-26T14:18:28.034973,12960,-0.162483,0.306791,-4.628100,-0.020603,-0.021236,0.983644
2011-09-26T14:18:28.044973,12970,-0.195881,0.306940,-4.679919,-0.021247,-0.024887,0.987520
2011-09-26T14:18:28.054973,12980,-0.229279,0.307089,-4.731739,-0.021891,-0.028538,0.991397
2011-09-26T14:18:28.064973,12990,-0.262677,0.307238,-4.783558,-0.022535,-0.032190,0.995273
2011-09-26T14:18:28.074973,13000,-0.296075,0.307387,-4.835378,-0.023180,-0.035841,0.999150
2011-09-26T14:18:28.084973,13010,-0.329473,0.307536,-4.887197,-0.023824,-0.039493,1.003027
2011-09-26T14:18:28.094973,13020,-0.362871,0.307685,-4.939017,-0.024468,-0.043144,1.006903
2011-09-26T14:18:28.104973,13030,-0.357238,0.390902,-4.985517,-0.024390,-0.049418,1.007888
2011-09-26T14:18:28.114973,13040,-0.349056,0.479544,-5.031671,-0.024264,-0.055863,1.008684
2011-09-26T14:18:28.124973,13050,-0.340874,0.568186,-5.077824,-0.024139,-0.062309,1.009481
2011-09-26T14:18:28.134973,13060,-0.332692,0.656828,-5.123977,-0.024013,-0.068754,1.010277
2011-09-26T14:18:28.144973,13070,-0.324510,0.745470,-5.170131,-0.023888,-0.075200,1.011073
2011-09-26T14:18:28.154973,13080,-0.316328,0.834112,-5.216284,-0.023762,-0.081645,1.011869
2011-09-26T14:18:28.164973,13090,-0.308147,0.922754,-5.262437,-0.023637,-0.088090,1.012666
2011-09-26T14:18:28.174973,13100,-0.299965,1.011396,-5.308590,-0.023512,-0.094536,1.013462
2011-09-26T14:18:28.184973,13110,-0.291783,1.100038,-5.354744,-0.023386,-0.100981,1.014258
2011-09-26T14:18:28.194973,13120,-0.283601,1.188680,-5.400897,-0.023261,-0.107426,1.015054
2011-09-26T14:18:28.204973,13130,-0.330956,1.237858,-5.428893,-0.024631,-0.105486,1.011050
2011-09-26T14:18:28.214973,13140,-0.381036,1.285099,-5.455998,-0.026076,-0.103134,1.006810
2011-09-26T14:18:28.224973,13150,-0.431116,1.332341,-5.483102,-0.027520,-0.100782,1.002570
2011-09-26T14:18:28.234973,13160,-0.481196,1.379582,-5.510207,-0.028964,-0.098430,0.998330
2011-09-26T14:18:28.244973,13170,-0.531276,1.426823,-5.537312,-0.030408,-0.096078,0.994090
2011-09-26T14:18:28.254973,13180,-0.581356,1.474064,-5.564417,-0.031852,-0.093727,0.989850
2011-09-26T14:18:28.264973,13190,-0.631437,1.521306,-5.591522,-0.033297,-0.091375,0.985610
2011-09-26T14:18:28.274973,13200,-0.681517,1.568547,-5.618626,-0.034741,-0.089023,0.981370
2011-09-26T14:18:28.284973,13210,-0.731597,1.615788,-5.645731,-0.036185,-0.086671,0.977130
2011-09-26T14:18:28.294973,13220,-0.781677,1.663029,-5.672836,-0.037629,-0.084319,0.972890
2011-09-26T14:18:28.304973,13230,-0.831757,1.710271,-5.699941,-0.039074,-0.081967,0.968650
2011-09-26T14:18:28.314973,13240,-0.786340,1.606752,-5.767773,-0.039031,-0.083014,0.969504
2011-09-26T14:18:28.324973,13250,-0.736307,1.495948,-5.837573,-0.038917,-0.084224,0.970604
2011-09-26T14:18:28.334973,13260,-0.686275,1.385145,-5.907373,-0.038802,-0.085435,0.971704
2011-09-26T14:18:28.344973,13270,-0.636243,1.274341,-5.977174,-0.038688,-0.086645,0.972804
2011-09-26T14:18:28.354973,13280,-0.586210,1.163538,-6.046974,-0.038574,-0.087856,0.973904
2011-09-26T14:18:28.364973,13290,-0.536178,1.052734,-6.116774,-0.038459,-0.089067,0.975003
2011-09-26T14:18:28.374973,13300,-0.486146,0.941931,-6.186574,-0.038345,-0.090277,0.976103
2011-09-26T14:18:28.384973,13310,-0.436113,0.831127,-6.256374,-0.038230,-0.091488,0.977203
2011-09-26T14:18:28.394973,13320,-0.386081,0.720324,-6.326175,-0.038116,-0.092698,0.978303
2011-09-26T14:18:28.404973,13330,-0.336049,0.609520,-6.395975,-0.038002,-0.093909,0.979403
2011-09-26T14:18:28.414973,13340,-0.347214,0.591761,-6.421983,-0.038756,-0.095198,0.977037
2011-09-26T14:18:28.424973,13350,-0.361244,0.578356,-6.445942,-0.039552,-0.096491,0.974509
2011-09-26T14:18:28.434973,13360,-0.375273,0.564950,-6.469901,-0.040347,-0.097784,0.971981
2011-09-26T14:18:28.444973,13370,-0.389303,0.551545,-6.493861,-0.041142,-0.099076,0.969452
2011-09-26T14:18:28.454973,13380,-0.403332,0.538140,-6.517820,-0.041938,-0.100369,0.966924
2011-09-26T14:18:28.464973,13390,-0.417361,0.524734,-6.541779,-0.042733,-0.101662,0.964396
2011-09-26T14:18:28.474973,13400,-0.431391,0.511329,-6.565738,-0.043529,-0.102955,0.961868
2011-09-26T14:18:28.484973,13410,-0.445420,0.497924,-6.589697,-0.044324,-0.104247,0.959340
2011-09-26T14:18:28.494973,13420,-0.459450,0.484518,-6.613656,-0.045119,-0.105540,0.956811
2011-09-26T14:18:28.504973,13430,-0.473479,0.471113,-6.637615,-0.045915,-0.106833,0.954283
2011-09-26T14:18:28.514973,13440,-0.487508,0.457708,-6.661574,-0.046710,-0.108125,0.951755
2011-09-26T14:18:28.524973,13450,-0.468845,0.353662,-6.684468,-0.046775,-0.109403,0.957288
