pc_time,ts_ms,gyroX,gyroY,gyroZ,accelX,accelY,accelZ
2011-09-26T14:35:43.505799,0,-0.595170,-2.080339,-1.406861,0.125787,-0.026398,1.021714
2011-09-26T14:35:43.515799,10,-0.502852,-1.825940,-1.411382,0.126490,-0.020173,1.026272
2011-09-26T14:35:43.525799,20,-0.410534,-1.571540,-1.415904,0.127192,-0.013947,1.030829
2011-09-26T14:35:43.535799,30,-0.318216,-1.317141,-1.420425,0.127895,-0.007721,1.035387
2011-09-26T14:35:43.545799,40,-0.225898,-1.062741,-1.424946,0.128598,-0.001496,1.039944
2011-09-26T14:35:43.555799,50,-0.133580,-0.808342,-1.429467,0.129301,0.004730,1.044502
2011-09-26T14:35:43.565799,60,-0.041262,-0.553942,-1.433988,0.130003,0.010956,1.049059
2011-09-26T14:35:43.575799,70,0.051056,-0.299543,-1.438509,0.130706,0.017181,1.053616
2011-09-26T14:35:43.585799,80,0.143374,-0.045143,-1.443031,0.131409,0.023407,1.058174
2011-09-26T14:35:43.595799,90,0.235692,0.209256,-1.447552,0.132112,0.029633,1.062731
2011-09-26T14:35:43.605799,100,0.328010,0.463656,-1.452073,0.132815,0.035858,1.067289
2011-09-26T14:35:43.615799,110,0.420328,0.718055,-1.456594,0.133517,0.042084,1.071846
2011-09-26T14:35:43.625799,120,0.366181,0.902034,-1.497135,0.132619,0.039881,1.072630
2011-09-26T14:35:43.635799,130,0.311550,1.085779,-1.537796,0.131715,0.037649,1.073402
2011-09-26T14:35:43.645799,140,0.256919,1.269525,-1.578456,0.130811,0.035418,1.074174
2011-09-26T14:35:43.655799,150,0.202288,1.453271,-1.619116,0.129907,0.033187,1.074946
2011-09-26T14:35:43.665799,160,0.147656,1.637016,-1.659777,0.129003,0.030956,1.075718
2011-09-26T14:35:43.675799,170,0.093025,1.820762,-1.700437,0.128099,0.028724,1.076490
2011-09-26T14:35:43.685799,180,0.038394,2.004508,-1.741097,0.127195,0.026493,1.077261
2011-09-26T14:35:43.695799,190,-0.016237,2.188253,-1.781758,0.126291,0.024262,1.078033
2011-09-26T14:35:43.705799,200,-0.070869,2.371999,-1.822418,0.125387,0.022031,1.078805
2011-09-26T14:35:43.715799,210,-0.124194,2.550995,-1.861316,0.124379,0.019809,1.079231
2011-09-26T14:35:43.725799,220,-0.124836,2.538431,-1.829127,0.119179,0.017964,1.065711
2011-09-26T14:35:43.735799,230,-0.125479,2.525867,-1.796938,0.113979,0.016120,1.052191
2011-09-26T14:35:43.745799,240,-0.126121,2.513302,-1.764749,0.108780,0.014276,1.038671
2011-09-26T14:35:43.755799,250,-0.126764,2.500738,-1.732560,0.103580,0.012431,1.025151
2011-09-26T14:35:43.765799,260,-0.127406,2.488174,-1.700372,0.098380,0.010587,1.011632
2011-09-26T14:35:43.775799,270,-0.128049,2.475610,-1.668183,0.093180,0.008742,0.998112
2011-09-26T14:35:43.785799,280,-0.128691,2.463046,-1.635994,0.087980,0.006898,0.984592
2011-09-26T14:35:43.795799,290,-0.129333,2.450482,-1.603805,0.082780,0.005054,0.971072
2011-09-26T14:35:43.805799,300,-0.129976,2.437918,-1.571616,0.077580,0.003209,0.957552
2011-09-26T14:35:43.815799,310,-0.130328,2.422804,-1.539656,0.072442,0.001383,0.944137
2011-09-26T14:35:43.825799,320,-0.100778,2.145243,-1.531237,0.073684,0.001435,0.941569
2011-09-26T14:35:43.835799,330,-0.071229,1.867682,-1.522818,0.074927,0.001486,0.939001
2011-09-26T14:35:43.845799,340,-0.041679,1.590120,-1.514399,0.076169,0.001538,0.936433
2011-09-26T14:35:43.855799,350,-0.012129,1.312559,-1.505979,0.077411,0.001589,0.933865
2011-09-26T14:35:43.865799,360,0.017420,1.034998,-1.497560,0.078653,0.001641,0.931297
2011-09-26T14:35:43.875799,370,0.046970,0.757436,-1.489141,0.079895,0.001692,0.928729
2011-09-26T14:35:43.885799,380,0.076520,0.479875,-1.480722,0.081138,0.001744,0.926161
2011-09-26T14:35:43.895799,390,0.106069,0.202313,-1.472303,0.082380,0.001795,0.923592
2011-09-26T14:35:43.905799,400,0.135619,-0.075248,-1.463884,0.083622,0.001847,0.921024
2011-09-26T14:35:43.915799,410,0.165168,-0.352809,-1.455465,0.084864,0.001898,0.918456
2011-09-26T14:35:43.925799,420,0.194233,-0.623570,-1.447345,0.086061,0.001981,0.916305
2011-09-26T14:35:43.935799,430,0.210414,-0.713811,-1.447191,0.086039,0.002901,0.925224
2011-09-26T14:35:43.945799,440,0.226596,-0.804052,-1.447037,0.086018,0.003821,0.934143
2011-09-26T14:35:43.955799,450,0.242778,-0.894292,-1.446882,0.085997,0.004741,0.943061
2011-09-26T14:35:43.965799,460,0.258959,-0.984533,-1.446728,0.085975,0.005661,0.951980
2011-09-26T14:35:43.975799,470,0.275141,-1.074774,-1.446573,0.085954,0.006581,0.960899
2011-09-26T14:35:43.985799,480,0.291323,-1.165014,-1.446419,0.085933,0.007501,0.969818
2011-09-26T14:35:43.995799,490,0.307504,-1.255255,-1.446264,0.085912,0.008421,0.978736
2011-09-26T14:35:44.005799,500,0.323686,-1.345496,-1.446110,0.085890,0.009340,0.987655
2011-09-26T14:35:44.015799,510,0.339868,-1.435736,-1.445956,0.085869,0.010260,0.996574
2011-09-26T14:35:44.025799,520,0.353904,-1.520928,-1.445737,0.085878,0.011214,1.005261
2011-09-26T14:35:44.035799,530,0.315223,-1.482078,-1.443937,0.086639,0.012991,1.008252
2011-09-26T14:35:44.045799,540,0.276543,-1.443228,-1.442137,0.087401,0.014768,1.011243
2011-09-26T14:35:44.055799,550,0.237863,-1.404379,-1.440337,0.088162,0.016546,1.014235
2011-09-26T14:35:44.065799,560,0.199183,-1.365529,-1.438537,0.088923,0.018323,1.017226
2011-09-26T14:35:44.075799,570,0.160503,-1.326679,-1.436737,0.089684,0.020100,1.020217
2011-09-26T14:35:44.085799,580,0.121822,-1.287829,-1.434937,0.090446,0.021877,1.023208
2011-09-26T14:35:44.095799,590,0.083142,-1.248979,-1.433137,0.091207,0.023655,1.026200
2011-09-26T14:35:44.105799,600,0.044462,-1.210129,-1.431337,0.091968,0.025432,1.029191
2011-09-26T14:35:44.115799,610,0.005782,-1.171280,-1.429537,0.092729,0.027209,1.032182
2011-09-26T14:35:44.125799,620,-0.033644,-1.128804,-1.428021,0.093461,0.028867,1.035099
2011-09-26T14:35:44.135799,630,-0.094780,-0.980760,-1.434779,0.093322,0.027029,1.035829
2011-09-26T14:35:44.145799,640,-0.155916,-0.832716,-1.441536,0.093184,0.025191,1.036560
2011-09-26T14:35:44.155799,650,-0.217052,-0.684673,-1.448294,0.093045,0.023354,1.037291
2011-09-26T14:35:44.165799,660,-0.278187,-0.536629,-1.455051,0.092906,0.021516,1.038021
2011-09-26T14:35:44.175799,670,-0.339323,-0.388585,-1.461808,0.092768,0.019679,1.038752
2011-09-26T14:35:44.185799,680,-0.400459,-0.240541,-1.468566,0.092629,0.017841,1.039483
2011-09-26T14:35:44.195799,690,-0.461595,-0.092497,-1.475323,0.092490,0.016004,1.040214
2011-09-26T14:35:44.205799,700,-0.522731,0.055546,-1.482081,0.092352,0.014166,1.040944
2011-09-26T14:35:44.215799,710,-0.583867,0.203590,-1.488838,0.092213,0.012329,1.041675
2011-09-26T14:35:44.225799,720,-0.645003,0.351634,-1.495595,0.092074,0.010491,1.042406
2011-09-26T14:35:44.235799,730,-0.699377,0.496392,-1.501894,0.091880,0.008631,1.042939
2011-09-26T14:35:44.245799,740,-0.609246,0.570938,-1.498393,0.090496,0.006301,1.039243
2011-09-26T14:35:44.255799,750,-0.519115,0.645484,-1.494891,0.089112,0.003970,1.035547
2011-09-26T14:35:44.265799,760,-0.428984,0.720030,-1.491390,0.087728,0.001640,1.031851
2011-09-26T14:35:44.275799,770,-0.338853,0.794576,-1.487889,0.086344,-0.000691,1.028155
2011-09-26T14:35:44.285799,780,-0.248722,0.869122,-1.484387,0.084960,-0.003021,1.024459
2011-09-26T14:35:44.295799,790,-0.158591,0.943668,-1.480886,0.083576,-0.005352,1.020763
2011-09-26T14:35:44.305799,800,-0.068459,1.018215,-1.477385,0.082192,-0.007682,1.017067
2011-09-26T14:35:44.315799,810,0.021672,1.092761,-1.473883,0.080808,-0.010013,1.013371
2011-09-26T14:35:44.325799,820,0.111803,1.167307,-1.470382,0.079424,-0.012344,1.009675
2011-09-26T14:35:44.335799,830,0.195924,1.237035,-1.466383,0.078054,-0.014321,1.006093
2011-09-26T14:35:44.345799,840,0.176607,1.223848,-1.453817,0.076918,-0.010222,1.004467
2011-09-26T14:35:44.355799,850,0.157291,1.210660,-1.441251,0.075783,-0.006123,1.002841
2011-09-26T14:35:44.365799,860,0.137974,1.197473,-1.428685,0.074648,-0.002024,1.001215
2011-09-26T14:35:44.375799,870,0.118657,1.184285,-1.416119,0.073512,0.002075,0.999589
2011-09-26T14:35:44.385799,880,0.099341,1.171097,-1.403553,0.072377,0.006174,0.997964
2011-09-26T14:35:44.395799,890,0.080024,1.157910,-1.390987,0.071241,0.010273,0.996338
2011-09-26T14:35:44.405799,900,0.060707,1.144722,-1.378421,0.070106,0.014372,0.994712
2011-09-26T14:35:44.415799,910,0.041391,1.131535,-1.365855,0.068971,0.018471,0.993086
2011-09-26T14:35:44.425799,920,0.022074,1.118347,-1.353289,0.067835,0.022570,0.991460
2011-09-26T14:35:44.435799,930,-0.001290,1.100764,-1.340799,0.066744,0.026396,0.989815
2011-09-26T14:35:44.445799,940,-0.092500,1.009501,-1.329573,0.066394,0.025644,0.987834
2011-09-26T14:35:44.455799,950,-0.183710,0.918238,-1.318347,0.066044,0.024892,0.985854
2011-09-26T14:35:44.465799,960,-0.274920,0.826975,-1.307120,0.065693,0.024140,0.983874
2011-09-26T14:35:44.475799,970,-0.366130,0.735712,-1.295894,0.065343,0.023388,0.981894
2011-09-26T14:35:44.485799,980,-0.457340,0.644448,-1.284668,0.064992,0.022636,0.979914
2011-09-26T14:35:44.495799,990,-0.548550,0.553185,-1.273442,0.064642,0.021884,0.977933
2011-09-26T14:35:44.505799,1000,-0.639760,0.461922,-1.262216,0.064292,0.021131,0.975953
2011-09-26T14:35:44.515799,1010,-0.730970,0.370659,-1.250990,0.063941,0.020379,0.973973
2011-09-26T14:35:44.525799,1020,-0.822180,0.279396,-1.239764,0.063591,0.019627,0.971993
2011-09-26T14:35:44.535799,1030,-0.913390,0.188133,-1.228538,0.063241,0.018875,0.970012
2011-09-26T14:35:44.545799,1040,-0.995461,0.099353,-1.217786,0.062871,0.018035,0.968257
2011-09-26T14:35:44.555799,1050,-0.937834,0.048534,-1.214282,0.062216,0.015842,0.969940
2011-09-26T14:35:44.565799,1060,-0.880206,-0.002286,-1.210778,0.061560,0.013649,0.971623
2011-09-26T14:35:44.575799,1070,-0.822578,-0.053106,-1.207274,0.060904,0.011456,0.973305
2011-09-26T14:35:44.585799,1080,-0.764950,-0.103925,-1.203770,0.060249,0.009263,0.974988
2011-09-26T14:35:44.595799,1090,-0.707322,-0.154745,-1.200265,0.059593,0.007071,0.976671
2011-09-26T14:35:44.605799,1100,-0.649694,-0.205565,-1.196761,0.058937,0.004878,0.978354
2011-09-26T14:35:44.615799,1110,-0.592066,-0.256385,-1.193257,0.058282,0.002685,0.980037
2011-09-26T14:35:44.625799,1120,-0.534438,-0.307204,-1.189753,0.057626,0.000492,0.981719
2011-09-26T14:35:44.635799,1130,-0.476810,-0.358024,-1.186249,0.056970,-0.001701,0.983402
2011-09-26T14:35:44.645799,1140,-0.417549,-0.406904,-1.182138,0.056320,-0.003720,0.985143
2011-09-26T14:35:44.655799,1150,-0.326654,-0.418214,-1.166282,0.055788,-0.002385,0.988016
2011-09-26T14:35:44.665799,1160,-0.235759,-0.429524,-1.150426,0.055255,-0.001049,0.990888
2011-09-26T14:35:44.675799,1170,-0.144864,-0.440834,-1.134571,0.054722,0.000287,0.993761
2011-09-26T14:35:44.685799,1180,-0.053969,-0.452144,-1.118715,0.054189,0.001622,0.996634
2011-09-26T14:35:44.695799,1190,0.036926,-0.463454,-1.102859,0.053656,0.002958,0.999506
2011-09-26T14:35:44.705799,1200,0.127821,-0.474764,-1.087003,0.053124,0.004293,1.002379
2011-09-26T14:35:44.715799,1210,0.218715,-0.486074,-1.071147,0.052591,0.005629,1.005251
2011-09-26T14:35:44.725799,1220,0.309610,-0.497383,-1.055291,0.052058,0.006965,1.008124
2011-09-26T14:35:44.735799,1230,0.400505,-0.508693,-1.039435,0.051525,0.008300,1.010997
2011-09-26T14:35:44.745799,1240,0.491400,-0.520003,-1.023579,0.050992,0.009636,1.013869
2011-09-26T14:35:44.755799,1250,0.575751,-0.529388,-1.009632,0.050445,0.010971,1.016472
2011-09-26T14:35:44.765799,1260,0.574885,-0.513693,-1.020531,0.049709,0.012301,1.015562
2011-09-26T14:35:44.775799,1270,0.574019,-0.497999,-1.031431,0.048972,0.013631,1.014652
2011-09-26T14:35:44.785799,1280,0.573153,-0.482305,-1.042331,0.048236,0.014961,1.013742
2011-09-26T14:35:44.795799,1290,0.572287,-0.466611,-1.053231,0.047500,0.016291,1.012833
2011-09-26T14:35:44.805799,1300,0.571421,-0.450916,-1.064131,0.046763,0.017621,1.011923
2011-09-26T14:35:44.815799,1310,0.570555,-0.435222,-1.075031,0.046027,0.018951,1.011013
2011-09-26T14:35:44.825799,1320,0.569689,-0.419528,-1.085931,0.045291,0.020281,1.010103
2011-09-26T14:35:44.835799,1330,0.568823,-0.403834,-1.096831,0.044555,0.021611,1.009193
2011-09-26T14:35:44.845799,1340,0.567957,-0.388139,-1.107731,0.043818,0.022941,1.008283
2011-09-26T14:35:44.855799,1350,0.566222,-0.371366,-1.117220,0.043125,0.024131,1.007514
2011-09-26T14:35:44.865799,1360,0.553070,-0.340415,-1.108166,0.043000,0.023471,1.008585
2011-09-26T14:35:44.875799,1370,0.539918,-0.309464,-1.099111,0.042876,0.022811,1.009656
2011-09-26T14:35:44.885799,1380,0.526766,-0.278513,-1.090057,0.042751,0.022150,1.010727
2011-09-26T14:35:44.895799,1390,0.513614,-0.247562,-1.081002,0.042626,0.021490,1.011798
2011-09-26T14:35:44.905799,1400,0.500462,-0.216611,-1.071948,0.042502,0.020830,1.012869
2011-09-26T14:35:44.915799,1410,0.487310,-0.185659,-1.062894,0.042377,0.020170,1.013940
2011-09-26T14:35:44.925799,1420,0.474158,-0.154708,-1.053839,0.042252,0.019510,1.015011
2011-09-26T14:35:44.935799,1430,0.461006,-0.123757,-1.044785,0.042128,0.018850,1.016083
2011-09-26T14:35:44.945799,1440,0.447853,-0.092806,-1.035730,0.042003,0.018190,1.017154
2011-09-26T14:35:44.955799,1450,0.436778,-0.063970,-1.026234,0.041847,0.017519,1.018109
2011-09-26T14:35:44.965799,1460,0.450914,-0.060812,-1.011371,0.041312,0.016723,1.017665
2011-09-26T14:35:44.975799,1470,0.465049,-0.057654,-0.996508,0.040778,0.015927,1.017221
2011-09-26T14:35:44.985799,1480,0.479185,-0.054496,-0.981645,0.040243,0.015130,1.016776
2011-09-26T14:35:44.995799,1490,0.493320,-0.051338,-0.966783,0.039708,0.014334,1.016332
2011-09-26T14:35:45.005799,1500,0.507456,-0.048180,-0.951920,0.039173,0.013538,1.015887
2011-09-26T14:35:45.015799,1510,0.521592,-0.045023,-0.937057,0.038639,0.012742,1.015443
2011-09-26T14:35:45.025799,1520,0.535727,-0.041865,-0.922194,0.038104,0.011945,1.014998
2011-09-26T14:35:45.035799,1530,0.549863,-0.038707,-0.907332,0.037569,0.011149,1.014554
2011-09-26T14:35:45.045799,1540,0.563999,-0.035549,-0.892469,0.037034,0.010353,1.014109
2011-09-26T14:35:45.055799,1550,0.578134,-0.032391,-0.877606,0.036500,0.009556,1.013665
2011-09-26T14:35:45.065799,1560,0.585357,-0.024004,-0.863092,0.035965,0.009039,1.013069
2011-09-26T14:35:45.075799,1570,0.520048,0.039255,-0.852241,0.035425,0.011447,1.010888
2011-09-26T14:35:45.085799,1580,0.454739,0.102514,-0.841389,0.034886,0.013855,1.008707
2011-09-26T14:35:45.095799,1590,0.389429,0.165773,-0.830538,0.034346,0.016263,1.006526
2011-09-26T14:35:45.105799,1600,0.324120,0.229033,-0.819687,0.033807,0.018671,1.004344
2011-09-26T14:35:45.115799,1610,0.258811,0.292292,-0.808835,0.033267,0.021079,1.002163
2011-09-26T14:35:45.125799,1620,0.193501,0.355551,-0.797984,0.032728,0.023487,0.999982
2011-09-26T14:35:45.135799,1630,0.128192,0.418810,-0.787132,0.032189,0.025895,0.997801
2011-09-26T14:35:45.145799,1640,0.062883,0.482069,-0.776281,0.031649,0.028304,0.995619
2011-09-26T14:35:45.155799,1650,-0.002426,0.545328,-0.765429,0.031110,0.030712,0.993438
2011-09-26T14:35:45.165799,1660,-0.061048,0.605556,-0.756930,0.030569,0.032891,0.991441
2011-09-26T14:35:45.175799,1670,-0.051045,0.634681,-0.772571,0.030021,0.032721,0.991336
2011-09-26T14:35:45.185799,1680,-0.041041,0.663806,-0.788213,0.029473,0.032551,0.991230
2011-09-26T14:35:45.195799,1690,-0.031038,0.692931,-0.803854,0.028924,0.032382,0.991125
2011-09-26T14:35:45.205799,1700,-0.021034,0.722056,-0.819495,0.028376,0.032212,0.991020
2011-09-26T14:35:45.215799,1710,-0.011030,0.751181,-0.835136,0.027827,0.032042,0.990914
2011-09-26T14:35:45.225799,1720,-0.001027,0.780307,-0.850777,0.027279,0.031872,0.990809
2011-09-26T14:35:45.235799,1730,0.008977,0.809432,-0.866418,0.026730,0.031703,0.990703
2011-09-26T14:35:45.245799,1740,0.018981,0.838557,-0.882059,0.026182,0.031533,0.990598
2011-09-26T14:35:45.255799,1750,0.028984,0.867682,-0.897700,0.025634,0.031363,0.990493
2011-09-26T14:35:45.265799,1760,0.038012,0.886194,-0.911508,0.024966,0.031020,0.990512
2011-09-26T14:35:45.275799,1770,0.037837,0.804675,-0.908039,0.023173,0.029043,0.991709
2011-09-26T14:35:45.285799,1780,0.037663,0.723157,-0.904569,0.021380,0.027065,0.992905
2011-09-26T14:35:45.295799,1790,0.037488,0.641638,-0.901099,0.019588,0.025088,0.994102
2011-09-26T14:35:45.305799,1800,0.037313,0.560120,-0.897629,0.017795,0.023110,0.995299
2011-09-26T14:35:45.315799,1810,0.037139,0.478602,-0.894159,0.016002,0.021133,0.996495
2011-09-26T14:35:45.325799,1820,0.036964,0.397083,-0.890689,0.014209,0.019155,0.997692
2011-09-26T14:35:45.335799,1830,0.036790,0.315565,-0.887220,0.012417,0.017178,0.998888
2011-09-26T14:35:45.345799,1840,0.035197,0.234761,-0.883775,0.010753,0.015488,0.999563
2011-09-26T14:35:45.355799,1850,0.020600,0.160516,-0.880559,0.010270,0.016442,0.995449
2011-09-26T14:35:45.365799,1860,0.006002,0.086271,-0.877343,0.009787,0.017395,0.991335
2011-09-26T14:35:45.375799,1870,-0.008595,0.012026,-0.874127,0.009304,0.018348,0.987221
2011-09-26T14:35:45.385799,1880,-0.023193,-0.062219,-0.870911,0.008821,0.019302,0.983108
2011-09-26T14:35:45.395799,1890,-0.037790,-0.136464,-0.867695,0.008338,0.020255,0.978994
2011-09-26T14:35:45.405799,1900,-0.052388,-0.210709,-0.864479,0.007856,0.021208,0.974880
2011-09-26T14:35:45.415799,1910,-0.066985,-0.284954,-0.861263,0.007373,0.022162,0.970766
2011-09-26T14:35:45.425799,1920,-0.081583,-0.359200,-0.858047,0.006890,0.023115,0.966652
2011-09-26T14:35:45.435799,1930,-0.096180,-0.433445,-0.854831,0.006407,0.024068,0.962538
2011-09-26T14:35:45.445799,1940,-0.110778,-0.507690,-0.851615,0.005924,0.025022,0.958425
2011-09-26T14:35:45.455799,1950,-0.125375,-0.581935,-0.848399,0.005441,0.025975,0.954311
2011-09-26T14:35:45.465799,1960,-0.139973,-0.656180,-0.845183,0.004958,0.026928,0.950197
2011-09-26T14:35:45.475799,1970,-0.158980,-0.726100,-0.842918,0.004636,0.027892,0.947015
2011-09-26T14:35:45.485799,1980,-0.218031,-0.756743,-0.849278,0.005770,0.028948,0.952296
2011-09-26T14:35:45.495799,1990,-0.277082,-0.787386,-0.855639,0.006904,0.030005,0.957577
2011-09-26T14:35:45.505799,2000,-0.336132,-0.818028,-0.862000,0.008037,0.031062,0.962857
2011-09-26T14:35:45.515799,2010,-0.395183,-0.848671,-0.868361,0.009171,0.032118,0.968138
2011-09-26T14:35:45.525799,2020,-0.454234,-0.879314,-0.874722,0.010305,0.033175,0.973419
2011-09-26T14:35:45.535799,2030,-0.513285,-0.909956,-0.881083,0.011439,0.034231,0.978700
2011-09-26T14:35:45.545799,2040,-0.572336,-0.940599,-0.887444,0.012573,0.035288,0.983981
2011-09-26T14:35:45.555799,2050,-0.631387,-0.971242,-0.893805,0.013707,0.036344,0.989262
2011-09-26T14:35:45.565799,2060,-0.690438,-1.001885,-0.900166,0.014841,0.037401,0.994542
2011-09-26T14:35:45.575799,2070,-0.749489,-1.032527,-0.906527,0.015974,0.038458,0.999823
2011-09-26T14:35:45.585799,2080,-0.807850,-1.046644,-0.911085,0.017083,0.039105,1.005121
2011-09-26T14:35:45.595799,2090,-0.860604,-0.926389,-0.900986,0.017990,0.036423,1.010554
2011-09-26T14:35:45.605799,2100,-0.913358,-0.806135,-0.890887,0.018896,0.033741,1.015988
2011-09-26T14:35:45.615799,2110,-0.966111,-0.685881,-0.880788,0.019803,0.031059,1.021421
2011-09-26T14:35:45.625799,2120,-1.018865,-0.565626,-0.870689,0.020710,0.028378,1.026854
2011-09-26T14:35:45.635799,2130,-1.071618,-0.445372,-0.860590,0.021616,0.025696,1.032288
2011-09-26T14:35:45.645799,2140,-1.124372,-0.325118,-0.850491,0.022523,0.023014,1.037721
2011-09-26T14:35:45.655799,2150,-1.177125,-0.204864,-0.840392,0.023429,0.020332,1.043154
2011-09-26T14:35:45.665799,2160,-1.229879,-0.084609,-0.830293,0.024336,0.017651,1.048588
2011-09-26T14:35:45.675799,2170,-1.282632,0.035645,-0.820194,0.025242,0.014969,1.054021
2011-09-26T14:35:45.685799,2180,-1.312481,0.146035,-0.810464,0.025822,0.012345,1.058383
2011-09-26T14:35:45.695799,2190,-1.151958,0.174445,-0.803792,0.023687,0.010205,1.053844
2011-09-26T14:35:45.705799,2200,-0.991435,0.202855,-0.797120,0.021553,0.008065,1.049305
2011-09-26T14:35:45.715799,2210,-0.830912,0.231264,-0.790448,0.019418,0.005924,1.044766
2011-09-26T14:35:45.725799,2220,-0.670389,0.259674,-0.783776,0.017283,0.003784,1.040227
2011-09-26T14:35:45.735799,2230,-0.509866,0.288084,-0.777104,0.015148,0.001643,1.035688
2011-09-26T14:35:45.745799,2240,-0.349343,0.316494,-0.770432,0.013014,-0.000497,1.031149
2011-09-26T14:35:45.755799,2250,-0.188820,0.344903,-0.763760,0.010879,-0.002637,1.026610
2011-09-26T14:35:45.765799,2260,-0.028297,0.373313,-0.757088,0.008744,-0.004778,1.022071
2011-09-26T14:35:45.775799,2270,0.132225,0.401723,-0.750416,0.006609,-0.006918,1.017532
2011-09-26T14:35:45.785799,2280,0.273118,0.421602,-0.741795,0.004739,-0.008346,1.013024
2011-09-26T14:35:45.795799,2290,0.264440,0.376481,-0.718321,0.004890,-0.004341,1.008755
2011-09-26T14:35:45.805799,2300,0.255762,0.331360,-0.694848,0.005040,-0.000337,1.004486
2011-09-26T14:35:45.815799,2310,0.247084,0.286239,-0.671375,0.005191,0.003668,1.000217
2011-09-26T14:35:45.825799,2320,0.238405,0.241118,-0.647901,0.005341,0.007672,0.995949
2011-09-26T14:35:45.835799,2330,0.229727,0.195997,-0.624428,0.005491,0.011676,0.991680
2011-09-26T14:35:45.845799,2340,0.221049,0.150876,-0.600955,0.005642,0.015681,0.987411
2011-09-26T14:35:45.855799,2350,0.212371,0.105755,-0.577481,0.005792,0.019685,0.983142
2011-09-26T14:35:45.865799,2360,0.203692,0.060634,-0.554008,0.005942,0.023690,0.978873
2011-09-26T14:35:45.875799,2370,0.195014,0.015513,-0.530534,0.006093,0.027694,0.974604
2011-09-26T14:35:45.885799,2380,0.179992,-0.040926,-0.510273,0.006269,0.031371,0.971033
2011-09-26T14:35:45.895799,2390,0.118671,-0.179964,-0.513454,0.006632,0.032659,0.972559
2011-09-26T14:35:45.905799,2400,0.057350,-0.319001,-0.516636,0.006996,0.033946,0.974086
2011-09-26T14:35:45.915799,2410,-0.003970,-0.458039,-0.519817,0.007359,0.035234,0.975612
2011-09-26T14:35:45.925799,2420,-0.065291,-0.597077,-0.522998,0.007723,0.036521,0.977138
2011-09-26T14:35:45.935799,2430,-0.126612,-0.736114,-0.526179,0.008086,0.037809,0.978664
2011-09-26T14:35:45.945799,2440,-0.187933,-0.875152,-0.529360,0.008450,0.039096,0.980191
2011-09-26T14:35:45.955799,2450,-0.249254,-1.014190,-0.532542,0.008814,0.040384,0.981717
2011-09-26T14:35:45.965799,2460,-0.310574,-1.153227,-0.535723,0.009177,0.041672,0.983243
2011-09-26T14:35:45.975799,2470,-0.371895,-1.292265,-0.538904,0.009541,0.042959,0.984770
2011-09-26T14:35:45.985799,2480,-0.433216,-1.431303,-0.542085,0.009904,0.044247,0.986296
2011-09-26T14:35:45.995799,2490,-0.482902,-1.541947,-0.542310,0.010358,0.044703,0.988211
2011-09-26T14:35:46.005799,2500,-0.456082,-1.465893,-0.523093,0.011404,0.039697,0.992682
2011-09-26T14:35:46.015799,2510,-0.429263,-1.389839,-0.503877,0.012450,0.034690,0.997154
2011-09-26T14:35:46.025799,2520,-0.402444,-1.313785,-0.484661,0.013496,0.029684,1.001625
2011-09-26T14:35:46.035799,2530,-0.375624,-1.237731,-0.465444,0.014542,0.024677,1.006096
2011-09-26T14:35:46.045799,2540,-0.348805,-1.161677,-0.446228,0.015588,0.019671,1.010568
2011-09-26T14:35:46.055799,2550,-0.321985,-1.085623,-0.427011,0.016634,0.014664,1.015039
2011-09-26T14:35:46.065799,2560,-0.295166,-1.009569,-0.407795,0.017679,0.009658,1.019510
2011-09-26T14:35:46.075799,2570,-0.268347,-0.933515,-0.388579,0.018725,0.004651,1.023982
2011-09-26T14:35:46.085799,2580,-0.241527,-0.857461,-0.369362,0.019771,-0.000355,1.028453
2011-09-26T14:35:46.095799,2590,-0.216019,-0.769103,-0.348827,0.020690,-0.004364,1.032504
2011-09-26T14:35:46.105799,2600,-0.198903,-0.601983,-0.319851,0.020796,-0.001987,1.033861
2011-09-26T14:35:46.115799,2610,-0.181787,-0.434863,-0.290875,0.020903,0.000390,1.035218
2011-09-26T14:35:46.125799,2620,-0.164671,-0.267742,-0.261899,0.021009,0.002766,1.036574
2011-09-26T14:35:46.135799,2630,-0.147555,-0.100622,-0.232924,0.021115,0.005143,1.037931
2011-09-26T14:35:46.145799,2640,-0.130440,0.066498,-0.203948,0.021221,0.007520,1.039288
2011-09-26T14:35:46.155799,2650,-0.113324,0.233618,-0.174972,0.021327,0.009897,1.040645
2011-09-26T14:35:46.165799,2660,-0.096208,0.400739,-0.145996,0.021433,0.012273,1.042002
2011-09-26T14:35:46.175799,2670,-0.079092,0.567859,-0.117020,0.021539,0.014650,1.043359
2011-09-26T14:35:46.185799,2680,-0.061976,0.734979,-0.088044,0.021645,0.017027,1.044716
2011-09-26T14:35:46.195799,2690,-0.047207,0.889929,-0.059716,0.021552,0.019291,1.045126
2011-09-26T14:35:46.205799,2700,-0.047752,0.965485,-0.035614,0.020157,0.020816,1.039355
2011-09-26T14:35:46.215799,2710,-0.048296,1.041041,-0.011512,0.018762,0.022342,1.033584
2011-09-26T14:35:46.225799,2720,-0.048841,1.116596,0.012589,0.017366,0.023868,1.027813
2011-09-26T14:35:46.235799,2730,-0.049385,1.192152,0.036691,0.015971,0.025393,1.022043
2011-09-26T14:35:46.245799,2740,-0.049929,1.267708,0.060793,0.014576,0.026919,1.016272
2011-09-26T14:35:46.255799,2750,-0.050474,1.343263,0.084894,0.013181,0.028444,1.010501
2011-09-26T14:35:46.265799,2760,-0.051018,1.418819,0.108996,0.011786,0.029970,1.004730
2011-09-26T14:35:46.275799,2770,-0.051562,1.494374,0.133098,0.010391,0.031496,0.998959
2011-09-26T14:35:46.285799,2780,-0.052107,1.569930,0.157199,0.008996,0.033021,0.993189
2011-09-26T14:35:46.295799,2790,-0.052651,1.645486,0.181301,0.007601,0.034547,0.987418
2011-09-26T14:35:46.305799,2800,-0.061608,1.693022,0.205254,0.006512,0.035978,0.982416
2011-09-26T14:35:46.315799,2810,-0.124976,1.559338,0.228243,0.007400,0.036794,0.982389
2011-09-26T14:35:46.325799,2820,-0.188345,1.425655,0.251232,0.008288,0.037611,0.982362
2011-09-26T14:35:46.335799,2830,-0.251713,1.291971,0.274221,0.009176,0.038427,0.982335
2011-09-26T14:35:46.345799,2840,-0.315081,1.158288,0.297210,0.010065,0.039244,0.982307
2011-09-26T14:35:46.355799,2850,-0.378449,1.024604,0.320200,0.010953,0.040060,0.982280
2011-09-26T14:35:46.365799,2860,-0.441818,0.890921,0.343189,0.011841,0.040877,0.982253
2011-09-26T14:35:46.375799,2870,-0.505186,0.757237,0.366178,0.012729,0.041693,0.982226
2011-09-26T14:35:46.385799,2880,-0.568554,0.623553,0.389167,0.013617,0.042510,0.982199
2011-09-26T14:35:46.395799,2890,-0.631922,0.489870,0.412156,0.014505,0.043326,0.982171
2011-09-26T14:35:46.405799,2900,-0.683185,0.366563,0.432575,0.015216,0.043887,0.981591
2011-09-26T14:35:46.415799,2910,-0.657738,0.309013,0.436704,0.014802,0.042831,0.977506
2011-09-26T14:35:46.425799,2920,-0.632291,0.251462,0.440834,0.014388,0.041774,0.973421
2011-09-26T14:35:46.435799,2930,-0.606845,0.193912,0.444963,0.013974,0.040717,0.969335
2011-09-26T14:35:46.445799,2940,-0.581398,0.136361,0.449093,0.013560,0.039661,0.965250
2011-09-26T14:35:46.455799,2950,-0.555951,0.078811,0.453222,0.013147,0.038604,0.961165
2011-09-26T14:35:46.465799,2960,-0.530505,0.021260,0.457352,0.012733,0.037548,0.957080
2011-09-26T14:35:46.475799,2970,-0.505058,-0.036290,0.461481,0.012319,0.036491,0.952994
2011-09-26T14:35:46.485799,2980,-0.479611,-0.093841,0.465611,0.011905,0.035434,0.948909
2011-09-26T14:35:46.495799,2990,-0.454165,-0.151392,0.469740,0.011491,0.034378,0.944824
2011-09-26T14:35:46.505799,3000,-0.431930,-0.209344,0.474873,0.011260,0.033578,0.942008
2011-09-26T14:35:46.515799,3010,-0.430454,-0.269892,0.486484,0.012212,0.034440,0.947394
2011-09-26T14:35:46.525799,3020,-0.428978,-0.330440,0.498095,0.013164,0.035302,0.952780
2011-09-26T14:35:46.535799,3030,-0.427501,-0.390988,0.509706,0.014115,0.036163,0.958166
2011-09-26T14:35:46.545799,3040,-0.426025,-0.451536,0.521317,0.015067,0.037025,0.963552
2011-09-26T14:35:46.555799,3050,-0.424549,-0.512084,0.532929,0.016019,0.037887,0.968938
2011-09-26T14:35:46.565799,3060,-0.423073,-0.572632,0.544540,0.016970,0.038749,0.974324
2011-09-26T14:35:46.575799,3070,-0.421596,-0.633180,0.556151,0.017922,0.039610,0.979710
2011-09-26T14:35:46.585799,3080,-0.420120,-0.693728,0.567762,0.018874,0.040472,0.985096
2011-09-26T14:35:46.595799,3090,-0.418644,-0.754276,0.579373,0.019825,0.041334,0.990482
2011-09-26T14:35:46.605799,3100,-0.417168,-0.814824,0.590985,0.020777,0.042196,0.995868
2011-09-26T14:35:46.615799,3110,-0.416378,-0.858690,0.601479,0.021586,0.042748,1.000743
2011-09-26T14:35:46.625799,3120,-0.420105,-0.792771,0.604627,0.021455,0.041263,1.002255
2011-09-26T14:35:46.635799,3130,-0.423833,-0.726852,0.607774,0.021325,0.039778,1.003767
2011-09-26T14:35:46.645799,3140,-0.427560,-0.660933,0.610921,0.021194,0.038293,1.005279
2011-09-26T14:35:46.655799,3150,-0.431288,-0.595015,0.614068,0.021063,0.036807,1.006791
2011-09-26T14:35:46.665799,3160,-0.435015,-0.529096,0.617215,0.020933,0.035322,1.008303
2011-09-26T14:35:46.675799,3170,-0.438743,-0.463177,0.620363,0.020802,0.033837,1.009815
2011-09-26T14:35:46.685799,3180,-0.442470,-0.397259,0.623510,0.020671,0.032352,1.011326
2011-09-26T14:35:46.695799,3190,-0.446198,-0.331340,0.626657,0.020540,0.030867,1.012838
2011-09-26T14:35:46.705799,3200,-0.449925,-0.265421,0.629804,0.020410,0.029382,1.014350
2011-09-26T14:35:46.715799,3210,-0.465507,-0.207279,0.633337,0.020307,0.028422,1.015764
2011-09-26T14:35:46.725799,3220,-0.545414,-0.191334,0.638966,0.020358,0.030313,1.016644
2011-09-26T14:35:46.735799,3230,-0.625321,-0.175388,0.644595,0.020409,0.032203,1.017525
2011-09-26T14:35:46.745799,3240,-0.705227,-0.159442,0.650223,0.020460,0.034093,1.018405
2011-09-26T14:35:46.755799,3250,-0.785134,-0.143497,0.655852,0.020510,0.035984,1.019285
2011-09-26T14:35:46.765799,3260,-0.865040,-0.127551,0.661480,0.020561,0.037874,1.020166
2011-09-26T14:35:46.775799,3270,-0.944947,-0.111606,0.667109,0.020612,0.039764,1.021046
2011-09-26T14:35:46.785799,3280,-1.024854,-0.095660,0.672737,0.020663,0.041655,1.021927
2011-09-26T14:35:46.795799,3290,-1.104760,-0.079715,0.678366,0.020714,0.043545,1.022807
2011-09-26T14:35:46.805799,3300,-1.184667,-0.063769,0.683994,0.020764,0.045436,1.023687
2011-09-26T14:35:46.815799,3310,-1.264573,-0.047824,0.689623,0.020815,0.047326,1.024568
2011-09-26T14:35:46.825799,3320,-1.326205,-0.031478,0.693693,0.020842,0.048598,1.024745
2011-09-26T14:35:46.835799,3330,-1.294419,-0.013084,0.689797,0.020748,0.046708,1.021330
2011-09-26T14:35:46.845799,3340,-1.262634,0.005309,0.685900,0.020653,0.044817,1.017914
2011-09-26T14:35:46.855799,3350,-1.230848,0.023703,0.682004,0.020558,0.042927,1.014498
2011-09-26T14:35:46.865799,3360,-1.199063,0.042096,0.678107,0.020464,0.041037,1.011083
2011-09-26T14:35:46.875799,3370,-1.167278,0.060490,0.674211,0.020369,0.039147,1.007667
2011-09-26T14:35:46.885799,3380,-1.135492,0.078883,0.670314,0.020274,0.037257,1.004251
2011-09-26T14:35:46.895799,3390,-1.103707,0.097277,0.666418,0.020179,0.035367,1.000835
2011-09-26T14:35:46.905799,3400,-1.071921,0.115670,0.662521,0.020085,0.033476,0.997420
2011-09-26T14:35:46.915799,3410,-1.040136,0.134064,0.658625,0.019990,0.031586,0.994004
2011-09-26T14:35:46.925799,3420,-1.001819,0.146271,0.656237,0.019778,0.029915,0.990973
2011-09-26T14:35:46.935799,3430,-0.930905,0.127603,0.661382,0.018979,0.029337,0.989864
2011-09-26T14:35:46.945799,3440,-0.859992,0.108935,0.666527,0.018181,0.028760,0.988755
2011-09-26T14:35:46.955799,3450,-0.789078,0.090266,0.671672,0.017382,0.028182,0.987646
2011-09-26T14:35:46.965799,3460,-0.718164,0.071598,0.676817,0.016583,0.027605,0.986536
2011-09-26T14:35:46.975799,3470,-0.647250,0.052930,0.681962,0.015784,0.027027,0.985427
2011-09-26T14:35:46.985799,3480,-0.576336,0.034262,0.687107,0.014986,0.026449,0.984318
2011-09-26T14:35:46.995799,3490,-0.505423,0.015594,0.692251,0.014187,0.025872,0.983208
2011-09-26T14:35:47.005799,3500,-0.434509,-0.003074,0.697396,0.013388,0.025294,0.982099
2011-09-26T14:35:47.015799,3510,-0.363595,-0.021742,0.702541,0.012590,0.024717,0.980990
2011-09-26T14:35:47.025799,3520,-0.315932,-0.025760,0.706220,0.011765,0.024745,0.980906
2011-09-26T14:35:47.035799,3530,-0.377883,0.039286,0.702987,0.010819,0.027628,0.985654
2011-09-26T14:35:47.045799,3540,-0.439834,0.104333,0.699753,0.009872,0.030511,0.990402
2011-09-26T14:35:47.055799,3550,-0.501785,0.169379,0.696520,0.008926,0.033394,0.995150
2011-09-26T14:35:47.065799,3560,-0.563736,0.234426,0.693287,0.007979,0.036277,0.999898
2011-09-26T14:35:47.075799,3570,-0.625687,0.299472,0.690054,0.007033,0.039160,1.004646
2011-09-26T14:35:47.085799,3580,-0.687638,0.364519,0.686821,0.006087,0.042043,1.009394
2011-09-26T14:35:47.095799,3590,-0.749588,0.429565,0.683588,0.005140,0.044926,1.014142
2011-09-26T14:35:47.105799,3600,-0.811539,0.494612,0.680355,0.004194,0.047809,1.018890
2011-09-26T14:35:47.115799,3610,-0.873490,0.559658,0.677122,0.003247,0.050692,1.023638
2011-09-26T14:35:47.125799,3620,-0.930801,0.624676,0.672043,0.002226,0.052835,1.027254
2011-09-26T14:35:47.135799,3630,-0.964669,0.689549,0.657641,0.000823,0.051241,1.025151
2011-09-26T14:35:47.145799,3640,-0.998536,0.754422,0.643238,-0.000579,0.049648,1.023048
2011-09-26T14:35:47.155799,3650,-1.032404,0.819294,0.628836,-0.001981,0.048054,1.020944
2011-09-26T14:35:47.165799,3660,-1.066271,0.884167,0.614434,-0.003383,0.046460,1.018841
2011-09-26T14:35:47.175799,3670,-1.100139,0.949040,0.600031,-0.004785,0.044866,1.016738
2011-09-26T14:35:47.185799,3680,-1.134006,1.013913,0.585629,-0.006187,0.043272,1.014635
2011-09-26T14:35:47.195799,3690,-1.167874,1.078786,0.571226,-0.007589,0.041678,1.012532
2011-09-26T14:35:47.205799,3700,-1.201741,1.143658,0.556824,-0.008991,0.040084,1.010428
2011-09-26T14:35:47.215799,3710,-1.235609,1.208531,0.542422,-0.010393,0.038490,1.008325
2011-09-26T14:35:47.225799,3720,-1.269476,1.273404,0.528019,-0.011795,0.036896,1.006222
2011-09-26T14:35:47.235799,3730,-1.298876,1.318980,0.519596,-0.013132,0.035328,1.004116
2011-09-26T14:35:47.245799,3740,-1.308400,1.278706,0.537771,-0.014182,0.033876,1.001997
2011-09-26T14:35:47.255799,3750,-1.317923,1.238432,0.555947,-0.015232,0.032423,0.999877
2011-09-26T14:35:47.265799,3760,-1.327446,1.198158,0.574123,-0.016281,0.030970,0.997758
2011-09-26T14:35:47.275799,3770,-1.336970,1.157884,0.592299,-0.017331,0.029517,0.995639
2011-09-26T14:35:47.285799,3780,-1.346493,1.117610,0.610474,-0.018381,0.028065,0.993520
2011-09-26T14:35:47.295799,3790,-1.356016,1.077335,0.628650,-0.019431,0.026612,0.991401
2011-09-26T14:35:47.305799,3800,-1.365539,1.037061,0.646826,-0.020480,0.025159,0.989282
2011-09-26T14:35:47.315799,3810,-1.375063,0.996787,0.665002,-0.021530,0.023707,0.987162
2011-09-26T14:35:47.325799,3820,-1.384586,0.956513,0.683178,-0.022580,0.022254,0.985043
2011-09-26T14:35:47.335799,3830,-1.380540,0.910497,0.698238,-0.023426,0.021023,0.983214
2011-09-26T14:35:47.345799,3840,-1.317342,0.839450,0.699716,-0.023384,0.020759,0.982646
2011-09-26T14:35:47.355799,3850,-1.254143,0.768403,0.701195,-0.023342,0.020495,0.982077
2011-09-26T14:35:47.365799,3860,-1.190945,0.697356,0.702674,-0.023300,0.020231,0.981509
2011-09-26T14:35:47.375799,3870,-1.127747,0.626309,0.704153,-0.023257,0.019966,0.980941
2011-09-26T14:35:47.385799,3880,-1.064549,0.555262,0.705632,-0.023215,0.019702,0.980373
2011-09-26T14:35:47.395799,3890,-1.001351,0.484215,0.707111,-0.023173,0.019438,0.979805
2011-09-26T14:35:47.405799,3900,-0.938152,0.413168,0.708589,-0.023131,0.019174,0.979237
2011-09-26T14:35:47.415799,3910,-0.874954,0.342121,0.710068,-0.023089,0.018909,0.978669
2011-09-26T14:35:47.425799,3920,-0.811756,0.271075,0.711547,-0.023047,0.018645,0.978101
2011-09-26T14:35:47.435799,3930,-0.748558,0.200028,0.713026,-0.023005,0.018381,0.977533
2011-09-26T14:35:47.445799,3940,-0.691795,0.136587,0.715138,-0.023215,0.018171,0.977340
2011-09-26T14:35:47.455799,3950,-0.661515,0.104445,0.719857,-0.024463,0.018184,0.978687
2011-09-26T14:35:47.465799,3960,-0.631234,0.072302,0.724576,-0.025710,0.018197,0.980035
2011-09-26T14:35:47.475799,3970,-0.600953,0.040160,0.729295,-0.026958,0.018209,0.981382
2011-09-26T14:35:47.485799,3980,-0.570672,0.008018,0.734013,-0.028205,0.018222,0.982729
2011-09-26T14:35:47.495799,3990,-0.540392,-0.024125,0.738732,-0.029453,0.018235,0.984077
2011-09-26T14:35:47.505799,4000,-0.510111,-0.056267,0.743451,-0.030700,0.018248,0.985424
2011-09-26T14:35:47.515799,4010,-0.479830,-0.088409,0.748170,-0.031948,0.018261,0.986772
2011-09-26T14:35:47.525799,4020,-0.449549,-0.120552,0.752889,-0.033195,0.018274,0.988119
2011-09-26T14:35:47.535799,4030,-0.419269,-0.152694,0.757608,-0.034443,0.018287,0.989467
2011-09-26T14:35:47.545799,4040,-0.391926,-0.182810,0.766182,-0.035334,0.018451,0.990818
2011-09-26T14:35:47.555799,4050,-0.376480,-0.204720,0.790365,-0.034781,0.019231,0.992184
2011-09-26T14:35:47.565799,4060,-0.361034,-0.226631,0.814549,-0.034229,0.020010,0.993551
2011-09-26T14:35:47.575799,4070,-0.345587,-0.248542,0.838732,-0.033677,0.020790,0.994917
2011-09-26T14:35:47.585799,4080,-0.330141,-0.270453,0.862915,-0.033125,0.021569,0.996284
2011-09-26T14:35:47.595799,4090,-0.314694,-0.292364,0.887099,-0.032573,0.022349,0.997650
2011-09-26T14:35:47.605799,4100,-0.299248,-0.314275,0.911282,-0.032021,0.023128,0.999017
2011-09-26T14:35:47.615799,4110,-0.283801,-0.336185,0.935465,-0.031469,0.023907,1.000383
2011-09-26T14:35:47.625799,4120,-0.268355,-0.358096,0.959648,-0.030917,0.024687,1.001750
2011-09-26T14:35:47.635799,4130,-0.252908,-0.380007,0.983832,-0.030365,0.025466,1.003116
2011-09-26T14:35:47.645799,4140,-0.239218,-0.389294,1.008345,-0.029886,0.026194,1.004266
2011-09-26T14:35:47.655799,4150,-0.232437,-0.348894,1.034156,-0.029695,0.026717,1.004564
2011-09-26T14:35:47.665799,4160,-0.225657,-0.308493,1.059967,-0.029505,0.027241,1.004861
2011-09-26T14:35:47.675799,4170,-0.218876,-0.268092,1.085777,-0.029315,0.027764,1.005159
2011-09-26T14:35:47.685799,4180,-0.212096,-0.227691,1.111588,-0.029124,0.028288,1.005456
2011-09-26T14:35:47.695799,4190,-0.205315,-0.187291,1.137399,-0.028934,0.028811,1.005754
2011-09-26T14:35:47.705799,4200,-0.198535,-0.146890,1.163210,-0.028744,0.029335,1.006052
2011-09-26T14:35:47.715799,4210,-0.191754,-0.106489,1.189021,-0.028553,0.029858,1.006349
2011-09-26T14:35:47.725799,4220,-0.184974,-0.066088,1.214832,-0.028363,0.030381,1.006647
2011-09-26T14:35:47.735799,4230,-0.178193,-0.025688,1.240643,-0.028172,0.030905,1.006945
2011-09-26T14:35:47.745799,4240,-0.171413,0.014713,1.266454,-0.027982,0.031428,1.007242
2011-09-26T14:35:47.755799,4250,-0.166040,0.057232,1.292486,-0.027892,0.031925,1.007538
2011-09-26T14:35:47.765799,4260,-0.166011,0.107793,1.319357,-0.028183,0.032323,1.007827
2011-09-26T14:35:47.775799,4270,-0.165982,0.158353,1.346228,-0.028474,0.032720,1.008117
2011-09-26T14:35:47.785799,4280,-0.165953,0.208914,1.373099,-0.028766,0.033118,1.008406
2011-09-26T14:35:47.795799,4290,-0.165925,0.259474,1.399970,-0.029057,0.033516,1.008695
2011-09-26T14:35:47.805799,4300,-0.165896,0.310035,1.426841,-0.029348,0.033913,1.008984
2011-09-26T14:35:47.815799,4310,-0.165867,0.360595,1.453712,-0.029639,0.034311,1.009273
2011-09-26T14:35:47.825799,4320,-0.165838,0.411156,1.480583,-0.029930,0.034708,1.009562
2011-09-26T14:35:47.835799,4330,-0.165809,0.461716,1.507453,-0.030221,0.035106,1.009852
2011-09-26T14:35:47.845799,4340,-0.165780,0.512277,1.534324,-0.030512,0.035503,1.010141
2011-09-26T14:35:47.855799,4350,-0.159247,0.557953,1.561772,-0.030793,0.035614,1.010115
2011-09-26T14:35:47.865799,4360,-0.128185,0.585208,1.591395,-0.031034,0.034645,1.008900
2011-09-26T14:35:47.875799,4370,-0.097123,0.612464,1.621018,-0.031276,0.033676,1.007685
2011-09-26T14:35:47.885799,4380,-0.066062,0.639719,1.650641,-0.031517,0.032708,1.006471
2011-09-26T14:35:47.895799,4390,-0.035000,0.666974,1.680264,-0.031758,0.031739,1.005256
2011-09-26T14:35:47.905799,4400,-0.003938,0.694230,1.709887,-0.032000,0.030770,1.004041
2011-09-26T14:35:47.915799,4410,0.027124,0.721485,1.739510,-0.032241,0.029801,1.002826
2011-09-26T14:35:47.925799,4420,0.058185,0.748741,1.769133,-0.032482,0.028832,1.001612
2011-09-26T14:35:47.935799,4430,0.089247,0.775996,1.798756,-0.032723,0.027863,1.000397
2011-09-26T14:35:47.945799,4440,0.120309,0.803252,1.828379,-0.032965,0.026894,0.999182
2011-09-26T14:35:47.955799,4450,0.140509,0.820074,1.855829,-0.033357,0.026425,0.998238
2011-09-26T14:35:47.965799,4460,0.120810,0.798576,1.875300,-0.034302,0.027790,0.998290
2011-09-26T14:35:47.975799,4470,0.101111,0.777079,1.894770,-0.035248,0.029155,0.998341
2011-09-26T14:35:47.985799,4480,0.081412,0.755581,1.914241,-0.036193,0.030520,0.998393
2011-09-26T14:35:47.995799,4490,0.061713,0.734083,1.933711,-0.037139,0.031885,0.998444
2011-09-26T14:35:48.005799,4500,0.042014,0.712585,1.953182,-0.038084,0.033250,0.998496
2011-09-26T14:35:48.015799,4510,0.022315,0.691087,1.972652,-0.039030,0.034615,0.998547
2011-09-26T14:35:48.025799,4520,0.002616,0.669589,1.992122,-0.039975,0.035980,0.998599
2011-09-26T14:35:48.035799,4530,-0.017083,0.648092,2.011593,-0.040921,0.037345,0.998650
2011-09-26T14:35:48.045799,4540,-0.036782,0.626594,2.031063,-0.041866,0.038711,0.998702
2011-09-26T14:35:48.055799,4550,-0.056480,0.605096,2.050534,-0.042811,0.040076,0.998753
2011-09-26T14:35:48.065799,4560,-0.078051,0.580515,2.064379,-0.043451,0.041293,0.998330
2011-09-26T14:35:48.075799,4570,-0.106239,0.545029,2.058329,-0.043006,0.041990,0.996230
2011-09-26T14:35:48.085799,4580,-0.134428,0.509543,2.052279,-0.042562,0.042686,0.994130
2011-09-26T14:35:48.095799,4590,-0.162616,0.474057,2.046229,-0.042117,0.043382,0.992029
2011-09-26T14:35:48.105799,4600,-0.190805,0.438572,2.040180,-0.041673,0.044078,0.989929
2011-09-26T14:35:48.115799,4610,-0.218993,0.403086,2.034130,-0.041228,0.044774,0.987828
2011-09-26T14:35:48.125799,4620,-0.247182,0.367600,2.028080,-0.040784,0.045470,0.985728
2011-09-26T14:35:48.135799,4630,-0.275370,0.332114,2.022030,-0.040340,0.046167,0.983628
2011-09-26T14:35:48.145799,4640,-0.303559,0.296628,2.015980,-0.039895,0.046863,0.981527
2011-09-26T14:35:48.155799,4650,-0.331747,0.261142,2.009930,-0.039451,0.047559,0.979427
2011-09-26T14:35:48.165799,4660,-0.361685,0.225211,2.006584,-0.039048,0.048021,0.978018
2011-09-26T14:35:48.175799,4670,-0.397903,0.187683,2.012941,-0.038798,0.047641,0.979089
2011-09-26T14:35:48.185799,4680,-0.434120,0.150154,2.019298,-0.038547,0.047262,0.980161
2011-09-26T14:35:48.195799,4690,-0.470338,0.112626,2.025656,-0.038296,0.046882,0.981233
2011-09-26T14:35:48.205799,4700,-0.506555,0.075097,2.032013,-0.038045,0.046503,0.982305
2011-09-26T14:35:48.215799,4710,-0.542773,0.037569,2.038370,-0.037794,0.046124,0.983377
2011-09-26T14:35:48.225799,4720,-0.578990,0.000040,2.044728,-0.037543,0.045744,0.984448
2011-09-26T14:35:48.235799,4730,-0.615208,-0.037489,2.051085,-0.037292,0.045365,0.985520
2011-09-26T14:35:48.245799,4740,-0.651425,-0.075017,2.057442,-0.037042,0.044985,0.986592
2011-09-26T14:35:48.255799,4750,-0.687643,-0.112546,2.063800,-0.036791,0.044606,0.987664
2011-09-26T14:35:48.265799,4760,-0.723861,-0.150074,2.070157,-0.036540,0.044226,0.988736
2011-09-26T14:35:48.275799,4770,-0.760078,-0.187602,2.076514,-0.036289,0.043847,0.989807
2011-09-26T14:35:48.285799,4780,-0.796295,-0.225130,2.082872,-0.036038,0.043468,0.990879
2011-09-26T14:35:48.295799,4790,-0.832512,-0.262658,2.089229,-0.035787,0.043088,0.991951
2011-09-26T14:35:48.305799,4800,-0.868729,-0.300187,2.095586,-0.035537,0.042709,0.993023
2011-09-26T14:35:48.315799,4810,-0.904946,-0.337715,2.101943,-0.035286,0.042329,0.994095
2011-09-26T14:35:48.325799,4820,-0.941164,-0.375243,2.108301,-0.035035,0.041950,0.995166
2011-09-26T14:35:48.335799,4830,-0.977381,-0.412771,2.114658,-0.034784,0.041570,0.996238
2011-09-26T14:35:48.345799,4840,-1.013598,-0.450299,2.121015,-0.034533,0.041191,0.997310
2011-09-26T14:35:48.355799,4850,-1.049815,-0.487827,2.127372,-0.034282,0.040812,0.998382
2011-09-26T14:35:48.365799,4860,-1.086032,-0.525355,2.133730,-0.034031,0.040432,0.999454
2011-09-26T14:35:48.375799,4870,-1.109283,-0.547831,2.135184,-0.033882,0.039717,1.000311
2011-09-26T14:35:48.385799,4880,-1.090283,-0.521257,2.120663,-0.034065,0.037910,1.000472
2011-09-26T14:35:48.395799,4890,-1.071283,-0.494684,2.106141,-0.034248,0.036102,1.000632
2011-09-26T14:35:48.405799,4900,-1.052282,-0.468110,2.091620,-0.034431,0.034294,1.000793
2011-09-26T14:35:48.415799,4910,-1.033282,-0.441536,2.077098,-0.034614,0.032487,1.000953
2011-09-26T14:35:48.425799,4920,-1.014282,-0.414963,2.062577,-0.034797,0.030679,1.001114
2011-09-26T14:35:48.435799,4930,-0.995281,-0.388389,2.048055,-0.034980,0.028871,1.001274
2011-09-26T14:35:48.445799,4940,-0.976281,-0.361815,2.033534,-0.035163,0.027064,1.001434
2011-09-26T14:35:48.455799,4950,-0.957281,-0.335242,2.019012,-0.035346,0.025256,1.001595
2011-09-26T14:35:48.465799,4960,-0.938280,-0.308668,2.004491,-0.035529,0.023448,1.001755
2011-09-26T14:35:48.475799,4970,-0.925130,-0.285050,1.987675,-0.035615,0.022394,1.002191
2011-09-26T14:35:48.485799,4980,-0.930753,-0.270918,1.963495,-0.035389,0.023757,1.003510
2011-09-26T14:35:48.495799,4990,-0.936375,-0.256786,1.939316,-0.035164,0.025119,1.004830
2011-09-26T14:35:48.505799,5000,-0.941997,-0.242654,1.915136,-0.034938,0.026482,1.006149
2011-09-26T14:35:48.515799,5010,-0.947620,-0.228521,1.890957,-0.034713,0.027845,1.007468
2011-09-26T14:35:48.525799,5020,-0.953242,-0.214389,1.866778,-0.034487,0.029207,1.008787
2011-09-26T14:35:48.535799,5030,-0.958864,-0.200257,1.842598,-0.034261,0.030570,1.010107
2011-09-26T14:35:48.545799,5040,-0.964487,-0.186125,1.818419,-0.034036,0.031933,1.011426
2011-09-26T14:35:48.555799,5050,-0.970109,-0.171992,1.794239,-0.033810,0.033295,1.012745
2011-09-26T14:35:48.565799,5060,-0.975732,-0.157860,1.770060,-0.033584,0.034658,1.014064
2011-09-26T14:35:48.575799,5070,-0.967372,-0.147116,1.738646,-0.033397,0.035502,1.014411
2011-09-26T14:35:48.585799,5080,-0.914859,-0.147069,1.684386,-0.033329,0.034705,1.011686
2011-09-26T14:35:48.595799,5090,-0.862346,-0.147022,1.630126,-0.033262,0.033909,1.008962
2011-09-26T14:35:48.605799,5100,-0.809833,-0.146975,1.575865,-0.033194,0.033112,1.006237
2011-09-26T14:35:48.615799,5110,-0.757320,-0.146928,1.521605,-0.033127,0.032316,1.003512
2011-09-26T14:35:48.625799,5120,-0.704807,-0.146881,1.467345,-0.033059,0.031520,1.000788
2011-09-26T14:35:48.635799,5130,-0.652294,-0.146834,1.413085,-0.032992,0.030723,0.998063
2011-09-26T14:35:48.645799,5140,-0.599780,-0.146787,1.358825,-0.032924,0.029927,0.995338
2011-09-26T14:35:48.655799,5150,-0.547267,-0.146740,1.304565,-0.032857,0.029131,0.992614
2011-09-26T14:35:48.665799,5160,-0.494754,-0.146693,1.250304,-0.032789,0.028334,0.989889
2011-09-26T14:35:48.675799,5170,-0.442241,-0.146646,1.196044,-0.032722,0.027538,0.987164
2011-09-26T14:35:48.685799,5180,-0.427896,-0.149090,1.151102,-0.032748,0.026880,0.985393
2011-09-26T14:35:48.695799,5190,-0.531484,-0.159230,1.134951,-0.033063,0.026648,0.986569
2011-09-26T14:35:48.705799,5200,-0.635072,-0.169370,1.118800,-0.033378,0.026417,0.987744
2011-09-26T14:35:48.715799,5210,-0.738660,-0.179511,1.102649,-0.033694,0.026186,0.988920
2011-09-26T14:35:48.725799,5220,-0.842249,-0.189651,1.086498,-0.034009,0.025954,0.990095
2011-09-26T14:35:48.735799,5230,-0.945837,-0.199791,1.070347,-0.034324,0.025723,0.991271
2011-09-26T14:35:48.745799,5240,-1.049425,-0.209931,1.054196,-0.034639,0.025492,0.992446
2011-09-26T14:35:48.755799,5250,-1.153013,-0.220072,1.038045,-0.034955,0.025261,0.993622
2011-09-26T14:35:48.765799,5260,-1.256601,-0.230212,1.021894,-0.035270,0.025029,0.994797
2011-09-26T14:35:48.775799,5270,-1.360190,-0.240352,1.005743,-0.035585,0.024798,0.995973
2011-09-26T14:35:48.785799,5280,-1.411850,-0.251357,0.986789,-0.035679,0.023983,0.997123
2011-09-26T14:35:48.795799,5290,-1.309714,-0.264921,0.959535,-0.035115,0.021438,0.998197
2011-09-26T14:35:48.805799,5300,-1.207579,-0.278485,0.932282,-0.034551,0.018893,0.999271
2011-09-26T14:35:48.815799,5310,-1.105444,-0.292049,0.905028,-0.033987,0.016349,1.000345
2011-09-26T14:35:48.825799,5320,-1.003309,-0.305614,0.877774,-0.033423,0.013804,1.001419
2011-09-26T14:35:48.835799,5330,-0.901173,-0.319178,0.850521,-0.032859,0.011259,1.002494
2011-09-26T14:35:48.845799,5340,-0.799038,-0.332742,0.823267,-0.032295,0.008715,1.003568
2011-09-26T14:35:48.855799,5350,-0.696903,-0.346306,0.796013,-0.031731,0.006170,1.004642
2011-09-26T14:35:48.865799,5360,-0.594767,-0.359871,0.768760,-0.031167,0.003626,1.005716
2011-09-26T14:35:48.875799,5370,-0.492632,-0.373435,0.741506,-0.030604,0.001081,1.006790
2011-09-26T14:35:48.885799,5380,-0.390497,-0.386999,0.714252,-0.030040,-0.001464,1.007864
2011-09-26T14:35:48.895799,5390,-0.317342,-0.409276,0.688494,-0.029565,-0.003304,1.008757
2011-09-26T14:35:48.905799,5400,-0.326196,-0.456209,0.666970,-0.029345,-0.003153,1.009135
2011-09-26T14:35:48.915799,5410,-0.335050,-0.503141,0.645446,-0.029124,-0.003002,1.009514
2011-09-26T14:35:48.925799,5420,-0.343903,-0.550074,0.623921,-0.028903,-0.002850,1.009892
2011-09-26T14:35:48.935799,5430,-0.352757,-0.597006,0.602397,-0.028683,-0.002699,1.010270
2011-09-26T14:35:48.945799,5440,-0.361611,-0.643938,0.580873,-0.028462,-0.002547,1.010649
2011-09-26T14:35:48.955799,5450,-0.370465,-0.690871,0.559348,-0.028241,-0.002396,1.011027
2011-09-26T14:35:48.965799,5460,-0.379319,-0.737803,0.537824,-0.028021,-0.002244,1.011406
2011-09-26T14:35:48.975799,5470,-0.388173,-0.784736,0.516300,-0.027800,-0.002093,1.011784
2011-09-26T14:35:48.985799,5480,-0.397027,-0.831668,0.494775,-0.027579,-0.001942,1.012162
2011-09-26T14:35:48.995799,5490,-0.398679,-0.860149,0.465776,-0.027009,-0.001871,1.011925
2011-09-26T14:35:49.005799,5500,-0.380480,-0.837770,0.416173,-0.025474,-0.002021,1.009992
2011-09-26T14:35:49.015799,5510,-0.362282,-0.815391,0.366569,-0.023939,-0.002171,1.008059
2011-09-26T14:35:49.025799,5520,-0.344083,-0.793013,0.316966,-0.022405,-0.002321,1.006126
2011-09-26T14:35:49.035799,5530,-0.325884,-0.770634,0.267363,-0.020870,-0.002472,1.004193
2011-09-26T14:35:49.045799,5540,-0.307686,-0.748255,0.217760,-0.019335,-0.002622,1.002260
2011-09-26T14:35:49.055799,5550,-0.289487,-0.725876,0.168156,-0.017800,-0.002772,1.000326
2011-09-26T14:35:49.065799,5560,-0.271288,-0.703497,0.118553,-0.016266,-0.002923,0.998393
2011-09-26T14:35:49.075799,5570,-0.253090,-0.681118,0.068950,-0.014731,-0.003073,0.996460
2011-09-26T14:35:49.085799,5580,-0.234891,-0.658739,0.019347,-0.013196,-0.003223,0.994527
2011-09-26T14:35:49.095799,5590,-0.270235,-0.607352,-0.029737,-0.011867,-0.002664,0.993366
2011-09-26T14:35:49.105799,5600,-0.448885,-0.478321,-0.077432,-0.011089,-0.000205,0.994271
2011-09-26T14:35:49.115799,5610,-0.627535,-0.349290,-0.125126,-0.010312,0.002253,0.995176
2011-09-26T14:35:49.125799,5620,-0.806185,-0.220259,-0.172821,-0.009534,0.004711,0.996081
2011-09-26T14:35:49.135799,5630,-0.984835,-0.091229,-0.220515,-0.008756,0.007170,0.996986
2011-09-26T14:35:49.145799,5640,-1.163486,0.037802,-0.268209,-0.007978,0.009628,0.997891
2011-09-26T14:35:49.155799,5650,-1.342136,0.166833,-0.315904,-0.007201,0.012086,0.998796
2011-09-26T14:35:49.165799,5660,-1.520786,0.295864,-0.363598,-0.006423,0.014545,0.999701
2011-09-26T14:35:49.175799,5670,-1.699436,0.424894,-0.411293,-0.005645,0.017003,1.000606
2011-09-26T14:35:49.185799,5680,-1.878086,0.553925,-0.458987,-0.004867,0.019461,1.001511
2011-09-26T14:35:49.195799,5690,-2.056736,0.682956,-0.506681,-0.004090,0.021920,1.002416
2011-09-26T14:35:49.205799,5700,-2.162191,0.802253,-0.562919,-0.004271,0.022117,1.002780
2011-09-26T14:35:49.215799,5710,-2.075736,0.896029,-0.641558,-0.006969,0.016384,1.001725
2011-09-26T14:35:49.225799,5720,-1.989281,0.989805,-0.720197,-0.009666,0.010651,1.000670
2011-09-26T14:35:49.235799,5730,-1.902825,1.083581,-0.798836,-0.012364,0.004919,0.999615
2011-09-26T14:35:49.245799,5740,-1.816370,1.177358,-0.877475,-0.015061,-0.000814,0.998559
2011-09-26T14:35:49.255799,5750,-1.729915,1.271134,-0.956114,-0.017759,-0.006547,0.997504
2011-09-26T14:35:49.265799,5760,-1.643459,1.364910,-1.034752,-0.020456,-0.012279,0.996449
2011-09-26T14:35:49.275799,5770,-1.557004,1.458686,-1.113391,-0.023154,-0.018012,0.995394
2011-09-26T14:35:49.285799,5780,-1.470549,1.552462,-1.192030,-0.025851,-0.023745,0.994338
2011-09-26T14:35:49.295799,5790,-1.384093,1.646238,-1.270669,-0.028548,-0.029477,0.993283
2011-09-26T14:35:49.305799,5800,-1.299052,1.723343,-1.322758,-0.030480,-0.033484,0.993805
2011-09-26T14:35:49.315799,5810,-1.217665,1.757387,-1.306269,-0.030435,-0.033034,0.998402
2011-09-26T14:35:49.325799,5820,-1.136278,1.791430,-1.289780,-0.030390,-0.032584,1.002998
2011-09-26T14:35:49.335799,5830,-1.054891,1.825474,-1.273291,-0.030345,-0.032134,1.007594
2011-09-26T14:35:49.345799,5840,-0.973504,1.859517,-1.256802,-0.030300,-0.031684,1.012190
2011-09-26T14:35:49.355799,5850,-0.892117,1.893561,-1.240313,-0.030255,-0.031233,1.016786
2011-09-26T14:35:49.365799,5860,-0.810730,1.927604,-1.223825,-0.030209,-0.030783,1.021383
2011-09-26T14:35:49.375799,5870,-0.729342,1.961648,-1.207336,-0.030164,-0.030333,1.025979
2011-09-26T14:35:49.385799,5880,-0.647955,1.995691,-1.190847,-0.030119,-0.029883,1.030575
2011-09-26T14:35:49.395799,5890,-0.566568,2.029735,-1.174358,-0.030074,-0.029433,1.035171
2011-09-26T14:35:49.405799,5900,-0.510493,2.019074,-1.160161,-0.030060,-0.028702,1.036572
2011-09-26T14:35:49.415799,5910,-0.518801,1.894703,-1.151792,-0.030124,-0.027256,1.029844
2011-09-26T14:35:49.425799,5920,-0.527109,1.770333,-1.143423,-0.030188,-0.025811,1.023116
2011-09-26T14:35:49.435799,5930,-0.535417,1.645963,-1.135054,-0.030253,-0.024366,1.016388
2011-09-26T14:35:49.445799,5940,-0.543725,1.521593,-1.126686,-0.030317,-0.022921,1.009660
2011-09-26T14:35:49.455799,5950,-0.552032,1.397222,-1.118317,-0.030382,-0.021476,1.002932
2011-09-26T14:35:49.465799,5960,-0.560340,1.272852,-1.109948,-0.030446,-0.020030,0.996204
2011-09-26T14:35:49.475799,5970,-0.568648,1.148482,-1.101579,-0.030510,-0.018585,0.989476
2011-09-26T14:35:49.485799,5980,-0.576956,1.024112,-1.093211,-0.030575,-0.017140,0.982748
2011-09-26T14:35:49.495799,5990,-0.585264,0.899741,-1.084842,-0.030639,-0.015695,0.976020
2011-09-26T14:35:49.505799,6000,-0.593572,0.775371,-1.076473,-0.030703,-0.014250,0.969292
2011-09-26T14:35:49.515799,6010,-0.616869,0.634446,-1.076999,-0.030973,-0.012483,0.964023
2011-09-26T14:35:49.525799,6020,-0.677383,0.452416,-1.099613,-0.031753,-0.009920,0.962374
2011-09-26T14:35:49.535799,6030,-0.737898,0.270386,-1.122226,-0.032533,-0.007356,0.960726
2011-09-26T14:35:49.545799,6040,-0.798413,0.088357,-1.144839,-0.033314,-0.004793,0.959077
2011-09-26T14:35:49.555799,6050,-0.858928,-0.093673,-1.167452,-0.034094,-0.002229,0.957429
2011-09-26T14:35:49.565799,6060,-0.919442,-0.275703,-1.190065,-0.034874,0.000334,0.955780
2011-09-26T14:35:49.575799,6070,-0.979957,-0.457733,-1.212679,-0.035654,0.002897,0.954132
2011-09-26T14:35:49.585799,6080,-1.040472,-0.639763,-1.235292,-0.036434,0.005461,0.952483
2011-09-26T14:35:49.595799,6090,-1.100987,-0.821793,-1.257905,-0.037214,0.008024,0.950835
2011-09-26T14:35:49.605799,6100,-1.161501,-1.003823,-1.280518,-0.037994,0.010588,0.949186
2011-09-26T14:35:49.615799,6110,-1.202807,-1.135722,-1.295556,-0.038236,0.011180,0.950086
2011-09-26T14:35:49.625799,6120,-1.194823,-1.138982,-1.291157,-0.037094,0.006714,0.957526
2011-09-26T14:35:49.635799,6130,-1.186838,-1.142242,-1.286757,-0.035952,0.002248,0.964965
2011-09-26T14:35:49.645799,6140,-1.178853,-1.145503,-1.282358,-0.034811,-0.002218,0.972404
2011-09-26T14:35:49.655799,6150,-1.170868,-1.148763,-1.277958,-0.033669,-0.006684,0.979844
2011-09-26T14:35:49.665799,6160,-1.162883,-1.152023,-1.273558,-0.032528,-0.011150,0.987283
2011-09-26T14:35:49.675799,6170,-1.154898,-1.155283,-1.269159,-0.031386,-0.015616,0.994722
2011-09-26T14:35:49.685799,6180,-1.146913,-1.158543,-1.264759,-0.030245,-0.020082,1.002162
2011-09-26T14:35:49.695799,6190,-1.138929,-1.161804,-1.260359,-0.029103,-0.024548,1.009601
2011-09-26T14:35:49.705799,6200,-1.130944,-1.165064,-1.255960,-0.027962,-0.029014,1.017040
2011-09-26T14:35:49.715799,6210,-1.108169,-1.145121,-1.245054,-0.027228,-0.032562,1.022626
2011-09-26T14:35:49.725799,6220,-1.049899,-1.069491,-1.218534,-0.027475,-0.033905,1.023764
2011-09-26T14:35:49.735799,6230,-0.991628,-0.993862,-1.192013,-0.027722,-0.035249,1.024902
2011-09-26T14:35:49.745799,6240,-0.933358,-0.918232,-1.165493,-0.027969,-0.036592,1.026040
2011-09-26T14:35:49.755799,6250,-0.875088,-0.842602,-1.138972,-0.028215,-0.037935,1.027178
2011-09-26T14:35:49.765799,6260,-0.816817,-0.766973,-1.112452,-0.028462,-0.039279,1.028316
2011-09-26T14:35:49.775799,6270,-0.758547,-0.691343,-1.085931,-0.028709,-0.040622,1.029454
2011-09-26T14:35:49.785799,6280,-0.700277,-0.615713,-1.059411,-0.028956,-0.041965,1.030591
2011-09-26T14:35:49.795799,6290,-0.642006,-0.540084,-1.032890,-0.029203,-0.043309,1.031729
2011-09-26T14:35:49.805799,6300,-0.583736,-0.464454,-1.006370,-0.029449,-0.044652,1.032867
2011-09-26T14:35:49.815799,6310,-0.525466,-0.388824,-0.979849,-0.029696,-0.045995,1.034005
2011-09-26T14:35:49.825799,6320,-0.459992,-0.330052,-0.963862,-0.029830,-0.046431,1.034277
2011-09-26T14:35:49.835799,6330,-0.378128,-0.309640,-0.971842,-0.029705,-0.044800,1.032578
2011-09-26T14:35:49.845799,6340,-0.296264,-0.289228,-0.979822,-0.029581,-0.043170,1.030878
2011-09-26T14:35:49.855799,6350,-0.214400,-0.268816,-0.987802,-0.029457,-0.041540,1.029179
2011-09-26T14:35:49.865799,6360,-0.132536,-0.248404,-0.995782,-0.029333,-0.039909,1.027480
2011-09-26T14:35:49.875799,6370,-0.050672,-0.227992,-1.003762,-0.029208,-0.038279,1.025781
2011-09-26T14:35:49.885799,6380,0.031192,-0.207580,-1.011742,-0.029084,-0.036648,1.024081
2011-09-26T14:35:49.895799,6390,0.113056,-0.187168,-1.019722,-0.028960,-0.035018,1.022382
2011-09-26T14:35:49.905799,6400,0.194920,-0.166756,-1.027702,-0.028836,-0.033387,1.020683
2011-09-26T14:35:49.915799,6410,0.276784,-0.146344,-1.035682,-0.028711,-0.031757,1.018984
2011-09-26T14:35:49.925799,6420,0.345403,-0.129722,-1.040197,-0.028475,-0.030578,1.016800
2011-09-26T14:35:49.935799,6430,0.384222,-0.121627,-1.036915,-0.027988,-0.030415,1.013527
2011-09-26T14:35:49.945799,6440,0.423041,-0.113532,-1.033633,-0.027501,-0.030251,1.010254
2011-09-26T14:35:49.955799,6450,0.461860,-0.105437,-1.030352,-0.027014,-0.030088,1.006980
2011-09-26T14:35:49.965799,6460,0.500679,-0.097342,-1.027070,-0.026526,-0.029925,1.003707
2011-09-26T14:35:49.975799,6470,0.539498,-0.089247,-1.023788,-0.026039,-0.029761,1.000434
2011-09-26T14:35:49.985799,6480,0.578317,-0.081152,-1.020506,-0.025552,-0.029598,0.997160
2011-09-26T14:35:49.995799,6490,0.617136,-0.073057,-1.017224,-0.025064,-0.029435,0.993887
2011-09-26T14:35:50.005799,6500,0.655955,-0.064962,-1.013942,-0.024577,-0.029271,0.990614
2011-09-26T14:35:50.015799,6510,0.694774,-0.056867,-1.010661,-0.024090,-0.029108,0.987341
2011-09-26T14:35:50.025799,6520,0.733652,-0.069917,-1.007332,-0.023684,-0.028575,0.985063
2011-09-26T14:35:50.035799,6530,0.772664,-0.130249,-1.003897,-0.023461,-0.027216,0.985012
2011-09-26T14:35:50.045799,6540,0.811675,-0.190580,-1.000463,-0.023238,-0.025857,0.984961
2011-09-26T14:35:50.055799,6550,0.850687,-0.250912,-0.997029,-0.023015,-0.024498,0.984910
2011-09-26T14:35:50.065799,6560,0.889698,-0.311244,-0.993595,-0.022792,-0.023139,0.984859
2011-09-26T14:35:50.075799,6570,0.928710,-0.371576,-0.990161,-0.022569,-0.021779,0.984808
2011-09-26T14:35:50.085799,6580,0.967721,-0.431907,-0.986727,-0.022347,-0.020420,0.984756
2011-09-26T14:35:50.095799,6590,1.006733,-0.492239,-0.983292,-0.022124,-0.019061,0.984705
2011-09-26T14:35:50.105799,6600,1.045744,-0.552571,-0.979858,-0.021901,-0.017702,0.984654
2011-09-26T14:35:50.115799,6610,1.084756,-0.612902,-0.976424,-0.021678,-0.016343,0.984603
2011-09-26T14:35:50.125799,6620,1.123767,-0.673234,-0.972990,-0.021455,-0.014984,0.984552
2011-09-26T14:35:50.135799,6630,1.147144,-0.748598,-0.972308,-0.020603,-0.014075,0.984703
2011-09-26T14:35:50.145799,6640,1.134661,-0.858443,-0.977938,-0.018307,-0.014197,0.985318
2011-09-26T14:35:50.155799,6650,1.122178,-0.968287,-0.983568,-0.016012,-0.014320,0.985932
2011-09-26T14:35:50.165799,6660,1.109695,-1.078131,-0.989197,-0.013716,-0.014443,0.986547
2011-09-26T14:35:50.175799,6670,1.097213,-1.187975,-0.994827,-0.011420,-0.014566,0.987161
2011-09-26T14:35:50.185799,6680,1.084730,-1.297819,-1.000457,-0.009125,-0.014689,0.987776
2011-09-26T14:35:50.195799,6690,1.072247,-1.407663,-1.006087,-0.006829,-0.014812,0.988390
2011-09-26T14:35:50.205799,6700,1.059764,-1.517507,-1.011717,-0.004533,-0.014935,0.989005
2011-09-26T14:35:50.215799,6710,1.047281,-1.627351,-1.017347,-0.002238,-0.015058,0.989619
2011-09-26T14:35:50.225799,6720,1.034798,-1.737196,-1.022977,0.000058,-0.015180,0.990234
2011-09-26T14:35:50.235799,6730,1.023156,-1.821059,-1.025635,0.001806,-0.015144,0.991329
2011-09-26T14:35:50.245799,6740,1.013286,-1.850145,-1.022029,0.002398,-0.014770,0.993437
2011-09-26T14:35:50.255799,6750,1.003416,-1.879230,-1.018423,0.002991,-0.014397,0.995545
2011-09-26T14:35:50.265799,6760,0.993546,-1.908316,-1.014817,0.003583,-0.014024,0.997653
2011-09-26T14:35:50.275799,6770,0.983676,-1.937401,-1.011211,0.004176,-0.013650,0.999762
2011-09-26T14:35:50.285799,6780,0.973806,-1.966487,-1.007605,0.004768,-0.013277,1.001870
2011-09-26T14:35:50.295799,6790,0.963936,-1.995572,-1.003999,0.005361,-0.012904,1.003978
2011-09-26T14:35:50.305799,6800,0.954066,-2.024658,-1.000393,0.005953,-0.012530,1.006086
2011-09-26T14:35:50.315799,6810,0.944196,-2.053743,-0.996787,0.006546,-0.012157,1.008194
2011-09-26T14:35:50.325799,6820,0.934326,-2.082829,-0.993181,0.007139,-0.011783,1.010303
2011-09-26T14:35:50.335799,6830,0.924456,-2.111914,-0.989575,0.007731,-0.011410,1.012411
2011-09-26T14:35:50.345799,6840,0.881529,-2.123525,-0.985810,0.008603,-0.010961,1.013858
2011-09-26T14:35:50.355799,6850,0.770229,-2.098992,-0.981718,0.010052,-0.010357,1.013936
2011-09-26T14:35:50.365799,6860,0.658928,-2.074459,-0.977626,0.011501,-0.009752,1.014015
2011-09-26T14:35:50.375799,6870,0.547627,-2.049925,-0.973534,0.012951,-0.009147,1.014094
2011-09-26T14:35:50.385799,6880,0.436327,-2.025392,-0.969442,0.014400,-0.008542,1.014172
2011-09-26T14:35:50.395799,6890,0.325026,-2.000859,-0.965350,0.015849,-0.007938,1.014251
2011-09-26T14:35:50.405799,6900,0.213725,-1.976325,-0.961258,0.017298,-0.007333,1.014329
2011-09-26T14:35:50.415799,6910,0.102424,-1.951792,-0.957166,0.018747,-0.006728,1.014408
2011-09-26T14:35:50.425799,6920,-0.008876,-1.927259,-0.953074,0.020197,-0.006124,1.014487
2011-09-26T14:35:50.435799,6930,-0.120177,-1.902725,-0.948981,0.021646,-0.005519,1.014565
2011-09-26T14:35:50.445799,6940,-0.138227,-1.838885,-0.953865,0.022676,-0.006583,1.014372
2011-09-26T14:35:50.455799,6950,0.034243,-1.694736,-0.977087,0.022849,-0.011055,1.013624
2011-09-26T14:35:50.465799,6960,0.206713,-1.550588,-1.000308,0.023023,-0.015528,1.012876
2011-09-26T14:35:50.475799,6970,0.379183,-1.406439,-1.023530,0.023196,-0.020001,1.012128
2011-09-26T14:35:50.485799,6980,0.551653,-1.262291,-1.046752,0.023369,-0.024473,1.011380
2011-09-26T14:35:50.495799,6990,0.724123,-1.118142,-1.069973,0.023542,-0.028946,1.010632
2011-09-26T14:35:50.505799,7000,0.896593,-0.973994,-1.093195,0.023716,-0.033419,1.009884
2011-09-26T14:35:50.515799,7010,1.069064,-0.829845,-1.116417,0.023889,-0.037891,1.009136
2011-09-26T14:35:50.525799,7020,1.241534,-0.685697,-1.139639,0.024062,-0.042364,1.008388
2011-09-26T14:35:50.535799,7030,1.414004,-0.541548,-1.162860,0.024236,-0.046837,1.007640
2011-09-26T14:35:50.545799,7040,1.526400,-0.412380,-1.161578,0.023783,-0.049475,1.008634
2011-09-26T14:35:50.555799,7050,1.519862,-0.312870,-1.111783,0.022090,-0.048481,1.013076
2011-09-26T14:35:50.565799,7060,1.513325,-0.213360,-1.061988,0.020397,-0.047487,1.017518
2011-09-26T14:35:50.575799,7070,1.506788,-0.113850,-1.012192,0.018704,-0.046493,1.021960
2011-09-26T14:35:50.585799,7080,1.500251,-0.014339,-0.962397,0.017011,-0.045498,1.026402
2011-09-26T14:35:50.595799,7090,1.493714,0.085171,-0.912602,0.015318,-0.044504,1.030844
2011-09-26T14:35:50.605799,7100,1.487177,0.184681,-0.862807,0.013625,-0.043510,1.035286
2011-09-26T14:35:50.615799,7110,1.480639,0.284191,-0.813012,0.011932,-0.042516,1.039728
2011-09-26T14:35:50.625799,7120,1.474102,0.383701,-0.763217,0.010239,-0.041522,1.044170
2011-09-26T14:35:50.635799,7130,1.467565,0.483211,-0.713422,0.008546,-0.040528,1.048612
2011-09-26T14:35:50.645799,7140,1.461028,0.582721,-0.663627,0.006853,-0.039534,1.053054
2011-09-26T14:35:50.655799,7150,1.493756,0.662458,-0.624383,0.005836,-0.036730,1.055003
2011-09-26T14:35:50.665799,7160,1.603940,0.703190,-0.605955,0.006151,-0.030357,1.052036
2011-09-26T14:35:50.675799,7170,1.714125,0.743922,-0.587527,0.006465,-0.023983,1.049068
2011-09-26T14:35:50.685799,7180,1.824309,0.784654,-0.569099,0.006780,-0.017610,1.046101
2011-09-26T14:35:50.695799,7190,1.934493,0.825386,-0.550671,0.007095,-0.011237,1.043133
2011-09-26T14:35:50.705799,7200,2.044677,0.866118,-0.532243,0.007410,-0.004863,1.040166
2011-09-26T14:35:50.715799,7210,2.154862,0.906850,-0.513815,0.007725,0.001510,1.037199
2011-09-26T14:35:50.725799,7220,2.265046,0.947582,-0.495387,0.008040,0.007883,1.034231
2011-09-26T14:35:50.735799,7230,2.375230,0.988314,-0.476959,0.008355,0.014257,1.031264
2011-09-26T14:35:50.745799,7240,2.485415,1.029046,-0.458531,0.008670,0.020630,1.028296
2011-09-26T14:35:50.755799,7250,2.528364,1.050035,-0.423546,0.008514,0.024731,1.024933
2011-09-26T14:35:50.765799,7260,2.443495,1.033491,-0.357086,0.007464,0.024510,1.020817
2011-09-26T14:35:50.775799,7270,2.358626,1.016947,-0.290625,0.006414,0.024290,1.016701
2011-09-26T14:35:50.785799,7280,2.273757,1.000402,-0.224165,0.005364,0.024070,1.012585
2011-09-26T14:35:50.795799,7290,2.188888,0.983858,-0.157704,0.004314,0.023849,1.008469
2011-09-26T14:35:50.805799,7300,2.104019,0.967314,-0.091244,0.003264,0.023629,1.004352
2011-09-26T14:35:50.815799,7310,2.019151,0.950770,-0.024783,0.002214,0.023409,1.000236
2011-09-26T14:35:50.825799,7320,1.934282,0.934226,0.041677,0.001164,0.023188,0.996120
2011-09-26T14:35:50.835799,7330,1.849413,0.917681,0.108138,0.000114,0.022968,0.992004
2011-09-26T14:35:50.845799,7340,1.764544,0.901137,0.174598,-0.000936,0.022748,0.987888
2011-09-26T14:35:50.855799,7350,1.676720,0.849341,0.241523,-0.001429,0.021176,0.982663
2011-09-26T14:35:50.865799,7360,1.583314,0.730942,0.309324,-0.000869,0.017051,0.975343
2011-09-26T14:35:50.875799,7370,1.489908,0.612542,0.377124,-0.000308,0.012926,0.968022
2011-09-26T14:35:50.885799,7380,1.396502,0.494142,0.444925,0.000252,0.008801,0.960702
2011-09-26T14:35:50.895799,7390,1.303096,0.375743,0.512726,0.000812,0.004676,0.953382
2011-09-26T14:35:50.905799,7400,1.209689,0.257343,0.580527,0.001372,0.000551,0.946061
2011-09-26T14:35:50.915799,7410,1.116283,0.138943,0.648328,0.001932,-0.003574,0.938741
2011-09-26T14:35:50.925799,7420,1.022877,0.020543,0.716129,0.002492,-0.007699,0.931421
2011-09-26T14:35:50.935799,7430,0.929471,-0.097856,0.783930,0.003052,-0.011824,0.924100
2011-09-26T14:35:50.945799,7440,0.836065,-0.216256,0.851731,0.003612,-0.015949,0.916780
2011-09-26T14:35:50.955799,7450,0.742658,-0.334656,0.919532,0.004172,-0.020074,0.909460
2011-09-26T14:35:50.965799,7460,0.746317,-0.477861,1.004506,0.004856,-0.021403,0.907011
2011-09-26T14:35:50.975799,7470,0.927180,-0.666351,1.120833,0.005763,-0.017628,0.913457
2011-09-26T14:35:50.985799,7480,1.108042,-0.854841,1.237159,0.006671,-0.013853,0.919903
2011-09-26T14:35:50.995799,7490,1.288905,-1.043332,1.353486,0.007579,-0.010077,0.926348
2011-09-26T14:35:51.005799,7500,1.469767,-1.231822,1.469812,0.008487,-0.006302,0.932794
2011-09-26T14:35:51.015799,7510,1.650630,-1.420312,1.586139,0.009395,-0.002526,0.939240
2011-09-26T14:35:51.025799,7520,1.831492,-1.608802,1.702465,0.010303,0.001249,0.945685
2011-09-26T14:35:51.035799,7530,2.012354,-1.797293,1.818792,0.011210,0.005025,0.952131
2011-09-26T14:35:51.045799,7540,2.193217,-1.985783,1.935118,0.012118,0.008800,0.958577
2011-09-26T14:35:51.055799,7550,2.374079,-2.174273,2.051445,0.013026,0.012576,0.965023
2011-09-26T14:35:51.065799,7560,2.474514,-2.279866,2.138059,0.014426,0.015571,0.972678
2011-09-26T14:35:51.075799,7570,2.430340,-2.236410,2.171251,0.016712,0.017163,0.982509
2011-09-26T14:35:51.085799,7580,2.386167,-2.192954,2.204444,0.018998,0.018756,0.992339
2011-09-26T14:35:51.095799,7590,2.341993,-2.149498,2.237636,0.021284,0.020348,1.002170
2011-09-26T14:35:51.105799,7600,2.297819,-2.106042,2.270828,0.023570,0.021941,1.012000
2011-09-26T14:35:51.115799,7610,2.253645,-2.062586,2.304020,0.025855,0.023533,1.021831
2011-09-26T14:35:51.125799,7620,2.209472,-2.019130,2.337212,0.028141,0.025125,1.031661
2011-09-26T14:35:51.135799,7630,2.165298,-1.975674,2.370405,0.030427,0.026718,1.041492
2011-09-26T14:35:51.145799,7640,2.121124,-1.932218,2.403597,0.032713,0.028310,1.051322
2011-09-26T14:35:51.155799,7650,2.076950,-1.888762,2.436789,0.034999,0.029903,1.061153
2011-09-26T14:35:51.165799,7660,2.029586,-1.824432,2.487344,0.036310,0.030453,1.065735
2011-09-26T14:35:51.175799,7670,1.976181,-1.720578,2.570776,0.035776,0.029028,1.060380
2011-09-26T14:35:51.185799,7680,1.922775,-1.616725,2.654208,0.035242,0.027603,1.055025
2011-09-26T14:35:51.195799,7690,1.869370,-1.512872,2.737639,0.034708,0.026178,1.049669
2011-09-26T14:35:51.205799,7700,1.815965,-1.409018,2.821071,0.034174,0.024754,1.044314
2011-09-26T14:35:51.215799,7710,1.762559,-1.305165,2.904503,0.033640,0.023329,1.038959
2011-09-26T14:35:51.225799,7720,1.709154,-1.201312,2.987934,0.033106,0.021904,1.033604
2011-09-26T14:35:51.235799,7730,1.655749,-1.097458,3.071366,0.032572,0.020480,1.028248
2011-09-26T14:35:51.245799,7740,1.602343,-0.993605,3.154798,0.032038,0.019055,1.022893
2011-09-26T14:35:51.255799,7750,1.548938,-0.889752,3.238229,0.031504,0.017630,1.017538
2011-09-26T14:35:51.265799,7760,1.495533,-0.785898,3.321661,0.030970,0.016206,1.012182
2011-09-26T14:35:51.275799,7770,1.524842,-0.748881,3.411625,0.031150,0.016169,1.009278
2011-09-26T14:35:51.285799,7780,1.694492,-0.825263,3.512672,0.032542,0.018486,1.010532
2011-09-26T14:35:51.295799,7790,1.864142,-0.901645,3.613719,0.033934,0.020803,1.011786
2011-09-26T14:35:51.305799,7800,2.033792,-0.978028,3.714766,0.035327,0.023121,1.013040
2011-09-26T14:35:51.315799,7810,2.203443,-1.054410,3.815813,0.036719,0.025438,1.014294
2011-09-26T14:35:51.325799,7820,2.373093,-1.130792,3.916860,0.038111,0.027755,1.015548
2011-09-26T14:35:51.335799,7830,2.542743,-1.207174,4.017907,0.039503,0.030073,1.016801
2011-09-26T14:35:51.345799,7840,2.712393,-1.283557,4.118954,0.040895,0.032390,1.018055
2011-09-26T14:35:51.355799,7850,2.882043,-1.359939,4.220001,0.042287,0.034707,1.019309
2011-09-26T14:35:51.365799,7860,3.051693,-1.436321,4.321048,0.043679,0.037024,1.020563
2011-09-26T14:35:51.375799,7870,3.130487,-1.448545,4.415072,0.045632,0.040761,1.020349
2011-09-26T14:35:51.385799,7880,3.055978,-1.352514,4.497245,0.048532,0.046891,1.017656
2011-09-26T14:35:51.395799,7890,2.981468,-1.256484,4.579419,0.051432,0.053022,1.014963
2011-09-26T14:35:51.405799,7900,2.906958,-1.160453,4.661592,0.054331,0.059152,1.012270
2011-09-26T14:35:51.415799,7910,2.832449,-1.064422,4.743766,0.057231,0.065283,1.009577
2011-09-26T14:35:51.425799,7920,2.757939,-0.968392,4.825939,0.060131,0.071413,1.006885
2011-09-26T14:35:51.435799,7930,2.683430,-0.872361,4.908113,0.063030,0.077544,1.004192
2011-09-26T14:35:51.445799,7940,2.608920,-0.776330,4.990286,0.065930,0.083674,1.001499
2011-09-26T14:35:51.455799,7950,2.534411,-0.680300,5.072460,0.068830,0.089805,0.998806
2011-09-26T14:35:51.465799,7960,2.459901,-0.584269,5.154633,0.071729,0.095936,0.996114
2011-09-26T14:35:51.475799,7970,2.353556,-0.463249,5.237973,0.074168,0.099856,0.994317
2011-09-26T14:35:51.485799,7980,2.194514,-0.300867,5.323244,0.075842,0.100119,0.994002
2011-09-26T14:35:51.495799,7990,2.035472,-0.138484,5.408515,0.077516,0.100382,0.993687
2011-09-26T14:35:51.505799,8000,1.876430,0.023899,5.493786,0.079190,0.100645,0.993373
2011-09-26T14:35:51.515799,8010,1.717388,0.186282,5.579058,0.080864,0.100907,0.993058
2011-09-26T14:35:51.525799,8020,1.558346,0.348664,5.664329,0.082538,0.101170,0.992744
2011-09-26T14:35:51.535799,8030,1.399304,0.511047,5.749600,0.084213,0.101433,0.992429
2011-09-26T14:35:51.545799,8040,1.240263,0.673430,5.834871,0.085887,0.101696,0.992115
2011-09-26T14:35:51.555799,8050,1.081221,0.835813,5.920142,0.087561,0.101958,0.991800
2011-09-26T14:35:51.565799,8060,0.922179,0.998195,6.005413,0.089235,0.102221,0.991486
2011-09-26T14:35:51.575799,8070,0.763137,1.160578,6.090684,0.090909,0.102484,0.991171
2011-09-26T14:35:51.585799,8080,0.652537,1.277553,6.138404,0.091847,0.102304,0.990371
2011-09-26T14:35:51.595799,8090,0.620039,1.321321,6.125585,0.091599,0.101409,0.988787
2011-09-26T14:35:51.605799,8100,0.587541,1.365088,6.112765,0.091350,0.100514,0.987204
2011-09-26T14:35:51.615799,8110,0.555043,1.408855,6.099945,0.091101,0.099619,0.985620
2011-09-26T14:35:51.625799,8120,0.522545,1.452623,6.087125,0.090852,0.098724,0.984036
2011-09-26T14:35:51.635799,8130,0.490046,1.496390,6.074305,0.090604,0.097829,0.982453
2011-09-26T14:35:51.645799,8140,0.457548,1.540157,6.061486,0.090355,0.096934,0.980869
2011-09-26T14:35:51.655799,8150,0.425050,1.583924,6.048666,0.090106,0.096039,0.979285
2011-09-26T14:35:51.665799,8160,0.392552,1.627692,6.035846,0.089857,0.095145,0.977702
2011-09-26T14:35:51.675799,8170,0.360053,1.671459,6.023026,0.089609,0.094250,0.976118
2011-09-26T14:35:51.685799,8180,0.382307,1.679378,6.016499,0.089778,0.092490,0.978775
2011-09-26T14:35:51.695799,8190,0.490963,1.630725,6.019902,0.090607,0.089366,0.988125
2011-09-26T14:35:51.705799,8200,0.599618,1.582073,6.023305,0.091436,0.086241,0.997475
2011-09-26T14:35:51.715799,8210,0.708273,1.533421,6.026708,0.092266,0.083117,1.006825
2011-09-26T14:35:51.725799,8220,0.816929,1.484768,6.030112,0.093095,0.079992,1.016175
2011-09-26T14:35:51.735799,8230,0.925584,1.436116,6.033515,0.093924,0.076868,1.025524
2011-09-26T14:35:51.745799,8240,1.034239,1.387464,6.036918,0.094753,0.073743,1.034874
2011-09-26T14:35:51.755799,8250,1.142894,1.338811,6.040321,0.095582,0.070619,1.044224
2011-09-26T14:35:51.765799,8260,1.251550,1.290159,6.043724,0.096411,0.067494,1.053574
2011-09-26T14:35:51.775799,8270,1.360205,1.241506,6.047127,0.097241,0.064370,1.062923
2011-09-26T14:35:51.785799,8280,1.409196,1.262586,6.060879,0.098580,0.063773,1.064899
2011-09-26T14:35:51.795799,8290,1.367108,1.390112,6.090427,0.100698,0.067035,1.055619
2011-09-26T14:35:51.805799,8300,1.325019,1.517639,6.119976,0.102817,0.070298,1.046338
2011-09-26T14:35:51.815799,8310,1.282931,1.645165,6.149524,0.104935,0.073560,1.037057
2011-09-26T14:35:51.825799,8320,1.240843,1.772692,6.179073,0.107053,0.076822,1.027777
2011-09-26T14:35:51.835799,8330,1.198754,1.900218,6.208621,0.109172,0.080084,1.018496
2011-09-26T14:35:51.845799,8340,1.156666,2.027745,6.238170,0.111290,0.083346,1.009215
2011-09-26T14:35:51.855799,8350,1.114578,2.155271,6.267719,0.113408,0.086608,0.999935
2011-09-26T14:35:51.865799,8360,1.072489,2.282798,6.297267,0.115527,0.089870,0.990654
2011-09-26T14:35:51.875799,8370,1.030401,2.410324,6.326816,0.117645,0.093132,0.981373
2011-09-26T14:35:51.885799,8380,0.988312,2.537850,6.356364,0.119763,0.096394,0.972093
2011-09-26T14:35:51.895799,8390,0.875988,2.602015,6.352390,0.121109,0.100881,0.963477
2011-09-26T14:35:51.905799,8400,0.660175,2.572820,6.299023,0.121314,0.107173,0.955841
2011-09-26T14:35:51.915799,8410,0.444362,2.543626,6.245655,0.121520,0.113464,0.948206
2011-09-26T14:35:51.925799,8420,0.228549,2.514431,6.192288,0.121726,0.119756,0.940570
2011-09-26T14:35:51.935799,8430,0.012736,2.485236,6.138920,0.121931,0.126047,0.932934
2011-09-26T14:35:51.945799,8440,-0.203077,2.456041,6.085553,0.122137,0.132339,0.925298
2011-09-26T14:35:51.955799,8450,-0.418890,2.426847,6.032185,0.122343,0.138630,0.917663
2011-09-26T14:35:51.965799,8460,-0.634702,2.397652,5.978818,0.122549,0.144922,0.910027
2011-09-26T14:35:51.975799,8470,-0.850515,2.368457,5.925450,0.122754,0.151214,0.902391
2011-09-26T14:35:51.985799,8480,-1.066328,2.339262,5.872083,0.122960,0.157505,0.894756
2011-09-26T14:35:51.995799,8490,-1.243460,2.263154,5.830303,0.122642,0.158163,0.892662
2011-09-26T14:35:52.005799,8500,-1.363321,2.117583,5.805682,0.121548,0.150479,0.898773
2011-09-26T14:35:52.015799,8510,-1.483181,1.972013,5.781060,0.120453,0.142795,0.904884
2011-09-26T14:35:52.025799,8520,-1.603042,1.826443,5.756438,0.119359,0.135112,0.910995
2011-09-26T14:35:52.035799,8530,-1.722902,1.680872,5.731817,0.118265,0.127428,0.917106
2011-09-26T14:35:52.045799,8540,-1.842763,1.535302,5.707195,0.117171,0.119744,0.923217
2011-09-26T14:35:52.055799,8550,-1.962623,1.389732,5.682574,0.116076,0.112060,0.929328
2011-09-26T14:35:52.065799,8560,-2.082484,1.244162,5.657952,0.114982,0.104377,0.935439
2011-09-26T14:35:52.075799,8570,-2.202344,1.098591,5.633330,0.113888,0.096693,0.941550
2011-09-26T14:35:52.085799,8580,-2.322205,0.953021,5.608709,0.112794,0.089009,0.947661
2011-09-26T14:35:52.095799,8590,-2.344759,0.847708,5.609195,0.112696,0.082857,0.955155
2011-09-26T14:35:52.105799,8600,-2.225197,0.801190,5.646353,0.114053,0.078941,0.964666
2011-09-26T14:35:52.115799,8610,-2.105636,0.754672,5.683510,0.115410,0.075026,0.974178
2011-09-26T14:35:52.125799,8620,-1.986074,0.708154,5.720667,0.116768,0.071110,0.983689
2011-09-26T14:35:52.135799,8630,-1.866513,0.661637,5.757824,0.118125,0.067195,0.993201
2011-09-26T14:35:52.145799,8640,-1.746951,0.615119,5.794981,0.119482,0.063279,1.002712
2011-09-26T14:35:52.155799,8650,-1.627389,0.568601,5.832138,0.120840,0.059364,1.012224
2011-09-26T14:35:52.165799,8660,-1.507828,0.522083,5.869296,0.122197,0.055448,1.021736
2011-09-26T14:35:52.175799,8670,-1.388266,0.475566,5.906453,0.123554,0.051533,1.031247
2011-09-26T14:35:52.185799,8680,-1.268705,0.429048,5.943610,0.124911,0.047617,1.040759
2011-09-26T14:35:52.195799,8690,-1.149143,0.382530,5.980767,0.126269,0.043702,1.050270
2011-09-26T14:35:52.205799,8700,-0.959969,0.382035,5.999594,0.127296,0.042290,1.054065
2011-09-26T14:35:52.215799,8710,-0.669913,0.448235,5.991855,0.127845,0.044508,1.049575
2011-09-26T14:35:52.225799,8720,-0.379858,0.514436,5.984117,0.128394,0.046727,1.045085
2011-09-26T14:35:52.235799,8730,-0.089802,0.580636,5.976379,0.128943,0.048945,1.040595
2011-09-26T14:35:52.245799,8740,0.200253,0.646837,5.968641,0.129492,0.051163,1.036105
2011-09-26T14:35:52.255799,8750,0.490309,0.713037,5.960903,0.130041,0.053381,1.031615
2011-09-26T14:35:52.265799,8760,0.780365,0.779237,5.953165,0.130590,0.055599,1.027125
2011-09-26T14:35:52.275799,8770,1.070420,0.845438,5.945427,0.131139,0.057817,1.022634
2011-09-26T14:35:52.285799,8780,1.360476,0.911638,5.937689,0.131688,0.060035,1.018144
2011-09-26T14:35:52.295799,8790,1.650531,0.977838,5.929951,0.132237,0.062253,1.013654
2011-09-26T14:35:52.305799,8800,1.750036,0.976529,5.918598,0.132421,0.065639,1.007439
2011-09-26T14:35:52.315799,8810,1.568065,0.875496,5.901904,0.132065,0.070749,0.998677
2011-09-26T14:35:52.325799,8820,1.386094,0.774463,5.885210,0.131710,0.075859,0.989914
2011-09-26T14:35:52.335799,8830,1.204123,0.673431,5.868517,0.131354,0.080970,0.981151
2011-09-26T14:35:52.345799,8840,1.022152,0.572398,5.851823,0.130999,0.086080,0.972388
2011-09-26T14:35:52.355799,8850,0.840181,0.471365,5.835129,0.130643,0.091191,0.963625
2011-09-26T14:35:52.365799,8860,0.658210,0.370332,5.818435,0.130288,0.096301,0.954863
2011-09-26T14:35:52.375799,8870,0.476239,0.269300,5.801742,0.129932,0.101412,0.946100
2011-09-26T14:35:52.385799,8880,0.294268,0.168267,5.785048,0.129577,0.106522,0.937337
2011-09-26T14:35:52.395799,8890,0.112296,0.067234,5.768354,0.129221,0.111632,0.928574
2011-09-26T14:35:52.405799,8900,-0.027869,-0.067111,5.759030,0.129324,0.114324,0.925014
2011-09-26T14:35:52.415799,8910,-0.110210,-0.247533,5.759898,0.130062,0.113669,0.928649
2011-09-26T14:35:52.425799,8920,-0.192551,-0.427955,5.760766,0.130800,0.113014,0.932285
2011-09-26T14:35:52.435799,8930,-0.274892,-0.608377,5.761634,0.131538,0.112359,0.935920
2011-09-26T14:35:52.445799,8940,-0.357232,-0.788799,5.762502,0.132275,0.111704,0.939556
2011-09-26T14:35:52.455799,8950,-0.439573,-0.969221,5.763370,0.133013,0.111050,0.943191
2011-09-26T14:35:52.465799,8960,-0.521914,-1.149643,5.764239,0.133751,0.110395,0.946827
2011-09-26T14:35:52.475799,8970,-0.604255,-1.330065,5.765107,0.134489,0.109740,0.950462
2011-09-26T14:35:52.485799,8980,-0.686596,-1.510487,5.765975,0.135226,0.109085,0.954098
2011-09-26T14:35:52.495799,8990,-0.768936,-1.690909,5.766843,0.135964,0.108431,0.957733
2011-09-26T14:35:52.505799,9000,-0.851277,-1.871331,5.767711,0.136702,0.107776,0.961369
2011-09-26T14:35:52.515799,9010,-0.923073,-1.949022,5.781642,0.137715,0.105945,0.967440
2011-09-26T14:35:52.525799,9020,-0.980638,-1.888071,5.813203,0.139099,0.102528,0.976798
2011-09-26T14:35:52.535799,9030,-1.038203,-1.827119,5.844763,0.140483,0.099110,0.986156
2011-09-26T14:35:52.545799,9040,-1.095768,-1.766168,5.876323,0.141867,0.095693,0.995515
2011-09-26T14:35:52.555799,9050,-1.153333,-1.705216,5.907884,0.143251,0.092275,1.004873
2011-09-26T14:35:52.565799,9060,-1.210898,-1.644265,5.939444,0.144635,0.088858,1.014231
2011-09-26T14:35:52.575799,9070,-1.268463,-1.583313,5.971004,0.146019,0.085440,1.023589
2011-09-26T14:35:52.585799,9080,-1.326028,-1.522362,6.002565,0.147403,0.082023,1.032948
2011-09-26T14:35:52.595799,9090,-1.383593,-1.461410,6.034125,0.148787,0.078605,1.042306
2011-09-26T14:35:52.605799,9100,-1.441158,-1.400459,6.065685,0.150171,0.075188,1.051664
2011-09-26T14:35:52.615799,9110,-1.423052,-1.312535,6.087039,0.150778,0.072636,1.057158
2011-09-26T14:35:52.625799,9120,-1.299669,-1.187087,6.094192,0.150301,0.071290,1.057277
2011-09-26T14:35:52.635799,9130,-1.176285,-1.061639,6.101345,0.149825,0.069944,1.057395
2011-09-26T14:35:52.645799,9140,-1.052902,-0.936191,6.108498,0.149349,0.068598,1.057514
2011-09-26T14:35:52.655799,9150,-0.929519,-0.810743,6.115651,0.148873,0.067251,1.057632
2011-09-26T14:35:52.665799,9160,-0.806135,-0.685295,6.122804,0.148397,0.065905,1.057751
2011-09-26T14:35:52.675799,9170,-0.682752,-0.559847,6.129957,0.147920,0.064559,1.057869
2011-09-26T14:35:52.685799,9180,-0.559369,-0.434399,6.137110,0.147444,0.063212,1.057988
2011-09-26T14:35:52.695799,9190,-0.435985,-0.308951,6.144263,0.146968,0.061866,1.058106
2011-09-26T14:35:52.705799,9200,-0.312602,-0.183503,6.151416,0.146492,0.060520,1.058225
2011-09-26T14:35:52.715799,9210,-0.189219,-0.058055,6.158569,0.146016,0.059174,1.058343
2011-09-26T14:35:52.725799,9220,-0.090336,-0.002851,6.143467,0.145737,0.059209,1.056240
2011-09-26T14:35:52.735799,9230,-0.023274,-0.038882,6.099458,0.145713,0.061040,1.051252
2011-09-26T14:35:52.745799,9240,0.043787,-0.074912,6.055449,0.145690,0.062871,1.046265
2011-09-26T14:35:52.755799,9250,0.110849,-0.110942,6.011440,0.145667,0.064702,1.041277
2011-09-26T14:35:52.765799,9260,0.177910,-0.146972,5.967431,0.145644,0.066532,1.036289
2011-09-26T14:35:52.775799,9270,0.244971,-0.183002,5.923422,0.145620,0.068363,1.031301
2011-09-26T14:35:52.785799,9280,0.312033,-0.219032,5.879413,0.145597,0.070194,1.026313
2011-09-26T14:35:52.795799,9290,0.379094,-0.255062,5.835405,0.145574,0.072025,1.021325
2011-09-26T14:35:52.805799,9300,0.446156,-0.291093,5.791396,0.145551,0.073855,1.016337
2011-09-26T14:35:52.815799,9310,0.513217,-0.327123,5.747387,0.145528,0.075686,1.011349
2011-09-26T14:35:52.825799,9320,0.586876,-0.326070,5.673055,0.146015,0.076647,1.007844
2011-09-26T14:35:52.835799,9330,0.668957,-0.277668,5.560005,0.147156,0.076496,1.006231
2011-09-26T14:35:52.845799,9340,0.751038,-0.229266,5.446955,0.148297,0.076345,1.004618
2011-09-26T14:35:52.855799,9350,0.833119,-0.180865,5.333905,0.149437,0.076194,1.003005
2011-09-26T14:35:52.865799,9360,0.915200,-0.132463,5.220856,0.150578,0.076043,1.001392
2011-09-26T14:35:52.875799,9370,0.997281,-0.084061,5.107806,0.151718,0.075892,0.999779
2011-09-26T14:35:52.885799,9380,1.079363,-0.035660,4.994756,0.152859,0.075741,0.998166
2011-09-26T14:35:52.895799,9390,1.161444,0.012742,4.881706,0.153999,0.075590,0.996553
2011-09-26T14:35:52.905799,9400,1.243525,0.061144,4.768657,0.155140,0.075439,0.994940
2011-09-26T14:35:52.915799,9410,1.325606,0.109545,4.655607,0.156280,0.075288,0.993327
2011-09-26T14:35:52.925799,9420,1.313715,0.126086,4.561268,0.156117,0.075769,0.991101
2011-09-26T14:35:52.935799,9430,1.185565,0.103210,4.490078,0.154339,0.077031,0.988114
2011-09-26T14:35:52.945799,9440,1.057416,0.080334,4.418888,0.152562,0.078294,0.985127
2011-09-26T14:35:52.955799,9450,0.929266,0.057458,4.347698,0.150784,0.079557,0.982141
2011-09-26T14:35:52.965799,9460,0.801116,0.034582,4.276508,0.149007,0.080819,0.979154
2011-09-26T14:35:52.975799,9470,0.672967,0.011706,4.205318,0.147230,0.082082,0.976167
2011-09-26T14:35:52.985799,9480,0.544817,-0.011170,4.134128,0.145452,0.083345,0.973181
2011-09-26T14:35:52.995799,9490,0.416667,-0.034046,4.062938,0.143675,0.084608,0.970194
2011-09-26T14:35:53.005799,9500,0.288518,-0.056922,3.991748,0.141897,0.085870,0.967208
2011-09-26T14:35:53.015799,9510,0.160368,-0.079798,3.920558,0.140120,0.087133,0.964221
2011-09-26T14:35:53.025799,9520,0.032218,-0.102674,3.849368,0.138343,0.088396,0.961234
2011-09-26T14:35:53.035799,9530,-0.076789,-0.156110,3.775285,0.137518,0.088672,0.962038
2011-09-26T14:35:53.045799,9540,-0.162259,-0.247123,3.697644,0.137866,0.087735,0.967501
2011-09-26T14:35:53.055799,9550,-0.247729,-0.338135,3.620004,0.138213,0.086798,0.972965
2011-09-26T14:35:53.065799,9560,-0.333199,-0.429148,3.542363,0.138561,0.085862,0.978429
2011-09-26T14:35:53.075799,9570,-0.418669,-0.520160,3.464723,0.138909,0.084925,0.983893
2011-09-26T14:35:53.085799,9580,-0.504139,-0.611173,3.387082,0.139256,0.083988,0.989356
2011-09-26T14:35:53.095799,9590,-0.589609,-0.702185,3.309442,0.139604,0.083051,0.994820
2011-09-26T14:35:53.105799,9600,-0.675079,-0.793198,3.231801,0.139952,0.082115,1.000284
2011-09-26T14:35:53.115799,9610,-0.760549,-0.884210,3.154160,0.140299,0.081178,1.005747
2011-09-26T14:35:53.125799,9620,-0.846019,-0.975223,3.076520,0.140647,0.080241,1.011211
2011-09-26T14:35:53.135799,9630,-0.938635,-1.006987,3.000741,0.140906,0.079272,1.015587
2011-09-26T14:35:53.145799,9640,-1.040786,-0.959696,2.927445,0.141047,0.078259,1.018513
2011-09-26T14:35:53.155799,9650,-1.142937,-0.912405,2.854150,0.141187,0.077247,1.021438
2011-09-26T14:35:53.165799,9660,-1.245087,-0.865114,2.780854,0.141328,0.076234,1.024364
2011-09-26T14:35:53.175799,9670,-1.347238,-0.817822,2.707559,0.141469,0.075222,1.027289
2011-09-26T14:35:53.185799,9680,-1.449389,-0.770531,2.634263,0.141610,0.074209,1.030215
2011-09-26T14:35:53.195799,9690,-1.551540,-0.723240,2.560968,0.141751,0.073196,1.033140
2011-09-26T14:35:53.205799,9700,-1.653690,-0.675949,2.487672,0.141892,0.072184,1.036065
2011-09-26T14:35:53.215799,9710,-1.755841,-0.628658,2.414377,0.142032,0.071171,1.038991
2011-09-26T14:35:53.225799,9720,-1.857992,-0.581367,2.341081,0.142173,0.070159,1.041916
2011-09-26T14:35:53.235799,9730,-1.854601,-0.613376,2.297912,0.141892,0.066515,1.040501
2011-09-26T14:35:53.245799,9740,-1.725613,-0.739756,2.290593,0.141108,0.059739,1.033921
2011-09-26T14:35:53.255799,9750,-1.596626,-0.866136,2.283275,0.140324,0.052962,1.027341
2011-09-26T14:35:53.265799,9760,-1.467638,-0.992515,2.275956,0.139541,0.046186,1.020760
2011-09-26T14:35:53.275799,9770,-1.338650,-1.118895,2.268638,0.138757,0.039410,1.014180
2011-09-26T14:35:53.285799,9780,-1.209663,-1.245274,2.261319,0.137973,0.032634,1.007600
2011-09-26T14:35:53.295799,9790,-1.080675,-1.371654,2.254000,0.137190,0.025858,1.001019
2011-09-26T14:35:53.305799,9800,-0.951687,-1.498034,2.246682,0.136406,0.019082,0.994439
2011-09-26T14:35:53.315799,9810,-0.822700,-1.624413,2.239363,0.135622,0.012306,0.987858
2011-09-26T14:35:53.325799,9820,-0.693712,-1.750793,2.232045,0.134839,0.005530,0.981278
2011-09-26T14:35:53.335799,9830,-0.564724,-1.877172,2.224726,0.134055,-0.001246,0.974698
2011-09-26T14:35:53.345799,9840,-0.499127,-1.960643,2.219229,0.134202,-0.002297,0.973648
2011-09-26T14:35:53.355799,9850,-0.505042,-1.995708,2.215787,0.135399,0.003111,0.978836
2011-09-26T14:35:53.365799,9860,-0.510956,-2.030772,2.212344,0.136596,0.008519,0.984025
2011-09-26T14:35:53.375799,9870,-0.516871,-2.065837,2.208902,0.137793,0.013926,0.989214
2011-09-26T14:35:53.385799,9880,-0.522786,-2.100902,2.205460,0.138990,0.019334,0.994402
2011-09-26T14:35:53.395799,9890,-0.528700,-2.135966,2.202017,0.140187,0.024742,0.999591
2011-09-26T14:35:53.405799,9900,-0.534615,-2.171031,2.198575,0.141384,0.030149,1.004780
2011-09-26T14:35:53.415799,9910,-0.540530,-2.206096,2.195133,0.142581,0.035557,1.009968
2011-09-26T14:35:53.425799,9920,-0.546444,-2.241160,2.191690,0.143778,0.040965,1.015157
2011-09-26T14:35:53.435799,9930,-0.552359,-2.276225,2.188248,0.144974,0.046372,1.020346
2011-09-26T14:35:53.445799,9940,-0.564877,-2.265510,2.146641,0.145571,0.049052,1.023179
2011-09-26T14:35:53.455799,9950,-0.584900,-2.202759,2.061654,0.145486,0.048630,1.023334
2011-09-26T14:35:53.465799,9960,-0.604924,-2.140008,1.976668,0.145401,0.048207,1.023490
2011-09-26T14:35:53.475799,9970,-0.624947,-2.077257,1.891681,0.145316,0.047785,1.023645
2011-09-26T14:35:53.485799,9980,-0.644970,-2.014506,1.806694,0.145231,0.047363,1.023800
2011-09-26T14:35:53.495799,9990,-0.664994,-1.951756,1.721707,0.145146,0.046941,1.023956
2011-09-26T14:35:53.505799,10000,-0.685017,-1.889005,1.636720,0.145061,0.046519,1.024111
2011-09-26T14:35:53.515799,10010,-0.705040,-1.826254,1.551733,0.144976,0.046097,1.024267
2011-09-26T14:35:53.525799,10020,-0.725064,-1.763503,1.466746,0.144891,0.045675,1.024422
2011-09-26T14:35:53.535799,10030,-0.745087,-1.700752,1.381759,0.144806,0.045253,1.024578
2011-09-26T14:35:53.545799,10040,-0.812864,-1.644144,1.316744,0.144593,0.044960,1.025422
2011-09-26T14:35:53.555799,10050,-0.933188,-1.594296,1.273706,0.144238,0.044811,1.027025
2011-09-26T14:35:53.565799,10060,-1.053513,-1.544447,1.230668,0.143883,0.044662,1.028628
2011-09-26T14:35:53.575799,10070,-1.173838,-1.494599,1.187629,0.143529,0.044513,1.030231
2011-09-26T14:35:53.585799,10080,-1.294162,-1.444751,1.144591,0.143174,0.044364,1.031834
2011-09-26T14:35:53.595799,10090,-1.414487,-1.394902,1.101553,0.142820,0.044215,1.033437
2011-09-26T14:35:53.605799,10100,-1.534812,-1.345054,1.058515,0.142465,0.044066,1.035040
2011-09-26T14:35:53.615799,10110,-1.655136,-1.295206,1.015477,0.142110,0.043917,1.036643
2011-09-26T14:35:53.625799,10120,-1.775461,-1.245358,0.972438,0.141756,0.043768,1.038246
2011-09-26T14:35:53.635799,10130,-1.895786,-1.195509,0.929400,0.141401,0.043619,1.039848
2011-09-26T14:35:53.645799,10140,-2.016110,-1.145661,0.886362,0.141046,0.043470,1.041451
2011-09-26T14:35:53.655799,10150,-2.086410,-1.069088,0.835622,0.140587,0.042132,1.041848
2011-09-26T14:35:53.665799,10160,-2.102144,-0.963366,0.776482,0.140014,0.039498,1.040929
2011-09-26T14:35:53.675799,10170,-2.117878,-0.857643,0.717341,0.139441,0.036863,1.040010
2011-09-26T14:35:53.685799,10180,-2.133612,-0.751921,0.658201,0.138868,0.034228,1.039090
2011-09-26T14:35:53.695799,10190,-2.149346,-0.646199,0.599061,0.138295,0.031593,1.038171
2011-09-26T14:35:53.705799,10200,-2.165080,-0.540476,0.539920,0.137722,0.028958,1.037252
2011-09-26T14:35:53.715799,10210,-2.180814,-0.434754,0.480780,0.137149,0.026323,1.036333
2011-09-26T14:35:53.725799,10220,-2.196549,-0.329031,0.421639,0.136576,0.023688,1.035414
2011-09-26T14:35:53.735799,10230,-2.212283,-0.223309,0.362499,0.136003,0.021053,1.034495
2011-09-26T14:35:53.745799,10240,-2.228017,-0.117587,0.303359,0.135430,0.018418,1.033575
2011-09-26T14:35:53.755799,10250,-2.195608,-0.056421,0.262847,0.134389,0.014792,1.032030
2011-09-26T14:35:53.765799,10260,-2.111814,-0.042811,0.242219,0.132847,0.010108,1.029815
2011-09-26T14:35:53.775799,10270,-2.028019,-0.029201,0.221591,0.131306,0.005424,1.027601
2011-09-26T14:35:53.785799,10280,-1.944225,-0.015592,0.200963,0.129765,0.000740,1.025386
2011-09-26T14:35:53.795799,10290,-1.860431,-0.001982,0.180335,0.128224,-0.003944,1.023172
2011-09-26T14:35:53.805799,10300,-1.776637,0.011628,0.159707,0.126682,-0.008628,1.020958
2011-09-26T14:35:53.815799,10310,-1.692843,0.025237,0.139079,0.125141,-0.013312,1.018743
2011-09-26T14:35:53.825799,10320,-1.609049,0.038847,0.118451,0.123600,-0.017996,1.016529
2011-09-26T14:35:53.835799,10330,-1.525255,0.052456,0.097823,0.122058,-0.022680,1.014314
2011-09-26T14:35:53.845799,10340,-1.441461,0.066066,0.077195,0.120517,-0.027364,1.012100
2011-09-26T14:35:53.855799,10350,-1.387563,0.079364,0.076201,0.119138,-0.028617,1.009903
2011-09-26T14:35:53.865799,10360,-1.365649,0.092329,0.096211,0.117933,-0.026199,1.007726
2011-09-26T14:35:53.875799,10370,-1.343735,0.105294,0.116221,0.116728,-0.023780,1.005549
2011-09-26T14:35:53.885799,10380,-1.321821,0.118259,0.136231,0.115523,-0.021362,1.003372
2011-09-26T14:35:53.895799,10390,-1.299907,0.131223,0.156241,0.114317,-0.018944,1.001195
2011-09-26T14:35:53.905799,10400,-1.277992,0.144188,0.176251,0.113112,-0.016525,0.999018
2011-09-26T14:35:53.915799,10410,-1.256078,0.157153,0.196261,0.111907,-0.014107,0.996841
2011-09-26T14:35:53.925799,10420,-1.234164,0.170118,0.216271,0.110702,-0.011689,0.994664
2011-09-26T14:35:53.935799,10430,-1.212250,0.183083,0.236281,0.109497,-0.009270,0.992486
2011-09-26T14:35:53.945799,10440,-1.190336,0.196048,0.256291,0.108292,-0.006852,0.990309
2011-09-26T14:35:53.955799,10450,-1.168422,0.209012,0.276302,0.107086,-0.004434,0.988132
2011-09-26T14:35:53.965799,10460,-1.159391,0.238713,0.264656,0.106098,-0.002571,0.986995
2011-09-26T14:35:53.975799,10470,-1.163636,0.285659,0.220391,0.105334,-0.001280,0.986928
2011-09-26T14:35:53.985799,10480,-1.167880,0.332605,0.176127,0.104569,0.000010,0.986861
2011-09-26T14:35:53.995799,10490,-1.172125,0.379551,0.131862,0.103804,0.001301,0.986795
2011-09-26T14:35:54.005799,10500,-1.176369,0.426497,0.087597,0.103040,0.002591,0.986728
2011-09-26T14:35:54.015799,10510,-1.180614,0.473443,0.043333,0.102275,0.003881,0.986662
2011-09-26T14:35:54.025799,10520,-1.184858,0.520389,-0.000932,0.101511,0.005172,0.986595
2011-09-26T14:35:54.035799,10530,-1.189102,0.567335,-0.045197,0.100746,0.006462,0.986529
2011-09-26T14:35:54.045799,10540,-1.193347,0.614281,-0.089461,0.099981,0.007753,0.986462
2011-09-26T14:35:54.055799,10550,-1.197591,0.661226,-0.133726,0.099217,0.009043,0.986396
2011-09-26T14:35:54.065799,10560,-1.218822,0.661173,-0.170584,0.098128,0.008535,0.987833
2011-09-26T14:35:54.075799,10570,-1.257305,0.613384,-0.199921,0.096711,0.006198,0.990798
2011-09-26T14:35:54.085799,10580,-1.295788,0.565594,-0.229258,0.095293,0.003862,0.993762
2011-09-26T14:35:54.095799,10590,-1.334270,0.517805,-0.258595,0.093875,0.001526,0.996727
2011-09-26T14:35:54.105799,10600,-1.372753,0.470016,-0.287931,0.092458,-0.000810,0.999692
2011-09-26T14:35:54.115799,10610,-1.411236,0.422227,-0.317268,0.091040,-0.003147,1.002657
2011-09-26T14:35:54.125799,10620,-1.449719,0.374438,-0.346605,0.089622,-0.005483,1.005621
2011-09-26T14:35:54.135799,10630,-1.488201,0.326649,-0.375942,0.088205,-0.007819,1.008586
2011-09-26T14:35:54.145799,10640,-1.526684,0.278860,-0.405278,0.086787,-0.010156,1.011551
2011-09-26T14:35:54.155799,10650,-1.565167,0.231071,-0.434615,0.085369,-0.012492,1.014515
2011-09-26T14:35:54.165799,10660,-1.603649,0.183282,-0.463952,0.083952,-0.014828,1.017480
2011-09-26T14:35:54.175799,10670,-1.587547,0.152148,-0.487770,0.083083,-0.015793,1.018315
2011-09-26T14:35:54.185799,10680,-1.516534,0.137768,-0.506036,0.082765,-0.015377,1.017007
2011-09-26T14:35:54.195799,10690,-1.445520,0.123388,-0.524303,0.082448,-0.014962,1.015700
2011-09-26T14:35:54.205799,10700,-1.374507,0.109008,-0.542569,0.082131,-0.014547,1.014392
2011-09-26T14:35:54.215799,10710,-1.303493,0.094628,-0.560836,0.081813,-0.014132,1.013084
2011-09-26T14:35:54.225799,10720,-1.232480,0.080248,-0.579102,0.081496,-0.013716,1.011777
2011-09-26T14:35:54.235799,10730,-1.161466,0.065868,-0.597369,0.081178,-0.013301,1.010469
2011-09-26T14:35:54.245799,10740,-1.090453,0.051488,-0.615635,0.080861,-0.012886,1.009161
2011-09-26T14:35:54.255799,10750,-1.019439,0.037108,-0.633902,0.080544,-0.012471,1.007854
2011-09-26T14:35:54.265799,10760,-0.948426,0.022728,-0.652168,0.080226,-0.012055,1.006546
2011-09-26T14:35:54.275799,10770,-0.947296,-0.006949,-0.678072,0.079908,-0.011647,1.004446
2011-09-26T14:35:54.285799,10780,-1.013497,-0.051365,-0.711333,0.079588,-0.011247,1.001582
2011-09-26T14:35:54.295799,10790,-1.079699,-0.095780,-0.744595,0.079268,-0.010846,0.998719
2011-09-26T14:35:54.305799,10800,-1.145901,-0.140195,-0.777857,0.078948,-0.010445,0.995855
2011-09-26T14:35:54.315799,10810,-1.212102,-0.184611,-0.811119,0.078628,-0.010045,0.992992
2011-09-26T14:35:54.325799,10820,-1.278304,-0.229026,-0.844381,0.078308,-0.009644,0.990128
2011-09-26T14:35:54.335799,10830,-1.344505,-0.273441,-0.877642,0.077988,-0.009243,0.987265
2011-09-26T14:35:54.345799,10840,-1.410707,-0.317857,-0.910904,0.077668,-0.008843,0.984401
2011-09-26T14:35:54.355799,10850,-1.476908,-0.362272,-0.944166,0.077348,-0.008442,0.981538
2011-09-26T14:35:54.365799,10860,-1.543110,-0.406687,-0.977428,0.077029,-0.008041,0.978674
2011-09-26T14:35:54.375799,10870,-1.609311,-0.451103,-1.010689,0.076709,-0.007640,0.975810
2011-09-26T14:35:54.385799,10880,-1.650345,-0.475413,-1.040298,0.076507,-0.008768,0.975825
2011-09-26T14:35:54.395799,10890,-1.667738,-0.480836,-1.066474,0.076416,-0.011331,0.978543
2011-09-26T14:35:54.405799,10900,-1.685130,-0.486259,-1.092651,0.076326,-0.013894,0.981261
2011-09-26T14:35:54.415799,10910,-1.702522,-0.491682,-1.118827,0.076235,-0.016457,0.983980
2011-09-26T14:35:54.425799,10920,-1.719915,-0.497105,-1.145003,0.076145,-0.019021,0.986698
2011-09-26T14:35:54.435799,10930,-1.737307,-0.502528,-1.171180,0.076054,-0.021584,0.989416
2011-09-26T14:35:54.445799,10940,-1.754699,-0.507952,-1.197356,0.075963,-0.024147,0.992134
2011-09-26T14:35:54.455799,10950,-1.772092,-0.513375,-1.223532,0.075873,-0.026710,0.994852
2011-09-26T14:35:54.465799,10960,-1.789484,-0.518798,-1.249709,0.075782,-0.029273,0.997571
2011-09-26T14:35:54.475799,10970,-1.806876,-0.524221,-1.275885,0.075692,-0.031836,1.000289
2011-09-26T14:35:54.485799,10980,-1.742058,-0.506336,-1.306796,0.075304,-0.034545,1.003894
2011-09-26T14:35:54.495799,10990,-1.602024,-0.467125,-1.342037,0.074645,-0.037388,1.008312
2011-09-26T14:35:54.505799,11000,-1.461989,-0.427914,-1.377279,0.073986,-0.040230,1.012730
2011-09-26T14:35:54.515799,11010,-1.321955,-0.388703,-1.412521,0.073327,-0.043072,1.017147
2011-09-26T14:35:54.525799,11020,-1.181921,-0.349492,-1.447763,0.072668,-0.045915,1.021565
2011-09-26T14:35:54.535799,11030,-1.041887,-0.310281,-1.483005,0.072009,-0.048757,1.025983
2011-09-26T14:35:54.545799,11040,-0.901852,-0.271070,-1.518247,0.071350,-0.051599,1.030400
2011-09-26T14:35:54.555799,11050,-0.761818,-0.231859,-1.553488,0.070690,-0.054442,1.034818
2011-09-26T14:35:54.565799,11060,-0.621784,-0.192648,-1.588730,0.070031,-0.057284,1.039236
2011-09-26T14:35:54.575799,11070,-0.481750,-0.153437,-1.623972,0.069372,-0.060126,1.043653
2011-09-26T14:35:54.585799,11080,-0.377019,-0.134749,-1.637532,0.068897,-0.061234,1.043975
2011-09-26T14:35:54.595799,11090,-0.304218,-0.134622,-1.631482,0.068589,-0.060772,1.040591
2011-09-26T14:35:54.605799,11100,-0.231416,-0.134495,-1.625432,0.068281,-0.060310,1.037208
2011-09-26T14:35:54.615799,11110,-0.158615,-0.134367,-1.619382,0.067973,-0.059848,1.033825
2011-09-26T14:35:54.625799,11120,-0.085813,-0.134240,-1.613332,0.067665,-0.059386,1.030441
2011-09-26T14:35:54.635799,11130,-0.013012,-0.134113,-1.607282,0.067357,-0.058925,1.027058
2011-09-26T14:35:54.645799,11140,0.059789,-0.133985,-1.601232,0.067049,-0.058463,1.023675
2011-09-26T14:35:54.655799,11150,0.132591,-0.133858,-1.595182,0.066741,-0.058001,1.020291
2011-09-26T14:35:54.665799,11160,0.205392,-0.133730,-1.589132,0.066433,-0.057539,1.016908
2011-09-26T14:35:54.675799,11170,0.278194,-0.133603,-1.583082,0.066125,-0.057078,1.013525
2011-09-26T14:35:54.685799,11180,0.350995,-0.133476,-1.577032,0.065817,-0.056616,1.010141
2011-09-26T14:35:54.695799,11190,0.387077,-0.138700,-1.577842,0.065887,-0.055082,1.006992
2011-09-26T14:35:54.705799,11200,0.389602,-0.148816,-1.584922,0.066303,-0.052568,1.004058
2011-09-26T14:35:54.715799,11210,0.392128,-0.158931,-1.592002,0.066718,-0.050053,1.001124
2011-09-26T14:35:54.725799,11220,0.394653,-0.169047,-1.599082,0.067133,-0.047539,0.998189
2011-09-26T14:35:54.735799,11230,0.397179,-0.179162,-1.606161,0.067548,-0.045025,0.995255
2011-09-26T14:35:54.745799,11240,0.399704,-0.189277,-1.613241,0.067964,-0.042511,0.992320
2011-09-26T14:35:54.755799,11250,0.402230,-0.199393,-1.620321,0.068379,-0.039997,0.989386
2011-09-26T14:35:54.765799,11260,0.404755,-0.209508,-1.627401,0.068794,-0.037483,0.986451
2011-09-26T14:35:54.775799,11270,0.407281,-0.219624,-1.634481,0.069209,-0.034969,0.983517
2011-09-26T14:35:54.785799,11280,0.409806,-0.229739,-1.641560,0.069625,-0.032455,0.980582
2011-09-26T14:35:54.795799,11290,0.345056,-0.231592,-1.645884,0.068899,-0.030725,0.980805
2011-09-26T14:35:54.805799,11300,0.221904,-0.226272,-1.647816,0.067184,-0.029676,0.983769
2011-09-26T14:35:54.815799,11310,0.098752,-0.220952,-1.649748,0.065469,-0.028628,0.986732
2011-09-26T14:35:54.825799,11320,-0.024400,-0.215632,-1.651680,0.063754,-0.027579,0.989695
2011-09-26T14:35:54.835799,11330,-0.147552,-0.210312,-1.653612,0.062038,-0.026530,0.992659
2011-09-26T14:35:54.845799,11340,-0.270704,-0.204993,-1.655544,0.060323,-0.025481,0.995622
2011-09-26T14:35:54.855799,11350,-0.393856,-0.199673,-1.657476,0.058608,-0.024433,0.998586
2011-09-26T14:35:54.865799,11360,-0.517008,-0.194353,-1.659408,0.056893,-0.023384,1.001549
2011-09-26T14:35:54.875799,11370,-0.640160,-0.189033,-1.661339,0.055177,-0.022335,1.004513
2011-09-26T14:35:54.885799,11380,-0.763312,-0.183713,-1.663271,0.053462,-0.021286,1.007476
2011-09-26T14:35:54.895799,11390,-0.814267,-0.221403,-1.659838,0.052419,-0.022289,1.008986
2011-09-26T14:35:54.905799,11400,-0.803179,-0.296054,-1.651794,0.051952,-0.025055,1.009248
2011-09-26T14:35:54.915799,11410,-0.792092,-0.370705,-1.643750,0.051486,-0.027821,1.009509
2011-09-26T14:35:54.925799,11420,-0.781004,-0.445356,-1.635706,0.051020,-0.030587,1.009771
2011-09-26T14:35:54.935799,11430,-0.769916,-0.520007,-1.627662,0.050553,-0.033353,1.010033
2011-09-26T14:35:54.945799,11440,-0.758828,-0.594657,-1.619619,0.050087,-0.036119,1.010294
2011-09-26T14:35:54.955799,11450,-0.747740,-0.669308,-1.611575,0.049621,-0.038885,1.010556
2011-09-26T14:35:54.965799,11460,-0.736652,-0.743959,-1.603531,0.049154,-0.041651,1.010817
2011-09-26T14:35:54.975799,11470,-0.725564,-0.818610,-1.595487,0.048688,-0.044417,1.011079
2011-09-26T14:35:54.985799,11480,-0.714476,-0.893261,-1.587443,0.048222,-0.047183,1.011340
2011-09-26T14:35:54.995799,11490,-0.735916,-0.928007,-1.583894,0.048284,-0.046918,1.009052
2011-09-26T14:35:55.005799,11500,-0.784920,-0.928938,-1.584155,0.048795,-0.044083,1.004601
2011-09-26T14:35:55.015799,11510,-0.833923,-0.929869,-1.584416,0.049305,-0.041249,1.000151
2011-09-26T14:35:55.025799,11520,-0.882927,-0.930800,-1.584676,0.049816,-0.038415,0.995701
2011-09-26T14:35:55.035799,11530,-0.931930,-0.931731,-1.584937,0.050326,-0.035581,0.991251
2011-09-26T14:35:55.045799,11540,-0.980934,-0.932662,-1.585197,0.050837,-0.032747,0.986801
2011-09-26T14:35:55.055799,11550,-1.029937,-0.933593,-1.585458,0.051347,-0.029913,0.982351
2011-09-26T14:35:55.065799,11560,-1.078940,-0.934524,-1.585719,0.051857,-0.027079,0.977901
2011-09-26T14:35:55.075799,11570,-1.127944,-0.935455,-1.585979,0.052368,-0.024245,0.973451
2011-09-26T14:35:55.085799,11580,-1.176947,-0.936386,-1.586240,0.052878,-0.021411,0.969001
2011-09-26T14:35:55.095799,11590,-1.225951,-0.937317,-1.586500,0.053389,-0.018576,0.964551
2011-09-26T14:35:55.105799,11600,-1.279584,-1.003465,-1.581946,0.052343,-0.017743,0.964850
2011-09-26T14:35:55.115799,11610,-1.337264,-1.126614,-1.573182,0.049938,-0.018659,0.969300
2011-09-26T14:35:55.125799,11620,-1.394944,-1.249762,-1.564419,0.047533,-0.019575,0.973750
2011-09-26T14:35:55.135799,11630,-1.452625,-1.372911,-1.555655,0.045127,-0.020491,0.978200
2011-09-26T14:35:55.145799,11640,-1.510305,-1.496059,-1.546892,0.042722,-0.021407,0.982650
2011-09-26T14:35:55.155799,11650,-1.567985,-1.619208,-1.538129,0.040316,-0.022322,0.987100
2011-09-26T14:35:55.165799,11660,-1.625665,-1.742357,-1.529365,0.037911,-0.023238,0.991550
2011-09-26T14:35:55.175799,11670,-1.683345,-1.865505,-1.520602,0.035505,-0.024154,0.996000
2011-09-26T14:35:55.185799,11680,-1.741025,-1.988654,-1.511838,0.033100,-0.025070,1.000450
2011-09-26T14:35:55.195799,11690,-1.798705,-2.111802,-1.503075,0.030694,-0.025986,1.004900
2011-09-26T14:35:55.205799,11700,-1.683473,-2.256901,-1.523440,0.030787,-0.028376,1.008649
2011-09-26T14:35:55.215799,11710,-1.427227,-2.419900,-1.567561,0.032917,-0.031969,1.011827
2011-09-26T14:35:55.225799,11720,-1.170981,-2.582899,-1.611682,0.035047,-0.035562,1.015005
2011-09-26T14:35:55.235799,11730,-0.914735,-2.745898,-1.655802,0.037176,-0.039155,1.018183
2011-09-26T14:35:55.245799,11740,-0.658489,-2.908897,-1.699923,0.039306,-0.042748,1.021360
2011-09-26T14:35:55.255799,11750,-0.402243,-3.071896,-1.744044,0.041436,-0.046340,1.024538
2011-09-26T14:35:55.265799,11760,-0.145997,-3.234895,-1.788164,0.043566,-0.049933,1.027716
2011-09-26T14:35:55.275799,11770,0.110249,-3.397894,-1.832285,0.045696,-0.053526,1.030894
2011-09-26T14:35:55.285799,11780,0.366495,-3.560893,-1.876406,0.047826,-0.057119,1.034072
2011-09-26T14:35:55.295799,11790,0.622741,-3.723892,-1.920526,0.049956,-0.060712,1.037249
2011-09-26T14:35:55.305799,11800,0.828219,-3.690736,-1.924310,0.052557,-0.062221,1.039202
2011-09-26T14:35:55.315799,11810,0.993681,-3.502975,-1.896302,0.055530,-0.062087,1.040188
2011-09-26T14:35:55.325799,11820,1.159143,-3.315215,-1.868294,0.058503,-0.061954,1.041174
2011-09-26T14:35:55.335799,11830,1.324605,-3.127455,-1.840286,0.061476,-0.061820,1.042160
2011-09-26T14:35:55.345799,11840,1.490067,-2.939694,-1.812277,0.064449,-0.061687,1.043146
2011-09-26T14:35:55.355799,11850,1.655529,-2.751934,-1.784269,0.067422,-0.061553,1.044133
2011-09-26T14:35:55.365799,11860,1.820992,-2.564173,-1.756261,0.070395,-0.061420,1.045119
2011-09-26T14:35:55.375799,11870,1.986454,-2.376413,-1.728252,0.073368,-0.061286,1.046105
2011-09-26T14:35:55.385799,11880,2.151916,-2.188652,-1.700244,0.076341,-0.061153,1.047091
2011-09-26T14:35:55.395799,11890,2.317378,-2.000892,-1.672236,0.079314,-0.061019,1.048078
2011-09-26T14:35:55.405799,11900,2.482840,-1.813131,-1.644228,0.082287,-0.060886,1.049064
2011-09-26T14:35:55.415799,11910,2.648302,-1.625371,-1.616219,0.085260,-0.060752,1.050050
2011-09-26T14:35:55.425799,11920,2.605497,-1.352046,-1.613290,0.085218,-0.057944,1.048821
2011-09-26T14:35:55.435799,11930,2.402018,-1.012710,-1.629709,0.082851,-0.053072,1.045882
2011-09-26T14:35:55.445799,11940,2.198540,-0.673375,-1.646127,0.080483,-0.048201,1.042944
2011-09-26T14:35:55.455799,11950,1.995062,-0.334039,-1.662545,0.078116,-0.043329,1.040005
2011-09-26T14:35:55.465799,11960,1.791583,0.005296,-1.678964,0.075749,-0.038458,1.037066
2011-09-26T14:35:55.475799,11970,1.588105,0.344632,-1.695382,0.073382,-0.033586,1.034128
2011-09-26T14:35:55.485799,11980,1.384626,0.683967,-1.711801,0.071014,-0.028714,1.031189
2011-09-26T14:35:55.495799,11990,1.181148,1.023303,-1.728219,0.068647,-0.023843,1.028251
2011-09-26T14:35:55.505799,12000,0.977670,1.362639,-1.744638,0.066280,-0.018971,1.025312
2011-09-26T14:35:55.515799,12010,0.857052,1.673995,-1.735440,0.065001,-0.020914,1.030257
2011-09-26T14:35:55.525799,12020,0.799477,1.964066,-1.706753,0.064550,-0.028040,1.041200
2011-09-26T14:35:55.535799,12030,0.741901,2.254136,-1.678067,0.064099,-0.035167,1.052142
2011-09-26T14:35:55.545799,12040,0.684325,2.544206,-1.649380,0.063648,-0.042294,1.063085
2011-09-26T14:35:55.555799,12050,0.626750,2.834276,-1.620693,0.063197,-0.049420,1.074027
2011-09-26T14:35:55.565799,12060,0.569174,3.124347,-1.592006,0.062746,-0.056547,1.084970
2011-09-26T14:35:55.575799,12070,0.511598,3.414417,-1.563320,0.062295,-0.063674,1.095913
2011-09-26T14:35:55.585799,12080,0.454023,3.704487,-1.534633,0.061844,-0.070801,1.106855
2011-09-26T14:35:55.595799,12090,0.396447,3.994557,-1.505946,0.061393,-0.077927,1.117798
2011-09-26T14:35:55.605799,12100,0.338871,4.284627,-1.477260,0.060942,-0.085054,1.128741
2011-09-26T14:35:55.615799,12110,0.281296,4.574698,-1.448573,0.060491,-0.092181,1.139683
2011-09-26T14:35:55.625799,12120,0.368106,4.806777,-1.410720,0.059020,-0.092503,1.131888
2011-09-26T14:35:55.635799,12130,0.569840,4.992698,-1.365570,0.056738,-0.087408,1.109178
2011-09-26T14:35:55.645799,12140,0.771574,5.178619,-1.320420,0.054455,-0.082314,1.086468
2011-09-26T14:35:55.655799,12150,0.973308,5.364541,-1.275271,0.052173,-0.077220,1.063759
2011-09-26T14:35:55.665799,12160,1.175042,5.550462,-1.230121,0.049890,-0.072126,1.041049
2011-09-26T14:35:55.675799,12170,1.376776,5.736384,-1.184971,0.047608,-0.067031,1.018339
2011-09-26T14:35:55.685799,12180,1.578510,5.922305,-1.139822,0.045325,-0.061937,0.995629
2011-09-26T14:35:55.695799,12190,1.780244,6.108226,-1.094672,0.043042,-0.056843,0.972920
2011-09-26T14:35:55.705799,12200,1.981978,6.294148,-1.049523,0.040760,-0.051749,0.950210
2011-09-26T14:35:55.715799,12210,2.183712,6.480069,-1.004373,0.038477,-0.046654,0.927500
2011-09-26T14:35:55.725799,12220,2.282182,6.278368,-0.986939,0.035944,-0.043368,0.910705
2011-09-26T14:35:55.735799,12230,2.305328,5.793921,-0.989722,0.033228,-0.041400,0.898224
2011-09-26T14:35:55.745799,12240,2.328474,5.309474,-0.992504,0.030512,-0.039432,0.885744
2011-09-26T14:35:55.755799,12250,2.351620,4.825027,-0.995287,0.027796,-0.037465,0.873263
2011-09-26T14:35:55.765799,12260,2.374766,4.340580,-0.998070,0.025080,-0.035497,0.860783
2011-09-26T14:35:55.775799,12270,2.397911,3.856133,-1.000852,0.022364,-0.033529,0.848302
2011-09-26T14:35:55.785799,12280,2.421057,3.371686,-1.003635,0.019648,-0.031561,0.835822
2011-09-26T14:35:55.795799,12290,2.444203,2.887239,-1.006418,0.016932,-0.029593,0.823341
2011-09-26T14:35:55.805799,12300,2.467349,2.402791,-1.009200,0.014216,-0.027626,0.810860
2011-09-26T14:35:55.815799,12310,2.490495,1.918344,-1.011983,0.011500,-0.025658,0.798380
2011-09-26T14:35:55.825799,12320,2.466545,1.491617,-1.026125,0.011197,-0.022816,0.800026
2011-09-26T14:35:55.835799,12330,2.408829,1.106273,-1.048412,0.012624,-0.019348,0.811802
2011-09-26T14:35:55.845799,12340,2.351113,0.720930,-1.070699,0.014051,-0.015879,0.823577
2011-09-26T14:35:55.855799,12350,2.293397,0.335586,-1.092986,0.015479,-0.012411,0.835352
2011-09-26T14:35:55.865799,12360,2.235681,-0.049758,-1.115273,0.016906,-0.008943,0.847127
2011-09-26T14:35:55.875799,12370,2.177965,-0.435101,-1.137560,0.018333,-0.005474,0.858903
2011-09-26T14:35:55.885799,12380,2.120249,-0.820445,-1.159847,0.019760,-0.002006,0.870678
2011-09-26T14:35:55.895799,12390,2.062532,-1.205789,-1.182134,0.021187,0.001463,0.882453
2011-09-26T14:35:55.905799,12400,2.004816,-1.591133,-1.204420,0.022615,0.004931,0.894228
2011-09-26T14:35:55.915799,12410,1.947100,-1.976476,-1.226707,0.024042,0.008399,0.906004
2011-09-26T14:35:55.925799,12420,1.889384,-2.361820,-1.248994,0.025469,0.011868,0.917779
2011-09-26T14:35:55.935799,12430,1.761453,-2.585947,-1.241415,0.027676,0.012654,0.928082
2011-09-26T14:35:55.945799,12440,1.583964,-2.696285,-1.212755,0.030434,0.011549,0.937345
2011-09-26T14:35:55.955799,12450,1.406474,-2.806623,-1.184095,0.033192,0.010443,0.946609
2011-09-26T14:35:55.965799,12460,1.228984,-2.916962,-1.155435,0.035950,0.009337,0.955872
2011-09-26T14:35:55.975799,12470,1.051495,-3.027300,-1.126775,0.038707,0.008231,0.965136
2011-09-26T14:35:55.985799,12480,0.874005,-3.137638,-1.098115,0.041465,0.007125,0.974399
2011-09-26T14:35:55.995799,12490,0.696515,-3.247976,-1.069455,0.044223,0.006019,0.983663
2011-09-26T14:35:56.005799,12500,0.519026,-3.358314,-1.040795,0.046981,0.004913,0.992926
2011-09-26T14:35:56.015799,12510,0.341536,-3.468652,-1.012135,0.049738,0.003807,1.002190
2011-09-26T14:35:56.025799,12520,0.164047,-3.578991,-0.983475,0.052496,0.002701,1.011454
2011-09-26T14:35:56.035799,12530,0.041492,-3.505740,-0.957719,0.054470,0.003229,1.016843
2011-09-26T14:35:56.045799,12540,-0.042920,-3.305023,-0.933979,0.055900,0.004893,1.019542
2011-09-26T14:35:56.055799,12550,-0.127331,-3.104305,-0.910239,0.057330,0.006556,1.022241
2011-09-26T14:35:56.065799,12560,-0.211743,-2.903587,-0.886499,0.058760,0.008219,1.024940
2011-09-26T14:35:56.075799,12570,-0.296155,-2.702870,-0.862759,0.060190,0.009883,1.027640
2011-09-26T14:35:56.085799,12580,-0.380567,-2.502152,-0.839019,0.061620,0.011546,1.030339
2011-09-26T14:35:56.095799,12590,-0.464979,-2.301434,-0.815279,0.063050,0.013209,1.033038
2011-09-26T14:35:56.105799,12600,-0.549391,-2.100716,-0.791539,0.064479,0.014872,1.035737
2011-09-26T14:35:56.115799,12610,-0.633803,-1.899999,-0.767799,0.065909,0.016536,1.038436
2011-09-26T14:35:56.125799,12620,-0.718214,-1.699281,-0.744059,0.067339,0.018199,1.041135
2011-09-26T14:35:56.135799,12630,-0.769382,-1.490382,-0.718090,0.067976,0.017274,1.043127
2011-09-26T14:35:56.145799,12640,-0.796466,-1.275558,-0.690505,0.068040,0.014475,1.044605
2011-09-26T14:35:56.155799,12650,-0.823550,-1.060733,-0.662921,0.068103,0.011676,1.046083
2011-09-26T14:35:56.165799,12660,-0.850634,-0.845908,-0.635337,0.068166,0.008876,1.047561
2011-09-26T14:35:56.175799,12670,-0.877719,-0.631083,-0.607752,0.068229,0.006077,1.049039
2011-09-26T14:35:56.185799,12680,-0.904803,-0.416258,-0.580168,0.068293,0.003277,1.050518
2011-09-26T14:35:56.195799,12690,-0.931887,-0.201433,-0.552584,0.068356,0.000478,1.051996
2011-09-26T14:35:56.205799,12700,-0.958971,0.013392,-0.524999,0.068419,-0.002322,1.053474
2011-09-26T14:35:56.215799,12710,-0.986056,0.228217,-0.497415,0.068482,-0.005121,1.054952
2011-09-26T14:35:56.225799,12720,-1.013140,0.443042,-0.469831,0.068545,-0.007920,1.056431
2011-09-26T14:35:56.235799,12730,-1.040224,0.657867,-0.442247,0.068609,-0.010720,1.057909
2011-09-26T14:35:56.245799,12740,-0.987993,0.865639,-0.421295,0.068902,-0.010895,1.057293
2011-09-26T14:35:56.255799,12750,-0.883216,1.068738,-0.404736,0.069348,-0.009333,1.055290
2011-09-26T14:35:56.265799,12760,-0.778440,1.271837,-0.388178,0.069793,-0.007770,1.053287
2011-09-26T14:35:56.275799,12770,-0.673664,1.474936,-0.371620,0.070239,-0.006207,1.051284
2011-09-26T14:35:56.285799,12780,-0.568888,1.678035,-0.355062,0.070684,-0.004644,1.049281
2011-09-26T14:35:56.295799,12790,-0.464112,1.881134,-0.338504,0.071130,-0.003081,1.047278
2011-09-26T14:35:56.305799,12800,-0.359336,2.084233,-0.321946,0.071576,-0.001518,1.045274
2011-09-26T14:35:56.315799,12810,-0.254559,2.287332,-0.305387,0.072021,0.000044,1.043271
2011-09-26T14:35:56.325799,12820,-0.149783,2.490431,-0.288829,0.072467,0.001607,1.041268
2011-09-26T14:35:56.335799,12830,-0.045007,2.693530,-0.272271,0.072913,0.003170,1.039265
2011-09-26T14:35:56.345799,12840,-0.005556,2.797208,-0.255402,0.072584,0.002921,1.029360
2011-09-26T14:35:56.355799,12850,-0.008703,2.836054,-0.238331,0.071750,0.001490,1.014302
2011-09-26T14:35:56.365799,12860,-0.011850,2.874901,-0.221260,0.070916,0.000059,0.999243
2011-09-26T14:35:56.375799,12870,-0.014997,2.913747,-0.204189,0.070082,-0.001372,0.984185
2011-09-26T14:35:56.385799,12880,-0.018143,2.952593,-0.187118,0.069248,-0.002803,0.969127
2011-09-26T14:35:56.395799,12890,-0.021290,2.991440,-0.170047,0.068414,-0.004235,0.954069
2011-09-26T14:35:56.405799,12900,-0.024437,3.030286,-0.152976,0.067580,-0.005666,0.939011
2011-09-26T14:35:56.415799,12910,-0.027584,3.069133,-0.135905,0.066746,-0.007097,0.923953
2011-09-26T14:35:56.425799,12920,-0.030730,3.107979,-0.118834,0.065911,-0.008528,0.908894
2011-09-26T14:35:56.435799,12930,-0.033877,3.146826,-0.101763,0.065077,-0.009959,0.893836
2011-09-26T14:35:56.445799,12940,0.010319,3.099402,-0.069066,0.064689,-0.009997,0.890979
2011-09-26T14:35:56.455799,12950,0.084756,2.996869,-0.026387,0.064585,-0.009145,0.895915
2011-09-26T14:35:56.465799,12960,0.159194,2.894336,0.016293,0.064482,-0.008293,0.900852
2011-09-26T14:35:56.475799,12970,0.233632,2.791803,0.058972,0.064378,-0.007441,0.905788
2011-09-26T14:35:56.485799,12980,0.308070,2.689270,0.101651,0.064274,-0.006589,0.910725
2011-09-26T14:35:56.495799,12990,0.382508,2.586737,0.144330,0.064171,-0.005737,0.915661
2011-09-26T14:35:56.505799,13000,0.456946,2.484204,0.187009,0.064067,-0.004885,0.920598
2011-09-26T14:35:56.515799,13010,0.531383,2.381671,0.229688,0.063963,-0.004034,0.925534
2011-09-26T14:35:56.525799,13020,0.605821,2.279138,0.272367,0.063859,-0.003182,0.930471
2011-09-26T14:35:56.535799,13030,0.680259,2.176605,0.315046,0.063756,-0.002330,0.935407
2011-09-26T14:35:56.545799,13040,0.754697,2.074073,0.357725,0.063652,-0.001478,0.940344
2011-09-26T14:35:56.555799,13050,0.829134,1.971541,0.400403,0.063548,-0.000626,0.945280
2011-09-26T14:35:56.565799,13060,0.903571,1.869009,0.443082,0.063445,0.000226,0.950217
2011-09-26T14:35:56.575799,13070,0.978008,1.766477,0.485761,0.063341,0.001078,0.955153
2011-09-26T14:35:56.585799,13080,1.052445,1.663945,0.528439,0.063237,0.001930,0.960090
2011-09-26T14:35:56.595799,13090,1.126883,1.561413,0.571118,0.063134,0.002781,0.965026
2011-09-26T14:35:56.605799,13100,1.201320,1.458881,0.613797,0.063030,0.003633,0.969963
2011-09-26T14:35:56.615799,13110,1.275757,1.356349,0.656475,0.062926,0.004485,0.974899
2011-09-26T14:35:56.625799,13120,1.350194,1.253817,0.699154,0.062822,0.005337,0.979836
2011-09-26T14:35:56.635799,13130,1.424631,1.151285,0.741833,0.062719,0.006189,0.984772
2011-09-26T14:35:56.645799,13140,1.499068,1.048753,0.784511,0.062615,0.007041,0.989709
2011-09-26T14:35:56.655799,13150,1.540695,0.941037,0.820993,0.063551,0.008054,0.992425
2011-09-26T14:35:56.665799,13160,1.561337,0.830006,0.853512,0.065152,0.009170,0.993722
2011-09-26T14:35:56.675799,13170,1.581980,0.718975,0.886031,0.066752,0.010286,0.995019
2011-09-26T14:35:56.685799,13180,1.602622,0.607943,0.918550,0.068353,0.011402,0.996316
2011-09-26T14:35:56.695799,13190,1.623264,0.496912,0.951069,0.069954,0.012518,0.997613
2011-09-26T14:35:56.705799,13200,1.643906,0.385881,0.983588,0.071555,0.013634,0.998911
2011-09-26T14:35:56.715799,13210,1.664548,0.274850,1.016107,0.073155,0.014751,1.000208
2011-09-26T14:35:56.725799,13220,1.685191,0.163818,1.048625,0.074756,0.015867,1.001505
2011-09-26T14:35:56.735799,13230,1.705833,0.052787,1.081144,0.076357,0.016983,1.002802
2011-09-26T14:35:56.745799,13240,1.726475,-0.058244,1.113663,0.077957,0.018099,1.004099
2011-09-26T14:35:56.755799,13250,1.683458,-0.143770,1.145168,0.078815,0.019752,0.999985
2011-09-26T14:35:56.765799,13260,1.600911,-0.213459,1.176044,0.079211,0.021737,0.992511
2011-09-26T14:35:56.775799,13270,1.518365,-0.283147,1.206919,0.079607,0.023722,0.985037
2011-09-26T14:35:56.785799,13280,1.435818,-0.352836,1.237795,0.080003,0.025708,0.977563
2011-09-26T14:35:56.795799,13290,1.353272,-0.422524,1.268671,0.080399,0.027693,0.970090
2011-09-26T14:35:56.805799,13300,1.270725,-0.492213,1.299546,0.080796,0.029679,0.962616
2011-09-26T14:35:56.815799,13310,1.188178,-0.561902,1.330422,0.081192,0.031664,0.955142
2011-09-26T14:35:56.825799,13320,1.105632,-0.631590,1.361297,0.081588,0.033650,0.947668
2011-09-26T14:35:56.835799,13330,1.023085,-0.701279,1.392173,0.081984,0.035635,0.940194
2011-09-26T14:35:56.845799,13340,0.940538,-0.770967,1.423049,0.082380,0.037620,0.932721
2011-09-26T14:35:56.855799,13350,0.857992,-0.840656,1.453924,0.082776,0.039606,0.925247
2011-09-26T14:35:56.865799,13360,0.811185,-0.916936,1.480335,0.083510,0.039179,0.927846
2011-09-26T14:35:56.875799,13370,0.786025,-0.997208,1.504041,0.084448,0.037291,0.936546
2011-09-26T14:35:56.885799,13380,0.760864,-1.077481,1.527747,0.085386,0.035402,0.945247
2011-09-26T14:35:56.895799,13390,0.735703,-1.157754,1.551454,0.086324,0.033514,0.953947
2011-09-26T14:35:56.905799,13400,0.710543,-1.238026,1.575160,0.087262,0.031626,0.962647
2011-09-26T14:35:56.915799,13410,0.685382,-1.318299,1.598866,0.088200,0.029738,0.971347
2011-09-26T14:35:56.925799,13420,0.660221,-1.398571,1.622572,0.089138,0.027849,0.980048
2011-09-26T14:35:56.935799,13430,0.635061,-1.478844,1.646279,0.090076,0.025961,0.988748
2011-09-26T14:35:56.945799,13440,0.609900,-1.559116,1.669985,0.091014,0.024073,0.997448
2011-09-26T14:35:56.955799,13450,0.584739,-1.639389,1.693691,0.091952,0.022185,1.006148
2011-09-26T14:35:56.965799,13460,0.589439,-1.637299,1.711347,0.093117,0.021377,1.012039
2011-09-26T14:35:56.975799,13470,0.611939,-1.586110,1.725397,0.094416,0.021213,1.016255
2011-09-26T14:35:56.985799,13480,0.634439,-1.534921,1.739447,0.095715,0.021050,1.020472
2011-09-26T14:35:56.995799,13490,0.656939,-1.483732,1.753497,0.097014,0.020886,1.024688
2011-09-26T14:35:57.005799,13500,0.679439,-1.432543,1.767547,0.098314,0.020723,1.028904
2011-09-26T14:35:57.015799,13510,0.701939,-1.381355,1.781597,0.099613,0.020559,1.033120
2011-09-26T14:35:57.025799,13520,0.724439,-1.330166,1.795646,0.100912,0.020396,1.037336
2011-09-26T14:35:57.035799,13530,0.746939,-1.278977,1.809696,0.102211,0.020232,1.041552
2011-09-26T14:35:57.045799,13540,0.769439,-1.227788,1.823746,0.103510,0.020069,1.045769
2011-09-26T14:35:57.055799,13550,0.791939,-1.176599,1.837796,0.104810,0.019905,1.049985
