pc_time,ts_ms,gyroX,gyroY,gyroZ,accelX,accelY,accelZ
2011-09-26T13:22:48.945746,0,0.445530,0.266370,0.258167,-0.036380,0.048639,0.984041
2011-09-26T13:22:48.955746,10,0.443441,0.229804,0.249039,-0.035942,0.048643,0.985702
2011-09-26T13:22:48.965746,20,0.441352,0.193238,0.239910,-0.035504,0.048648,0.987363
2011-09-26T13:22:48.975746,30,0.439263,0.156672,0.230782,-0.035066,0.048653,0.989024
2011-09-26T13:22:48.985746,40,0.437174,0.120106,0.221653,-0.034628,0.048658,0.990685
2011-09-26T13:22:48.995746,50,0.435086,0.083540,0.212525,-0.034190,0.048663,0.992346
2011-09-26T13:22:49.005746,60,0.432997,0.046975,0.203397,-0.033752,0.048668,0.994007
2011-09-26T13:22:49.015746,70,0.430908,0.010409,0.194268,-0.033314,0.048672,0.995668
2011-09-26T13:22:49.025746,80,0.428819,-0.026157,0.185140,-0.032876,0.048677,0.997329
2011-09-26T13:22:49.035746,90,0.426731,-0.062723,0.176011,-0.032438,0.048682,0.998990
2011-09-26T13:22:49.045746,100,0.424642,-0.099289,0.166883,-0.032000,0.048687,1.000651
2011-09-26T13:22:49.055746,110,0.422553,-0.135855,0.157754,-0.031562,0.048692,1.002312
2011-09-26T13:22:49.065746,120,0.429355,-0.155461,0.159047,-0.031452,0.049551,1.001607
2011-09-26T13:22:49.075746,130,0.436172,-0.175039,0.160357,-0.031342,0.050411,1.000898
2011-09-26T13:22:49.085746,140,0.442990,-0.194617,0.161667,-0.031233,0.051272,1.000189
2011-09-26T13:22:49.095746,150,0.449807,-0.214194,0.162977,-0.031124,0.052132,0.999480
2011-09-26T13:22:49.105746,160,0.456624,-0.233772,0.164287,-0.031014,0.052992,0.998771
2011-09-26T13:22:49.115746,170,0.463442,-0.253349,0.165597,-0.030905,0.053853,0.998062
2011-09-26T13:22:49.125746,180,0.470259,-0.272927,0.166907,-0.030796,0.054713,0.997354
2011-09-26T13:22:49.135746,190,0.477076,-0.292505,0.168218,-0.030686,0.055574,0.996645
2011-09-26T13:22:49.145746,200,0.483894,-0.312082,0.169528,-0.030577,0.056434,0.995936
2011-09-26T13:22:49.155746,210,0.490711,-0.331660,0.170838,-0.030468,0.057295,0.995227
2011-09-26T13:22:49.165746,220,0.484975,-0.319886,0.182401,-0.031088,0.057174,0.994717
2011-09-26T13:22:49.175746,230,0.479156,-0.307905,0.194031,-0.031712,0.057047,0.994208
2011-09-26T13:22:49.185746,240,0.473337,-0.295925,0.205661,-0.032336,0.056921,0.993699
2011-09-26T13:22:49.195746,250,0.467518,-0.283945,0.217291,-0.032961,0.056794,0.993191
2011-09-26T13:22:49.205746,260,0.461699,-0.271965,0.228921,-0.033585,0.056667,0.992682
2011-09-26T13:22:49.215746,270,0.455880,-0.259985,0.240551,-0.034210,0.056540,0.992173
2011-09-26T13:22:49.225746,280,0.450061,-0.248005,0.252181,-0.034834,0.056413,0.991665
2011-09-26T13:22:49.235746,290,0.444242,-0.236025,0.263812,-0.035459,0.056287,0.991156
2011-09-26T13:22:49.245746,300,0.438423,-0.224045,0.275442,-0.036083,0.056160,0.990647
2011-09-26T13:22:49.255746,310,0.432604,-0.212064,0.287072,-0.036708,0.056033,0.990138
2011-09-26T13:22:49.265746,320,0.448312,-0.219814,0.298738,-0.036333,0.055986,0.990776
2011-09-26T13:22:49.275746,330,0.464406,-0.227918,0.310404,-0.035940,0.055940,0.991435
2011-09-26T13:22:49.285746,340,0.480500,-0.236022,0.322071,-0.035547,0.055894,0.992093
2011-09-26T13:22:49.295746,350,0.496595,-0.244126,0.333738,-0.035154,0.055849,0.992752
2011-09-26T13:22:49.305746,360,0.512689,-0.252230,0.345404,-0.034761,0.055803,0.993411
2011-09-26T13:22:49.315746,370,0.528784,-0.260334,0.357071,-0.034368,0.055757,0.994069
2011-09-26T13:22:49.325746,380,0.544878,-0.268438,0.368737,-0.033975,0.055711,0.994728
2011-09-26T13:22:49.335746,390,0.560972,-0.276542,0.380404,-0.033582,0.055666,0.995386
2011-09-26T13:22:49.345746,400,0.577067,-0.284646,0.392071,-0.033189,0.055620,0.996045
2011-09-26T13:22:49.355746,410,0.593161,-0.292750,0.403737,-0.032796,0.055574,0.996703
2011-09-26T13:22:49.365746,420,0.609230,-0.300860,0.415401,-0.032403,0.055528,0.997363
2011-09-26T13:22:49.375746,430,0.593387,-0.315963,0.424200,-0.032218,0.055382,0.998818
2011-09-26T13:22:49.385746,440,0.577544,-0.331066,0.432998,-0.032032,0.055236,1.000274
2011-09-26T13:22:49.395746,450,0.561702,-0.346170,0.441796,-0.031846,0.055090,1.001729
2011-09-26T13:22:49.405746,460,0.545859,-0.361273,0.450594,-0.031661,0.054944,1.003185
2011-09-26T13:22:49.415746,470,0.530016,-0.376376,0.459392,-0.031475,0.054798,1.004640
2011-09-26T13:22:49.425746,480,0.514173,-0.391479,0.468190,-0.031289,0.054652,1.006095
2011-09-26T13:22:49.435746,490,0.498330,-0.406582,0.476988,-0.031104,0.054506,1.007551
2011-09-26T13:22:49.445746,500,0.482488,-0.421686,0.485786,-0.030918,0.054360,1.009006
2011-09-26T13:22:49.455746,510,0.466645,-0.436789,0.494584,-0.030732,0.054214,1.010462
2011-09-26T13:22:49.465746,520,0.450802,-0.451892,0.503382,-0.030546,0.054068,1.011917
2011-09-26T13:22:49.475746,530,0.434959,-0.466995,0.512181,-0.030361,0.053922,1.013373
2011-09-26T13:22:49.485746,540,0.403833,-0.455227,0.515037,-0.029871,0.054349,1.012278
2011-09-26T13:22:49.495746,550,0.372555,-0.443193,0.517834,-0.029379,0.054783,1.011157
2011-09-26T13:22:49.505746,560,0.341277,-0.431159,0.520632,-0.028886,0.055216,1.010037
2011-09-26T13:22:49.515746,570,0.309999,-0.419125,0.523429,-0.028393,0.055649,1.008916
2011-09-26T13:22:49.525746,580,0.278721,-0.407091,0.526226,-0.027901,0.056082,1.007796
2011-09-26T13:22:49.535746,590,0.247443,-0.395057,0.529024,-0.027408,0.056516,1.006676
2011-09-26T13:22:49.545746,600,0.216165,-0.383023,0.531821,-0.026915,0.056949,1.005555
2011-09-26T13:22:49.555746,610,0.184887,-0.370989,0.534619,-0.026423,0.057382,1.004435
2011-09-26T13:22:49.565746,620,0.153609,-0.358955,0.537416,-0.025930,0.057816,1.003314
2011-09-26T13:22:49.575746,630,0.122331,-0.346920,0.540214,-0.025437,0.058249,1.002194
2011-09-26T13:22:49.585746,640,0.099123,-0.369130,0.520942,-0.025601,0.058451,1.002694
2011-09-26T13:22:49.595746,650,0.075950,-0.391489,0.501575,-0.025767,0.058652,1.003202
2011-09-26T13:22:49.605746,660,0.052778,-0.413847,0.482207,-0.025933,0.058853,1.003709
2011-09-26T13:22:49.615746,670,0.029605,-0.436206,0.462840,-0.026099,0.059053,1.004216
2011-09-26T13:22:49.625746,680,0.006432,-0.458565,0.443473,-0.026265,0.059254,1.004724
2011-09-26T13:22:49.635746,690,-0.016740,-0.480923,0.424105,-0.026431,0.059455,1.005231
2011-09-26T13:22:49.645746,700,-0.039913,-0.503282,0.404738,-0.026597,0.059656,1.005739
2011-09-26T13:22:49.655746,710,-0.063086,-0.525640,0.385371,-0.026763,0.059857,1.006246
2011-09-26T13:22:49.665746,720,-0.086258,-0.547999,0.366003,-0.026929,0.060058,1.006754
2011-09-26T13:22:49.675746,730,-0.109431,-0.570357,0.346636,-0.027095,0.060259,1.007261
2011-09-26T13:22:49.685746,740,-0.119600,-0.571620,0.327554,-0.026368,0.060111,1.007848
2011-09-26T13:22:49.695746,750,-0.129637,-0.572668,0.308474,-0.025631,0.059960,1.008437
2011-09-26T13:22:49.705746,760,-0.139673,-0.573715,0.289395,-0.024895,0.059809,1.009025
2011-09-26T13:22:49.715746,770,-0.149710,-0.574762,0.270315,-0.024158,0.059657,1.009613
2011-09-26T13:22:49.725746,780,-0.159746,-0.575809,0.251236,-0.023422,0.059506,1.010202
2011-09-26T13:22:49.735746,790,-0.169783,-0.576856,0.232156,-0.022685,0.059355,1.010790
2011-09-26T13:22:49.745746,800,-0.179819,-0.577904,0.213077,-0.021948,0.059204,1.011378
2011-09-26T13:22:49.755746,810,-0.189856,-0.578951,0.193998,-0.021212,0.059053,1.011966
2011-09-26T13:22:49.765746,820,-0.199892,-0.579998,0.174918,-0.020475,0.058902,1.012555
2011-09-26T13:22:49.775746,830,-0.209929,-0.581045,0.155839,-0.019739,0.058750,1.013143
2011-09-26T13:22:49.785746,840,-0.219965,-0.582092,0.136759,-0.019002,0.058599,1.013731
2011-09-26T13:22:49.795746,850,-0.220380,-0.552438,0.120638,-0.019049,0.058082,1.014434
2011-09-26T13:22:49.805746,860,-0.220738,-0.522601,0.104534,-0.019100,0.057562,1.015138
2011-09-26T13:22:49.815746,870,-0.221096,-0.492764,0.088430,-0.019151,0.057043,1.015842
2011-09-26T13:22:49.825746,880,-0.221453,-0.462926,0.072326,-0.019203,0.056523,1.016546
2011-09-26T13:22:49.835746,890,-0.221811,-0.433089,0.056222,-0.019254,0.056004,1.017249
2011-09-26T13:22:49.845746,900,-0.222169,-0.403252,0.040118,-0.019305,0.055484,1.017953
2011-09-26T13:22:49.855746,910,-0.222527,-0.373415,0.024014,-0.019356,0.054965,1.018657
2011-09-26T13:22:49.865746,920,-0.222884,-0.343578,0.007910,-0.019408,0.054445,1.019361
2011-09-26T13:22:49.875746,930,-0.223242,-0.313741,-0.008194,-0.019459,0.053926,1.020064
2011-09-26T13:22:49.885746,940,-0.223600,-0.283904,-0.024298,-0.019510,0.053406,1.020768
2011-09-26T13:22:49.895746,950,-0.233983,-0.250545,-0.057880,-0.019070,0.052926,1.019377
2011-09-26T13:22:49.905746,960,-0.244445,-0.217159,-0.091600,-0.018625,0.052447,1.017969
2011-09-26T13:22:49.915746,970,-0.254908,-0.183772,-0.125320,-0.018181,0.051968,1.016562
2011-09-26T13:22:49.925746,980,-0.265370,-0.150386,-0.159040,-0.017737,0.051489,1.015154
2011-09-26T13:22:49.935746,990,-0.275832,-0.116999,-0.192760,-0.017292,0.051009,1.013747
2011-09-26T13:22:49.945746,1000,-0.286294,-0.083613,-0.226480,-0.016848,0.050530,1.012339
2011-09-26T13:22:49.955746,1010,-0.296756,-0.050226,-0.260199,-0.016404,0.050051,1.010931
2011-09-26T13:22:49.965746,1020,-0.307219,-0.016840,-0.293919,-0.015960,0.049572,1.009524
2011-09-26T13:22:49.975746,1030,-0.317681,0.016547,-0.327639,-0.015515,0.049092,1.008116
2011-09-26T13:22:49.985746,1040,-0.328143,0.049933,-0.361359,-0.015071,0.048613,1.006709
2011-09-26T13:22:49.995746,1050,-0.338876,0.071047,-0.394894,-0.015778,0.048136,1.005690
2011-09-26T13:22:50.005746,1060,-0.349612,0.092078,-0.428427,-0.016492,0.047659,1.004675
2011-09-26T13:22:50.015746,1070,-0.360347,0.113109,-0.461961,-0.017206,0.047182,1.003659
2011-09-26T13:22:50.025746,1080,-0.371082,0.134140,-0.495494,-0.017921,0.046705,1.002643
2011-09-26T13:22:50.035746,1090,-0.381817,0.155172,-0.529028,-0.018635,0.046228,1.001628
2011-09-26T13:22:50.045746,1100,-0.392552,0.176203,-0.562561,-0.019349,0.045751,1.000612
2011-09-26T13:22:50.055746,1110,-0.403287,0.197234,-0.596095,-0.020064,0.045274,0.999596
2011-09-26T13:22:50.065746,1120,-0.414022,0.218265,-0.629629,-0.020778,0.044797,0.998581
2011-09-26T13:22:50.075746,1130,-0.424757,0.239296,-0.663162,-0.021492,0.044320,0.997565
2011-09-26T13:22:50.085746,1140,-0.435492,0.260327,-0.696696,-0.022207,0.043843,0.996549
2011-09-26T13:22:50.095746,1150,-0.445235,0.260773,-0.734993,-0.022982,0.041783,0.996442
2011-09-26T13:22:50.105746,1160,-0.454972,0.261104,-0.773318,-0.023758,0.039715,0.996340
2011-09-26T13:22:50.115746,1170,-0.464709,0.261434,-0.811643,-0.024534,0.037646,0.996237
2011-09-26T13:22:50.125746,1180,-0.474447,0.261764,-0.849967,-0.025310,0.035578,0.996135
2011-09-26T13:22:50.135746,1190,-0.484184,0.262094,-0.888292,-0.026086,0.033510,0.996033
2011-09-26T13:22:50.145746,1200,-0.493921,0.262424,-0.926617,-0.026862,0.031441,0.995931
2011-09-26T13:22:50.155746,1210,-0.503658,0.262755,-0.964941,-0.027639,0.029373,0.995829
2011-09-26T13:22:50.165746,1220,-0.513395,0.263085,-1.003266,-0.028415,0.027304,0.995726
2011-09-26T13:22:50.175746,1230,-0.523133,0.263415,-1.041591,-0.029191,0.025236,0.995624
2011-09-26T13:22:50.185746,1240,-0.532870,0.263745,-1.079915,-0.029967,0.023168,0.995522
2011-09-26T13:22:50.195746,1250,-0.542607,0.264076,-1.118240,-0.030743,0.021099,0.995420
2011-09-26T13:22:50.205746,1260,-0.545932,0.264662,-1.129654,-0.031459,0.019552,0.995518
2011-09-26T13:22:50.215746,1270,-0.549211,0.265251,-1.140873,-0.032174,0.018008,0.995618
2011-09-26T13:22:50.225746,1280,-0.552490,0.265840,-1.152092,-0.032890,0.016464,0.995718
2011-09-26T13:22:50.235746,1290,-0.555769,0.266429,-1.163310,-0.033605,0.014920,0.995818
2011-09-26T13:22:50.245746,1300,-0.559047,0.267018,-1.174529,-0.034320,0.013376,0.995918
2011-09-26T13:22:50.255746,1310,-0.562326,0.267606,-1.185748,-0.035036,0.011833,0.996017
2011-09-26T13:22:50.265746,1320,-0.565605,0.268195,-1.196967,-0.035751,0.010289,0.996117
2011-09-26T13:22:50.275746,1330,-0.568883,0.268784,-1.208185,-0.036467,0.008745,0.996217
2011-09-26T13:22:50.285746,1340,-0.572162,0.269373,-1.219404,-0.037182,0.007201,0.996317
2011-09-26T13:22:50.295746,1350,-0.575441,0.269962,-1.230623,-0.037898,0.005657,0.996417
2011-09-26T13:22:50.305746,1360,-0.544340,0.284998,-1.247545,-0.037720,0.006445,0.995895
2011-09-26T13:22:50.315746,1370,-0.513020,0.300127,-1.264504,-0.037538,0.007248,0.995369
2011-09-26T13:22:50.325746,1380,-0.481701,0.315255,-1.281463,-0.037355,0.008050,0.994844
2011-09-26T13:22:50.335746,1390,-0.450381,0.330384,-1.298422,-0.037172,0.008853,0.994318
2011-09-26T13:22:50.345746,1400,-0.419061,0.345513,-1.315381,-0.036989,0.009655,0.993792
2011-09-26T13:22:50.355746,1410,-0.387741,0.360641,-1.332339,-0.036806,0.010457,0.993266
2011-09-26T13:22:50.365746,1420,-0.356422,0.375770,-1.349298,-0.036623,0.011260,0.992741
2011-09-26T13:22:50.375746,1430,-0.325102,0.390898,-1.366257,-0.036440,0.012062,0.992215
2011-09-26T13:22:50.385746,1440,-0.293782,0.406027,-1.383216,-0.036258,0.012865,0.991689
2011-09-26T13:22:50.395746,1450,-0.262462,0.421155,-1.400175,-0.036075,0.013667,0.991163
2011-09-26T13:22:50.405746,1460,-0.278161,0.391309,-1.402570,-0.036149,0.012120,0.990805
2011-09-26T13:22:50.415746,1470,-0.294436,0.360909,-1.404787,-0.036227,0.010543,0.990449
2011-09-26T13:22:50.425746,1480,-0.310712,0.330510,-1.407003,-0.036305,0.008967,0.990093
2011-09-26T13:22:50.435746,1490,-0.326987,0.300111,-1.409220,-0.036382,0.007390,0.989737
2011-09-26T13:22:50.445746,1500,-0.343263,0.269711,-1.411436,-0.036460,0.005814,0.989381
2011-09-26T13:22:50.455746,1510,-0.359538,0.239312,-1.413653,-0.036538,0.004238,0.989025
2011-09-26T13:22:50.465746,1520,-0.375814,0.208913,-1.415869,-0.036615,0.002661,0.988669
2011-09-26T13:22:50.475746,1530,-0.392090,0.178514,-1.418086,-0.036693,0.001085,0.988314
2011-09-26T13:22:50.485746,1540,-0.408365,0.148114,-1.420302,-0.036771,-0.000492,0.987958
2011-09-26T13:22:50.495746,1550,-0.424641,0.117715,-1.422519,-0.036848,-0.002068,0.987602
2011-09-26T13:22:50.505746,1560,-0.440916,0.087316,-1.424735,-0.036926,-0.003645,0.987246
2011-09-26T13:22:50.515746,1570,-0.433325,0.021301,-1.433838,-0.037098,-0.004372,0.988949
2011-09-26T13:22:50.525746,1580,-0.425521,-0.045030,-1.443002,-0.037271,-0.005091,0.990670
2011-09-26T13:22:50.535746,1590,-0.417717,-0.111361,-1.452165,-0.037443,-0.005811,0.992391
2011-09-26T13:22:50.545746,1600,-0.409913,-0.177692,-1.461329,-0.037616,-0.006531,0.994112
2011-09-26T13:22:50.555746,1610,-0.402110,-0.244023,-1.470493,-0.037789,-0.007251,0.995833
2011-09-26T13:22:50.565746,1620,-0.394306,-0.310355,-1.479657,-0.037962,-0.007970,0.997555
2011-09-26T13:22:50.575746,1630,-0.386502,-0.376686,-1.488820,-0.038134,-0.008690,0.999276
2011-09-26T13:22:50.585746,1640,-0.378698,-0.443017,-1.497984,-0.038307,-0.009410,1.000997
2011-09-26T13:22:50.595746,1650,-0.370894,-0.509348,-1.507148,-0.038480,-0.010129,1.002718
2011-09-26T13:22:50.605746,1660,-0.363091,-0.575680,-1.516311,-0.038653,-0.010849,1.004440
2011-09-26T13:22:50.615746,1670,-0.366024,-0.565244,-1.523894,-0.038547,-0.010655,1.005892
2011-09-26T13:22:50.625746,1680,-0.369055,-0.554111,-1.531462,-0.038440,-0.010452,1.007342
2011-09-26T13:22:50.635746,1690,-0.372086,-0.542978,-1.539030,-0.038332,-0.010249,1.008792
2011-09-26T13:22:50.645746,1700,-0.375118,-0.531844,-1.546599,-0.038224,-0.010047,1.010242
2011-09-26T13:22:50.655746,1710,-0.378149,-0.520711,-1.554167,-0.038116,-0.009844,1.011692
2011-09-26T13:22:50.665746,1720,-0.381180,-0.509578,-1.561735,-0.038009,-0.009641,1.013142
2011-09-26T13:22:50.675746,1730,-0.384211,-0.498445,-1.569303,-0.037901,-0.009438,1.014592
2011-09-26T13:22:50.685746,1740,-0.387242,-0.487311,-1.576871,-0.037793,-0.009236,1.016042
2011-09-26T13:22:50.695746,1750,-0.390273,-0.476178,-1.584440,-0.037685,-0.009033,1.017492
2011-09-26T13:22:50.705746,1760,-0.393304,-0.465045,-1.592008,-0.037577,-0.008830,1.018942
2011-09-26T13:22:50.715746,1770,-0.434859,-0.421447,-1.625757,-0.037402,-0.009652,1.017825
2011-09-26T13:22:50.725746,1780,-0.477000,-0.377354,-1.659906,-0.037226,-0.010490,1.016670
2011-09-26T13:22:50.735746,1790,-0.519142,-0.333262,-1.694054,-0.037050,-0.011328,1.015514
2011-09-26T13:22:50.745746,1800,-0.561283,-0.289169,-1.728203,-0.036874,-0.012166,1.014359
2011-09-26T13:22:50.755746,1810,-0.603425,-0.245077,-1.762352,-0.036697,-0.013004,1.013203
2011-09-26T13:22:50.765746,1820,-0.645566,-0.200984,-1.796500,-0.036521,-0.013841,1.012048
2011-09-26T13:22:50.775746,1830,-0.687708,-0.156892,-1.830649,-0.036345,-0.014679,1.010892
2011-09-26T13:22:50.785746,1840,-0.729849,-0.112799,-1.864797,-0.036169,-0.015517,1.009737
2011-09-26T13:22:50.795746,1850,-0.771991,-0.068707,-1.898946,-0.035992,-0.016355,1.008581
2011-09-26T13:22:50.805746,1860,-0.814133,-0.024614,-1.933095,-0.035816,-0.017193,1.007426
2011-09-26T13:22:50.815746,1870,-0.856274,0.019479,-1.967243,-0.035640,-0.018030,1.006270
2011-09-26T13:22:50.825746,1880,-0.858134,0.039167,-2.011824,-0.035830,-0.019461,1.005716
2011-09-26T13:22:50.835746,1890,-0.859380,0.058483,-2.056565,-0.036025,-0.020900,1.005171
2011-09-26T13:22:50.845746,1900,-0.860625,0.077799,-2.101305,-0.036221,-0.022340,1.004626
2011-09-26T13:22:50.855746,1910,-0.861871,0.097115,-2.146045,-0.036416,-0.023779,1.004080
2011-09-26T13:22:50.865746,1920,-0.863117,0.116431,-2.190786,-0.036612,-0.025218,1.003535
2011-09-26T13:22:50.875746,1930,-0.864362,0.135747,-2.235526,-0.036807,-0.026658,1.002990
2011-09-26T13:22:50.885746,1940,-0.865608,0.155063,-2.280266,-0.037003,-0.028097,1.002445
2011-09-26T13:22:50.895746,1950,-0.866854,0.174379,-2.325006,-0.037198,-0.029537,1.001899
2011-09-26T13:22:50.905746,1960,-0.868100,0.193695,-2.369747,-0.037394,-0.030976,1.001354
2011-09-26T13:22:50.915746,1970,-0.869345,0.213012,-2.414487,-0.037589,-0.032415,1.000809
2011-09-26T13:22:50.925746,1980,-0.846006,0.195457,-2.424930,-0.037232,-0.033278,1.000192
2011-09-26T13:22:50.935746,1990,-0.822394,0.177493,-2.434992,-0.036869,-0.034135,0.999574
2011-09-26T13:22:50.945746,2000,-0.798781,0.159528,-2.445054,-0.036506,-0.034992,0.998955
2011-09-26T13:22:50.955746,2010,-0.775168,0.141564,-2.455115,-0.036143,-0.035848,0.998337
2011-09-26T13:22:50.965746,2020,-0.751556,0.123599,-2.465177,-0.035780,-0.036705,0.997719
2011-09-26T13:22:50.975746,2030,-0.727943,0.105635,-2.475238,-0.035416,-0.037561,0.997101
2011-09-26T13:22:50.985746,2040,-0.704330,0.087670,-2.485300,-0.035053,-0.038418,0.996483
2011-09-26T13:22:50.995746,2050,-0.680718,0.069705,-2.495361,-0.034690,-0.039274,0.995865
2011-09-26T13:22:51.005746,2060,-0.657105,0.051741,-2.505423,-0.034327,-0.040131,0.995247
2011-09-26T13:22:51.015746,2070,-0.633492,0.033776,-2.515485,-0.033964,-0.040988,0.994629
2011-09-26T13:22:51.025746,2080,-0.609880,0.015812,-2.525546,-0.033601,-0.041844,0.994011
2011-09-26T13:22:51.035746,2090,-0.595815,0.002448,-2.531257,-0.033817,-0.041725,0.994438
2011-09-26T13:22:51.045746,2100,-0.581846,-0.010870,-2.536925,-0.034040,-0.041596,0.994874
2011-09-26T13:22:51.055746,2110,-0.567877,-0.024187,-2.542593,-0.034263,-0.041466,0.995311
2011-09-26T13:22:51.065746,2120,-0.553908,-0.037505,-2.548260,-0.034485,-0.041337,0.995748
2011-09-26T13:22:51.075746,2130,-0.539939,-0.050822,-2.553928,-0.034708,-0.041208,0.996185
2011-09-26T13:22:51.085746,2140,-0.525970,-0.064140,-2.559596,-0.034930,-0.041079,0.996622
2011-09-26T13:22:51.095746,2150,-0.512001,-0.077458,-2.565264,-0.035153,-0.040950,0.997059
2011-09-26T13:22:51.105746,2160,-0.498032,-0.090775,-2.570931,-0.035375,-0.040820,0.997496
2011-09-26T13:22:51.115746,2170,-0.484063,-0.104093,-2.576599,-0.035598,-0.040691,0.997933
2011-09-26T13:22:51.125746,2180,-0.470094,-0.117410,-2.582267,-0.035821,-0.040562,0.998369
2011-09-26T13:22:51.135746,2190,-0.451521,-0.128783,-2.587501,-0.036071,-0.041474,0.998493
2011-09-26T13:22:51.145746,2200,-0.432905,-0.140137,-2.592730,-0.036321,-0.042395,0.998613
2011-09-26T13:22:51.155746,2210,-0.414289,-0.151491,-2.597960,-0.036571,-0.043316,0.998734
2011-09-26T13:22:51.165746,2220,-0.395673,-0.162845,-2.603190,-0.036822,-0.044237,0.998854
2011-09-26T13:22:51.175746,2230,-0.377057,-0.174199,-2.608420,-0.037072,-0.045159,0.998975
2011-09-26T13:22:51.185746,2240,-0.358440,-0.185553,-2.613650,-0.037322,-0.046080,0.999095
2011-09-26T13:22:51.195746,2250,-0.339824,-0.196907,-2.618880,-0.037572,-0.047001,0.999215
2011-09-26T13:22:51.205746,2260,-0.321208,-0.208261,-2.624110,-0.037823,-0.047923,0.999336
2011-09-26T13:22:51.215746,2270,-0.302592,-0.219615,-2.629340,-0.038073,-0.048844,0.999456
2011-09-26T13:22:51.225746,2280,-0.283976,-0.230969,-2.634570,-0.038323,-0.049765,0.999577
2011-09-26T13:22:51.235746,2290,-0.274231,-0.240406,-2.651533,-0.037178,-0.049722,1.000477
2011-09-26T13:22:51.245746,2300,-0.264777,-0.249780,-2.668880,-0.035987,-0.049648,1.001402
2011-09-26T13:22:51.255746,2310,-0.255322,-0.259154,-2.686226,-0.034796,-0.049573,1.002327
2011-09-26T13:22:51.265746,2320,-0.245867,-0.268528,-2.703572,-0.033606,-0.049499,1.003252
2011-09-26T13:22:51.275746,2330,-0.236412,-0.277902,-2.720918,-0.032415,-0.049424,1.004178
2011-09-26T13:22:51.285746,2340,-0.226957,-0.287276,-2.738265,-0.031224,-0.049350,1.005103
2011-09-26T13:22:51.295746,2350,-0.217502,-0.296650,-2.755611,-0.030033,-0.049276,1.006028
2011-09-26T13:22:51.305746,2360,-0.208047,-0.306024,-2.772957,-0.028842,-0.049201,1.006953
2011-09-26T13:22:51.315746,2370,-0.198593,-0.315398,-2.790303,-0.027652,-0.049127,1.007879
2011-09-26T13:22:51.325746,2380,-0.189138,-0.324772,-2.807650,-0.026461,-0.049052,1.008804
2011-09-26T13:22:51.335746,2390,-0.179683,-0.334146,-2.824996,-0.025270,-0.048978,1.009729
2011-09-26T13:22:51.345746,2400,-0.187303,-0.317147,-2.839477,-0.025826,-0.049166,1.009921
2011-09-26T13:22:51.355746,2410,-0.195176,-0.299756,-2.853915,-0.026409,-0.049358,1.010101
2011-09-26T13:22:51.365746,2420,-0.203049,-0.282366,-2.868353,-0.026991,-0.049550,1.010282
2011-09-26T13:22:51.375746,2430,-0.210922,-0.264976,-2.882792,-0.027573,-0.049742,1.010462
2011-09-26T13:22:51.385746,2440,-0.218796,-0.247585,-2.897230,-0.028156,-0.049934,1.010642
2011-09-26T13:22:51.395746,2450,-0.226669,-0.230195,-2.911669,-0.028738,-0.050127,1.010823
2011-09-26T13:22:51.405746,2460,-0.234542,-0.212805,-2.926107,-0.029320,-0.050319,1.011003
2011-09-26T13:22:51.415746,2470,-0.242415,-0.195414,-2.940546,-0.029903,-0.050511,1.011184
2011-09-26T13:22:51.425746,2480,-0.250288,-0.178024,-2.954984,-0.030485,-0.050703,1.011364
2011-09-26T13:22:51.435746,2490,-0.258161,-0.160634,-2.969422,-0.031067,-0.050895,1.011545
2011-09-26T13:22:51.445746,2500,-0.246295,-0.169815,-2.997319,-0.029868,-0.050668,1.011472
2011-09-26T13:22:51.455746,2510,-0.234121,-0.179409,-3.025424,-0.028641,-0.050435,1.011395
2011-09-26T13:22:51.465746,2520,-0.221948,-0.189004,-3.053530,-0.027414,-0.050202,1.011317
2011-09-26T13:22:51.475746,2530,-0.209774,-0.198598,-3.081635,-0.026186,-0.049969,1.011240
2011-09-26T13:22:51.485746,2540,-0.197601,-0.208193,-3.109740,-0.024959,-0.049736,1.011163
2011-09-26T13:22:51.495746,2550,-0.185427,-0.217787,-3.137846,-0.023732,-0.049504,1.011086
2011-09-26T13:22:51.505746,2560,-0.173254,-0.227382,-3.165951,-0.022505,-0.049271,1.011009
2011-09-26T13:22:51.515746,2570,-0.161080,-0.236976,-3.194057,-0.021278,-0.049038,1.010932
2011-09-26T13:22:51.525746,2580,-0.148907,-0.246571,-3.222162,-0.020051,-0.048805,1.010855
2011-09-26T13:22:51.535746,2590,-0.136733,-0.256165,-3.250268,-0.018824,-0.048572,1.010778
2011-09-26T13:22:51.545746,2600,-0.136839,-0.297165,-3.263935,-0.018449,-0.049981,1.010708
2011-09-26T13:22:51.555746,2610,-0.137101,-0.338567,-3.277419,-0.018086,-0.051411,1.010638
2011-09-26T13:22:51.565746,2620,-0.137363,-0.379969,-3.290902,-0.017723,-0.052841,1.010569
2011-09-26T13:22:51.575746,2630,-0.137625,-0.421370,-3.304386,-0.017359,-0.054272,1.010499
2011-09-26T13:22:51.585746,2640,-0.137887,-0.462772,-3.317869,-0.016996,-0.055702,1.010429
2011-09-26T13:22:51.595746,2650,-0.138149,-0.504173,-3.331352,-0.016633,-0.057132,1.010360
2011-09-26T13:22:51.605746,2660,-0.138411,-0.545575,-3.344836,-0.016269,-0.058562,1.010290
2011-09-26T13:22:51.615746,2670,-0.138673,-0.586977,-3.358319,-0.015906,-0.059993,1.010220
2011-09-26T13:22:51.625746,2680,-0.138935,-0.628378,-3.371802,-0.015542,-0.061423,1.010151
2011-09-26T13:22:51.635746,2690,-0.139197,-0.669780,-3.385286,-0.015179,-0.062853,1.010081
2011-09-26T13:22:51.645746,2700,-0.139460,-0.711181,-3.398769,-0.014816,-0.064283,1.010011
2011-09-26T13:22:51.655746,2710,-0.136088,-0.625813,-3.427693,-0.014657,-0.064461,1.010298
2011-09-26T13:22:51.665746,2720,-0.132674,-0.538996,-3.456793,-0.014501,-0.064624,1.010589
2011-09-26T13:22:51.675746,2730,-0.129261,-0.452179,-3.485892,-0.014345,-0.064787,1.010880
2011-09-26T13:22:51.685746,2740,-0.125848,-0.365362,-3.514992,-0.014189,-0.064951,1.011171
2011-09-26T13:22:51.695746,2750,-0.122434,-0.278544,-3.544092,-0.014032,-0.065114,1.011462
2011-09-26T13:22:51.705746,2760,-0.119021,-0.191727,-3.573192,-0.013876,-0.065277,1.011753
2011-09-26T13:22:51.715746,2770,-0.115607,-0.104910,-3.602292,-0.013720,-0.065441,1.012044
2011-09-26T13:22:51.725746,2780,-0.112194,-0.018092,-3.631392,-0.013564,-0.065604,1.012335
2011-09-26T13:22:51.735746,2790,-0.108781,0.068725,-3.660492,-0.013408,-0.065767,1.012626
2011-09-26T13:22:51.745746,2800,-0.105367,0.155542,-3.689592,-0.013252,-0.065930,1.012917
2011-09-26T13:22:51.755746,2810,-0.111504,0.161131,-3.708065,-0.013308,-0.067443,1.010044
2011-09-26T13:22:51.765746,2820,-0.117808,0.165297,-3.726352,-0.013369,-0.068979,1.007116
2011-09-26T13:22:51.775746,2830,-0.124112,0.169464,-3.744639,-0.013429,-0.070515,1.004188
2011-09-26T13:22:51.785746,2840,-0.130416,0.173630,-3.762926,-0.013490,-0.072051,1.001261
2011-09-26T13:22:51.795746,2850,-0.136720,0.177797,-3.781212,-0.013550,-0.073587,0.998333
2011-09-26T13:22:51.805746,2860,-0.143025,0.181963,-3.799499,-0.013610,-0.075123,0.995405
2011-09-26T13:22:51.815746,2870,-0.149329,0.186129,-3.817786,-0.013671,-0.076659,0.992477
2011-09-26T13:22:51.825746,2880,-0.155633,0.190296,-3.836073,-0.013731,-0.078195,0.989549
2011-09-26T13:22:51.835746,2890,-0.161937,0.194462,-3.854360,-0.013791,-0.079731,0.986621
2011-09-26T13:22:51.845746,2900,-0.168241,0.198628,-3.872647,-0.013852,-0.081268,0.983693
2011-09-26T13:22:51.855746,2910,-0.174450,0.160596,-3.899161,-0.013423,-0.081078,0.984985
2011-09-26T13:22:51.865746,2920,-0.180657,0.121898,-3.925806,-0.012986,-0.080862,0.986343
2011-09-26T13:22:51.875746,2930,-0.186865,0.083199,-3.952450,-0.012549,-0.080646,0.987702
2011-09-26T13:22:51.885746,2940,-0.193072,0.044501,-3.979094,-0.012112,-0.080430,0.989060
2011-09-26T13:22:51.895746,2950,-0.199280,0.005803,-4.005739,-0.011675,-0.080213,0.990418
2011-09-26T13:22:51.905746,2960,-0.205487,-0.032895,-4.032383,-0.011237,-0.079997,0.991776
2011-09-26T13:22:51.915746,2970,-0.211695,-0.071593,-4.059028,-0.010800,-0.079781,0.993134
2011-09-26T13:22:51.925746,2980,-0.217902,-0.110292,-4.085672,-0.010363,-0.079564,0.994493
2011-09-26T13:22:51.935746,2990,-0.224109,-0.148990,-4.112316,-0.009926,-0.079348,0.995851
2011-09-26T13:22:51.945746,3000,-0.230317,-0.187688,-4.138961,-0.009489,-0.079132,0.997209
2011-09-26T13:22:51.955746,3010,-0.236524,-0.226386,-4.165605,-0.009052,-0.078916,0.998567
2011-09-26T13:22:51.965746,3020,-0.274136,-0.226348,-4.199121,-0.008163,-0.080612,0.998975
2011-09-26T13:22:51.975746,3030,-0.312253,-0.225686,-4.232748,-0.007266,-0.082339,0.999368
2011-09-26T13:22:51.985746,3040,-0.350369,-0.225025,-4.266374,-0.006369,-0.084066,0.999760
2011-09-26T13:22:51.995746,3050,-0.388485,-0.224364,-4.300000,-0.005472,-0.085793,1.000153
2011-09-26T13:22:52.005746,3060,-0.426602,-0.223703,-4.333627,-0.004575,-0.087520,1.000545
2011-09-26T13:22:52.015746,3070,-0.464718,-0.223041,-4.367253,-0.003678,-0.089247,1.000938
2011-09-26T13:22:52.025746,3080,-0.502835,-0.222380,-4.400880,-0.002781,-0.090974,1.001330
2011-09-26T13:22:52.035746,3090,-0.540951,-0.221719,-4.434506,-0.001884,-0.092701,1.001723
2011-09-26T13:22:52.045746,3100,-0.579068,-0.221057,-4.468133,-0.000987,-0.094428,1.002115
2011-09-26T13:22:52.055746,3110,-0.617184,-0.220396,-4.501759,-0.000090,-0.096155,1.002508
2011-09-26T13:22:52.065746,3120,-0.619481,-0.192428,-4.541694,-0.000740,-0.098552,1.004075
2011-09-26T13:22:52.075746,3130,-0.621294,-0.164091,-4.581714,-0.001411,-0.100959,1.005657
2011-09-26T13:22:52.085746,3140,-0.623107,-0.135755,-4.621734,-0.002081,-0.103365,1.007240
2011-09-26T13:22:52.095746,3150,-0.624920,-0.107418,-4.661754,-0.002752,-0.105772,1.008823
2011-09-26T13:22:52.105746,3160,-0.626733,-0.079081,-4.701774,-0.003423,-0.108178,1.010405
2011-09-26T13:22:52.115746,3170,-0.628546,-0.050744,-4.741794,-0.004094,-0.110585,1.011988
2011-09-26T13:22:52.125746,3180,-0.630359,-0.022407,-4.781815,-0.004765,-0.112991,1.013571
2011-09-26T13:22:52.135746,3190,-0.632172,0.005930,-4.821835,-0.005436,-0.115398,1.015153
2011-09-26T13:22:52.145746,3200,-0.633985,0.034267,-4.861855,-0.006107,-0.117804,1.016736
2011-09-26T13:22:52.155746,3210,-0.635798,0.062603,-4.901875,-0.006778,-0.120211,1.018318
2011-09-26T13:22:52.165746,3220,-0.637611,0.090940,-4.941895,-0.007449,-0.122617,1.019901
2011-09-26T13:22:52.175746,3230,-0.633139,0.096686,-4.979613,-0.006814,-0.122185,1.018254
2011-09-26T13:22:52.185746,3240,-0.628571,0.102090,-5.017295,-0.006160,-0.121710,1.016559
2011-09-26T13:22:52.195746,3250,-0.624003,0.107494,-5.054978,-0.005505,-0.121236,1.014864
2011-09-26T13:22:52.205746,3260,-0.619435,0.112897,-5.092661,-0.004851,-0.120761,1.013168
2011-09-26T13:22:52.215746,3270,-0.614867,0.118301,-5.130343,-0.004196,-0.120286,1.011473
2011-09-26T13:22:52.225746,3280,-0.610299,0.123705,-5.168026,-0.003541,-0.119811,1.009777
2011-09-26T13:22:52.235746,3290,-0.605731,0.129109,-5.205709,-0.002887,-0.119336,1.008082
2011-09-26T13:22:52.245746,3300,-0.601163,0.134513,-5.243392,-0.002232,-0.118862,1.006386
2011-09-26T13:22:52.255746,3310,-0.596595,0.139916,-5.281074,-0.001578,-0.118387,1.004691
2011-09-26T13:22:52.265746,3320,-0.592027,0.145320,-5.318757,-0.000923,-0.117912,1.002995
2011-09-26T13:22:52.275746,3330,-0.578585,0.155784,-5.340224,-0.000950,-0.119262,1.001529
2011-09-26T13:22:52.285746,3340,-0.564813,0.166437,-5.361089,-0.001003,-0.120679,1.000072
2011-09-26T13:22:52.295746,3350,-0.551041,0.177089,-5.381953,-0.001055,-0.122096,0.998615
2011-09-26T13:22:52.305746,3360,-0.537269,0.187741,-5.402818,-0.001107,-0.123513,0.997157
2011-09-26T13:22:52.315746,3370,-0.523497,0.198394,-5.423683,-0.001160,-0.124931,0.995700
2011-09-26T13:22:52.325746,3380,-0.509725,0.209046,-5.444547,-0.001212,-0.126348,0.994242
2011-09-26T13:22:52.335746,3390,-0.495953,0.219698,-5.465412,-0.001264,-0.127765,0.992785
2011-09-26T13:22:52.345746,3400,-0.482182,0.230351,-5.486277,-0.001317,-0.129182,0.991328
2011-09-26T13:22:52.355746,3410,-0.468410,0.241003,-5.507141,-0.001369,-0.130600,0.989870
2011-09-26T13:22:52.365746,3420,-0.454638,0.251655,-5.528006,-0.001422,-0.132017,0.988413
2011-09-26T13:22:52.375746,3430,-0.436755,0.205238,-5.554747,-0.001398,-0.133372,0.989560
2011-09-26T13:22:52.385746,3440,-0.418818,0.158085,-5.581565,-0.001373,-0.134726,0.990741
2011-09-26T13:22:52.395746,3450,-0.400882,0.110932,-5.608382,-0.001349,-0.136081,0.991922
2011-09-26T13:22:52.405746,3460,-0.382946,0.063779,-5.635199,-0.001324,-0.137435,0.993104
2011-09-26T13:22:52.415746,3470,-0.365010,0.016626,-5.662016,-0.001299,-0.138789,0.994285
2011-09-26T13:22:52.425746,3480,-0.347074,-0.030527,-5.688833,-0.001275,-0.140144,0.995466
2011-09-26T13:22:52.435746,3490,-0.329138,-0.077680,-5.715650,-0.001250,-0.141498,0.996647
2011-09-26T13:22:52.445746,3500,-0.311202,-0.124833,-5.742467,-0.001225,-0.142852,0.997828
2011-09-26T13:22:52.455746,3510,-0.293266,-0.171986,-5.769284,-0.001201,-0.144207,0.999009
2011-09-26T13:22:52.465746,3520,-0.275329,-0.219138,-5.796101,-0.001176,-0.145561,1.000190
2011-09-26T13:22:52.475746,3530,-0.257393,-0.266291,-5.822918,-0.001151,-0.146915,1.001371
2011-09-26T13:22:52.485746,3540,-0.210968,-0.322726,-5.834382,-0.001332,-0.147289,1.002279
2011-09-26T13:22:52.495746,3550,-0.163890,-0.379374,-5.845493,-0.001518,-0.147640,1.003181
2011-09-26T13:22:52.505746,3560,-0.116811,-0.436022,-5.856605,-0.001703,-0.147991,1.004083
2011-09-26T13:22:52.515746,3570,-0.069733,-0.492670,-5.867716,-0.001889,-0.148342,1.004985
2011-09-26T13:22:52.525746,3580,-0.022655,-0.549318,-5.878828,-0.002074,-0.148693,1.005887
2011-09-26T13:22:52.535746,3590,0.024424,-0.605966,-5.889939,-0.002260,-0.149044,1.006789
2011-09-26T13:22:52.545746,3600,0.071502,-0.662614,-5.901051,-0.002445,-0.149395,1.007691
2011-09-26T13:22:52.555746,3610,0.118580,-0.719262,-5.912162,-0.002631,-0.149746,1.008593
2011-09-26T13:22:52.565746,3620,0.165659,-0.775910,-5.923274,-0.002816,-0.150097,1.009495
2011-09-26T13:22:52.575746,3630,0.212737,-0.832558,-5.934385,-0.003002,-0.150448,1.010397
2011-09-26T13:22:52.585746,3640,0.255293,-0.860818,-5.948722,-0.002016,-0.151252,1.012069
2011-09-26T13:22:52.595746,3650,0.297772,-0.888597,-5.963113,-0.001011,-0.152063,1.013755
2011-09-26T13:22:52.605746,3660,0.340251,-0.916376,-5.977504,-0.000005,-0.152874,1.015440
2011-09-26T13:22:52.615746,3670,0.382730,-0.944154,-5.991895,0.001000,-0.153685,1.017125
2011-09-26T13:22:52.625746,3680,0.425209,-0.971933,-6.006287,0.002006,-0.154497,1.018811
2011-09-26T13:22:52.635746,3690,0.467688,-0.999712,-6.020678,0.003011,-0.155308,1.020496
2011-09-26T13:22:52.645746,3700,0.510167,-1.027490,-6.035069,0.004017,-0.156119,1.022181
2011-09-26T13:22:52.655746,3710,0.552646,-1.055269,-6.049460,0.005023,-0.156930,1.023866
2011-09-26T13:22:52.665746,3720,0.595125,-1.083047,-6.063852,0.006028,-0.157742,1.025552
2011-09-26T13:22:52.675746,3730,0.637604,-1.110826,-6.078243,0.007034,-0.158553,1.027237
2011-09-26T13:22:52.685746,3740,0.646544,-1.072542,-6.087271,0.007461,-0.158393,1.027315
2011-09-26T13:22:52.695746,3750,0.655021,-1.033345,-6.096224,0.007881,-0.158220,1.027371
2011-09-26T13:22:52.705746,3760,0.663498,-0.994148,-6.105178,0.008301,-0.158047,1.027427
2011-09-26T13:22:52.715746,3770,0.671975,-0.954951,-6.114131,0.008721,-0.157873,1.027482
2011-09-26T13:22:52.725746,3780,0.680452,-0.915754,-6.123085,0.009140,-0.157700,1.027538
2011-09-26T13:22:52.735746,3790,0.688928,-0.876557,-6.132039,0.009560,-0.157527,1.027594
2011-09-26T13:22:52.745746,3800,0.697405,-0.837360,-6.140992,0.009980,-0.157353,1.027650
2011-09-26T13:22:52.755746,3810,0.705882,-0.798163,-6.149946,0.010400,-0.157180,1.027706
2011-09-26T13:22:52.765746,3820,0.714359,-0.758966,-6.158899,0.010819,-0.157007,1.027761
2011-09-26T13:22:52.775746,3830,0.722836,-0.719769,-6.167853,0.011239,-0.156833,1.027817
2011-09-26T13:22:52.785746,3840,0.731313,-0.680572,-6.176806,0.011659,-0.156660,1.027873
2011-09-26T13:22:52.795746,3850,0.717137,-0.659662,-6.188057,0.011288,-0.156910,1.027117
2011-09-26T13:22:52.805746,3860,0.702531,-0.639099,-6.199351,0.010902,-0.157168,1.026346
2011-09-26T13:22:52.815746,3870,0.687926,-0.618537,-6.210645,0.010517,-0.157426,1.025574
2011-09-26T13:22:52.825746,3880,0.673320,-0.597974,-6.221939,0.010131,-0.157684,1.024803
2011-09-26T13:22:52.835746,3890,0.658714,-0.577412,-6.233233,0.009745,-0.157942,1.024031
2011-09-26T13:22:52.845746,3900,0.644108,-0.556849,-6.244527,0.009359,-0.158200,1.023260
2011-09-26T13:22:52.855746,3910,0.629502,-0.536287,-6.255822,0.008973,-0.158458,1.022488
2011-09-26T13:22:52.865746,3920,0.614897,-0.515724,-6.267116,0.008588,-0.158716,1.021717
2011-09-26T13:22:52.875746,3930,0.600291,-0.495162,-6.278410,0.008202,-0.158974,1.020945
2011-09-26T13:22:52.885746,3940,0.585685,-0.474599,-6.289704,0.007816,-0.159232,1.020174
2011-09-26T13:22:52.895746,3950,0.569535,-0.436927,-6.283660,0.007932,-0.158385,1.019181
2011-09-26T13:22:52.905746,3960,0.553363,-0.399012,-6.277369,0.008055,-0.157523,1.018185
2011-09-26T13:22:52.915746,3970,0.537191,-0.361097,-6.271079,0.008178,-0.156661,1.017188
2011-09-26T13:22:52.925746,3980,0.521020,-0.323182,-6.264788,0.008301,-0.155799,1.016192
2011-09-26T13:22:52.935746,3990,0.504848,-0.285267,-6.258497,0.008424,-0.154937,1.015196
2011-09-26T13:22:52.945746,4000,0.488676,-0.247352,-6.252207,0.008546,-0.154075,1.014200
2011-09-26T13:22:52.955746,4010,0.472504,-0.209437,-6.245916,0.008669,-0.153213,1.013204
2011-09-26T13:22:52.965746,4020,0.456332,-0.171522,-6.239626,0.008792,-0.152351,1.012207
2011-09-26T13:22:52.975746,4030,0.440160,-0.133607,-6.233335,0.008915,-0.151489,1.011211
2011-09-26T13:22:52.985746,4040,0.423988,-0.095692,-6.227045,0.009038,-0.150627,1.010215
2011-09-26T13:22:52.995746,4050,0.398274,-0.080893,-6.229329,0.008953,-0.150312,1.009186
2011-09-26T13:22:53.005746,4060,0.372428,-0.066411,-6.231730,0.008866,-0.150004,1.008156
2011-09-26T13:22:53.015746,4070,0.346583,-0.051930,-6.234132,0.008779,-0.149697,1.007127
2011-09-26T13:22:53.025746,4080,0.320737,-0.037448,-6.236533,0.008691,-0.149389,1.006098
2011-09-26T13:22:53.035746,4090,0.294892,-0.022966,-6.238934,0.008604,-0.149081,1.005068
2011-09-26T13:22:53.045746,4100,0.269046,-0.008484,-6.241336,0.008516,-0.148774,1.004039
2011-09-26T13:22:53.055746,4110,0.243201,0.005998,-6.243737,0.008429,-0.148466,1.003009
2011-09-26T13:22:53.065746,4120,0.217355,0.020480,-6.246139,0.008341,-0.148158,1.001980
2011-09-26T13:22:53.075746,4130,0.191510,0.034962,-6.248540,0.008254,-0.147851,1.000950
2011-09-26T13:22:53.085746,4140,0.165664,0.049444,-6.250942,0.008167,-0.147543,0.999921
2011-09-26T13:22:53.095746,4150,0.139819,0.063926,-6.253343,0.008079,-0.147236,0.998891
2011-09-26T13:22:53.105746,4160,0.141945,0.070221,-6.255798,0.008311,-0.148198,1.000019
2011-09-26T13:22:53.115746,4170,0.144456,0.076403,-6.258253,0.008547,-0.149177,1.001176
2011-09-26T13:22:53.125746,4180,0.146968,0.082586,-6.260708,0.008783,-0.150156,1.002334
2011-09-26T13:22:53.135746,4190,0.149479,0.088768,-6.263164,0.009020,-0.151136,1.003491
2011-09-26T13:22:53.145746,4200,0.151991,0.094950,-6.265619,0.009256,-0.152115,1.004648
2011-09-26T13:22:53.155746,4210,0.154502,0.101133,-6.268074,0.009492,-0.153095,1.005806
2011-09-26T13:22:53.165746,4220,0.157014,0.107315,-6.270530,0.009728,-0.154074,1.006963
2011-09-26T13:22:53.175746,4230,0.159525,0.113497,-6.272985,0.009965,-0.155053,1.008120
2011-09-26T13:22:53.185746,4240,0.162037,0.119680,-6.275440,0.010201,-0.156033,1.009278
2011-09-26T13:22:53.195746,4250,0.164548,0.125862,-6.277895,0.010437,-0.157012,1.010435
2011-09-26T13:22:53.205746,4260,0.130614,0.093518,-6.275128,0.010719,-0.157056,1.009168
2011-09-26T13:22:53.215746,4270,0.096138,0.060602,-6.272282,0.011001,-0.157085,1.007866
2011-09-26T13:22:53.225746,4280,0.061663,0.027685,-6.269437,0.011284,-0.157114,1.006563
2011-09-26T13:22:53.235746,4290,0.027187,-0.005231,-6.266592,0.011566,-0.157144,1.005261
2011-09-26T13:22:53.245746,4300,-0.007288,-0.038147,-6.263747,0.011849,-0.157173,1.003958
2011-09-26T13:22:53.255746,4310,-0.041764,-0.071063,-6.260901,0.012131,-0.157202,1.002655
2011-09-26T13:22:53.265746,4320,-0.076240,-0.103979,-6.258056,0.012414,-0.157232,1.001353
2011-09-26T13:22:53.275746,4330,-0.110715,-0.136895,-6.255211,0.012696,-0.157261,1.000050
2011-09-26T13:22:53.285746,4340,-0.145191,-0.169811,-6.252366,0.012979,-0.157291,0.998747
2011-09-26T13:22:53.295746,4350,-0.179666,-0.202728,-6.249520,0.013261,-0.157320,0.997445
2011-09-26T13:22:53.305746,4360,-0.181041,-0.248339,-6.251955,0.013243,-0.157777,0.998157
2011-09-26T13:22:53.315746,4370,-0.181853,-0.294167,-6.254479,0.013219,-0.158240,0.998903
2011-09-26T13:22:53.325746,4380,-0.182666,-0.339994,-6.257003,0.013196,-0.158704,0.999649
2011-09-26T13:22:53.335746,4390,-0.183478,-0.385822,-6.259527,0.013172,-0.159168,1.000395
2011-09-26T13:22:53.345746,4400,-0.184290,-0.431650,-6.262051,0.013149,-0.159632,1.001141
2011-09-26T13:22:53.355746,4410,-0.185102,-0.477477,-6.264575,0.013125,-0.160096,1.001887
2011-09-26T13:22:53.365746,4420,-0.185914,-0.523305,-6.267099,0.013102,-0.160560,1.002633
2011-09-26T13:22:53.375746,4430,-0.186727,-0.569132,-6.269623,0.013078,-0.161024,1.003379
2011-09-26T13:22:53.385746,4440,-0.187539,-0.614960,-6.272147,0.013055,-0.161488,1.004125
2011-09-26T13:22:53.395746,4450,-0.188351,-0.660788,-6.274671,0.013031,-0.161952,1.004872
2011-09-26T13:22:53.405746,4460,-0.189163,-0.706615,-6.277195,0.013008,-0.162416,1.005618
2011-09-26T13:22:53.415746,4470,-0.173298,-0.688480,-6.267331,0.012974,-0.163322,1.007763
2011-09-26T13:22:53.425746,4480,-0.157207,-0.669475,-6.257298,0.012940,-0.164235,1.009928
2011-09-26T13:22:53.435746,4490,-0.141115,-0.650471,-6.247265,0.012906,-0.165147,1.012093
2011-09-26T13:22:53.445746,4500,-0.125023,-0.631467,-6.237232,0.012872,-0.166060,1.014257
2011-09-26T13:22:53.455746,4510,-0.108932,-0.612462,-6.227199,0.012838,-0.166972,1.016422
2011-09-26T13:22:53.465746,4520,-0.092840,-0.593458,-6.217166,0.012804,-0.167885,1.018587
2011-09-26T13:22:53.475746,4530,-0.076748,-0.574453,-6.207134,0.012770,-0.168797,1.020751
2011-09-26T13:22:53.485746,4540,-0.060657,-0.555449,-6.197101,0.012736,-0.169710,1.022916
2011-09-26T13:22:53.495746,4550,-0.044565,-0.536445,-6.187068,0.012702,-0.170622,1.025081
2011-09-26T13:22:53.505746,4560,-0.028473,-0.517440,-6.177035,0.012668,-0.171535,1.027245
2011-09-26T13:22:53.515746,4570,0.015539,-0.456071,-6.169019,0.013325,-0.170747,1.027013
2011-09-26T13:22:53.525746,4580,0.059981,-0.394052,-6.161033,0.013992,-0.169934,1.026743
2011-09-26T13:22:53.535746,4590,0.104422,-0.332032,-6.153048,0.014659,-0.169121,1.026474
2011-09-26T13:22:53.545746,4600,0.148863,-0.270013,-6.145062,0.015325,-0.168308,1.026205
2011-09-26T13:22:53.555746,4610,0.193304,-0.207994,-6.137077,0.015992,-0.167495,1.025935
2011-09-26T13:22:53.565746,4620,0.237745,-0.145974,-6.129092,0.016659,-0.166681,1.025666
2011-09-26T13:22:53.575746,4630,0.282186,-0.083955,-6.121106,0.017326,-0.165868,1.025396
2011-09-26T13:22:53.585746,4640,0.326627,-0.021935,-6.113121,0.017993,-0.165055,1.025127
2011-09-26T13:22:53.595746,4650,0.371068,0.040084,-6.105135,0.018660,-0.164242,1.024858
2011-09-26T13:22:53.605746,4660,0.415509,0.102103,-6.097150,0.019327,-0.163428,1.024588
2011-09-26T13:22:53.615746,4670,0.459950,0.164123,-6.089165,0.019994,-0.162615,1.024319
2011-09-26T13:22:53.625746,4680,0.501578,0.195247,-6.059565,0.019328,-0.162046,1.022890
2011-09-26T13:22:53.635746,4690,0.543157,0.225832,-6.029589,0.018639,-0.161480,1.021440
2011-09-26T13:22:53.645746,4700,0.584736,0.256418,-5.999612,0.017951,-0.160915,1.019990
2011-09-26T13:22:53.655746,4710,0.626315,0.287004,-5.969636,0.017262,-0.160350,1.018541
2011-09-26T13:22:53.665746,4720,0.667894,0.317590,-5.939660,0.016573,-0.159784,1.017091
2011-09-26T13:22:53.675746,4730,0.709473,0.348176,-5.909684,0.015884,-0.159219,1.015642
2011-09-26T13:22:53.685746,4740,0.751052,0.378762,-5.879708,0.015196,-0.158654,1.014192
2011-09-26T13:22:53.695746,4750,0.792631,0.409348,-5.849732,0.014507,-0.158089,1.012743
2011-09-26T13:22:53.705746,4760,0.834210,0.439934,-5.819756,0.013818,-0.157523,1.011293
2011-09-26T13:22:53.715746,4770,0.875789,0.470520,-5.789779,0.013129,-0.156958,1.009843
2011-09-26T13:22:53.725746,4780,0.914753,0.461470,-5.769163,0.012822,-0.155276,1.005347
2011-09-26T13:22:53.735746,4790,0.953658,0.451536,-5.748755,0.012523,-0.153569,1.000782
2011-09-26T13:22:53.745746,4800,0.992564,0.441602,-5.728347,0.012225,-0.151862,0.996218
2011-09-26T13:22:53.755746,4810,1.031469,0.431667,-5.707939,0.011926,-0.150155,0.991653
2011-09-26T13:22:53.765746,4820,1.070375,0.421733,-5.687531,0.011627,-0.148448,0.987089
2011-09-26T13:22:53.775746,4830,1.109280,0.411799,-5.667123,0.011329,-0.146741,0.982524
2011-09-26T13:22:53.785746,4840,1.148186,0.401865,-5.646715,0.011030,-0.145034,0.977960
2011-09-26T13:22:53.795746,4850,1.187091,0.391930,-5.626308,0.010731,-0.143327,0.973395
2011-09-26T13:22:53.805746,4860,1.225997,0.381996,-5.605900,0.010433,-0.141620,0.968831
2011-09-26T13:22:53.815746,4870,1.264902,0.372062,-5.585492,0.010134,-0.139913,0.964266
2011-09-26T13:22:53.825746,4880,1.267540,0.299024,-5.568891,0.010042,-0.138930,0.966096
2011-09-26T13:22:53.835746,4890,1.269566,0.224919,-5.552354,0.009953,-0.137959,0.968033
2011-09-26T13:22:53.845746,4900,1.271591,0.150814,-5.535817,0.009864,-0.136988,0.969971
2011-09-26T13:22:53.855746,4910,1.273616,0.076709,-5.519280,0.009775,-0.136017,0.971909
2011-09-26T13:22:53.865746,4920,1.275642,0.002604,-5.502743,0.009686,-0.135046,0.973846
2011-09-26T13:22:53.875746,4930,1.277667,-0.071501,-5.486207,0.009597,-0.134075,0.975784
2011-09-26T13:22:53.885746,4940,1.279692,-0.145606,-5.469670,0.009508,-0.133104,0.977722
2011-09-26T13:22:53.895746,4950,1.281718,-0.219711,-5.453133,0.009419,-0.132133,0.979659
2011-09-26T13:22:53.905746,4960,1.283743,-0.293816,-5.436596,0.009330,-0.131162,0.981597
2011-09-26T13:22:53.915746,4970,1.285768,-0.367921,-5.420059,0.009241,-0.130191,0.983535
2011-09-26T13:22:53.925746,4980,1.287793,-0.442026,-5.403522,0.009152,-0.129220,0.985472
2011-09-26T13:22:53.935746,4990,1.273195,-0.471533,-5.392368,0.009094,-0.128681,0.988375
2011-09-26T13:22:53.945746,5000,1.258330,-0.500323,-5.381300,0.009037,-0.128148,0.991292
2011-09-26T13:22:53.955746,5010,1.243464,-0.529113,-5.370232,0.008980,-0.127616,0.994210
2011-09-26T13:22:53.965746,5020,1.228599,-0.557904,-5.359164,0.008923,-0.127084,0.997128
2011-09-26T13:22:53.975746,5030,1.213733,-0.586694,-5.348096,0.008865,-0.126551,1.000045
2011-09-26T13:22:53.985746,5040,1.198868,-0.615484,-5.337028,0.008808,-0.126019,1.002963
2011-09-26T13:22:53.995746,5050,1.184002,-0.644274,-5.325960,0.008751,-0.125486,1.005881
2011-09-26T13:22:54.005746,5060,1.169136,-0.673064,-5.314892,0.008694,-0.124954,1.008799
2011-09-26T13:22:54.015746,5070,1.154271,-0.701854,-5.303824,0.008636,-0.124422,1.011716
2011-09-26T13:22:54.025746,5080,1.139405,-0.730644,-5.292756,0.008579,-0.123889,1.014634
2011-09-26T13:22:54.035746,5090,1.118538,-0.746294,-5.276340,0.008980,-0.123532,1.015186
2011-09-26T13:22:54.045746,5100,1.097559,-0.761698,-5.259824,0.009389,-0.123178,1.015695
2011-09-26T13:22:54.055746,5110,1.076580,-0.777103,-5.243308,0.009799,-0.122824,1.016203
2011-09-26T13:22:54.065746,5120,1.055602,-0.792507,-5.226792,0.010208,-0.122471,1.016711
2011-09-26T13:22:54.075746,5130,1.034623,-0.807912,-5.210276,0.010618,-0.122117,1.017220
2011-09-26T13:22:54.085746,5140,1.013644,-0.823316,-5.193760,0.011027,-0.121763,1.017728
2011-09-26T13:22:54.095746,5150,0.992665,-0.838721,-5.177244,0.011437,-0.121409,1.018236
2011-09-26T13:22:54.105746,5160,0.971686,-0.854125,-5.160727,0.011846,-0.121055,1.018744
2011-09-26T13:22:54.115746,5170,0.950707,-0.869530,-5.144211,0.012256,-0.120701,1.019253
2011-09-26T13:22:54.125746,5180,0.929728,-0.884934,-5.127695,0.012665,-0.120347,1.019761
2011-09-26T13:22:54.135746,5190,0.886475,-0.827378,-5.123074,0.012933,-0.118220,1.019334
2011-09-26T13:22:54.145746,5200,0.842828,-0.768528,-5.118664,0.013199,-0.116062,1.018891
2011-09-26T13:22:54.155746,5210,0.799180,-0.709678,-5.114254,0.013465,-0.113903,1.018448
2011-09-26T13:22:54.165746,5220,0.755533,-0.650828,-5.109843,0.013730,-0.111745,1.018004
2011-09-26T13:22:54.175746,5230,0.711885,-0.591978,-5.105433,0.013996,-0.109586,1.017561
2011-09-26T13:22:54.185746,5240,0.668237,-0.533127,-5.101023,0.014262,-0.107427,1.017118
2011-09-26T13:22:54.195746,5250,0.624590,-0.474277,-5.096613,0.014527,-0.105269,1.016675
2011-09-26T13:22:54.205746,5260,0.580942,-0.415427,-5.092202,0.014793,-0.103110,1.016231
2011-09-26T13:22:54.215746,5270,0.537295,-0.356577,-5.087792,0.015058,-0.100952,1.015788
2011-09-26T13:22:54.225746,5280,0.493647,-0.297727,-5.083382,0.015324,-0.098793,1.015345
2011-09-26T13:22:54.235746,5290,0.450000,-0.238877,-5.078972,0.015590,-0.096635,1.014901
2011-09-26T13:22:54.245746,5300,0.431526,-0.203554,-5.086068,0.016177,-0.097607,1.014399
2011-09-26T13:22:54.255746,5310,0.414210,-0.169312,-5.093692,0.016780,-0.098722,1.013894
2011-09-26T13:22:54.265746,5320,0.396893,-0.135070,-5.101317,0.017382,-0.099838,1.013389
2011-09-26T13:22:54.275746,5330,0.379576,-0.100828,-5.108942,0.017985,-0.100954,1.012883
2011-09-26T13:22:54.285746,5340,0.362260,-0.066586,-5.116567,0.018587,-0.102070,1.012378
2011-09-26T13:22:54.295746,5350,0.344943,-0.032344,-5.124191,0.019190,-0.103186,1.011873
2011-09-26T13:22:54.305746,5360,0.327626,0.001898,-5.131816,0.019792,-0.104302,1.011368
2011-09-26T13:22:54.315746,5370,0.310310,0.036139,-5.139441,0.020395,-0.105418,1.010863
2011-09-26T13:22:54.325746,5380,0.292993,0.070381,-5.147065,0.020998,-0.106533,1.010357
2011-09-26T13:22:54.335746,5390,0.275676,0.104623,-5.154690,0.021600,-0.107649,1.009852
2011-09-26T13:22:54.345746,5400,0.265781,0.102745,-5.143358,0.021723,-0.108776,1.009228
2011-09-26T13:22:54.355746,5410,0.256071,0.099970,-5.131556,0.021835,-0.109903,1.008601
2011-09-26T13:22:54.365746,5420,0.246360,0.097195,-5.119753,0.021946,-0.111030,1.007974
2011-09-26T13:22:54.375746,5430,0.236650,0.094420,-5.107951,0.022058,-0.112157,1.007346
2011-09-26T13:22:54.385746,5440,0.226939,0.091645,-5.096148,0.022169,-0.113284,1.006719
2011-09-26T13:22:54.395746,5450,0.217229,0.088870,-5.084346,0.022281,-0.114411,1.006092
2011-09-26T13:22:54.405746,5460,0.207518,0.086095,-5.072543,0.022392,-0.115538,1.005465
2011-09-26T13:22:54.415746,5470,0.197807,0.083320,-5.060741,0.022504,-0.116665,1.004838
2011-09-26T13:22:54.425746,5480,0.188097,0.080545,-5.048938,0.022615,-0.117792,1.004210
2011-09-26T13:22:54.435746,5490,0.178386,0.077770,-5.037135,0.022727,-0.118919,1.003583
2011-09-26T13:22:54.445746,5500,0.182893,0.139700,-4.999052,0.022457,-0.117450,1.001209
2011-09-26T13:22:54.455746,5510,0.187727,0.203121,-4.960362,0.022179,-0.115921,0.998794
2011-09-26T13:22:54.465746,5520,0.192561,0.266541,-4.921673,0.021901,-0.114393,0.996379
2011-09-26T13:22:54.475746,5530,0.197395,0.329962,-4.882984,0.021622,-0.112864,0.993964
2011-09-26T13:22:54.485746,5540,0.202230,0.393382,-4.844295,0.021344,-0.111336,0.991549
2011-09-26T13:22:54.495746,5550,0.207064,0.456803,-4.805606,0.021065,-0.109807,0.989134
2011-09-26T13:22:54.505746,5560,0.211898,0.520224,-4.766917,0.020787,-0.108279,0.986719
2011-09-26T13:22:54.515746,5570,0.216732,0.583644,-4.728228,0.020509,-0.106750,0.984303
2011-09-26T13:22:54.525746,5580,0.221566,0.647065,-4.689539,0.020230,-0.105222,0.981888
2011-09-26T13:22:54.535746,5590,0.226400,0.710485,-4.650850,0.019952,-0.103693,0.979473
2011-09-26T13:22:54.545746,5600,0.231234,0.773906,-4.612160,0.019674,-0.102164,0.977058
2011-09-26T13:22:54.555746,5610,0.248518,0.755075,-4.558830,0.018990,-0.100854,0.976918
2011-09-26T13:22:54.565746,5620,0.266047,0.734624,-4.505211,0.018299,-0.099548,0.976823
2011-09-26T13:22:54.575746,5630,0.283576,0.714174,-4.451592,0.017607,-0.098241,0.976727
2011-09-26T13:22:54.585746,5640,0.301105,0.693723,-4.397974,0.016915,-0.096935,0.976632
2011-09-26T13:22:54.595746,5650,0.318634,0.673273,-4.344355,0.016224,-0.095629,0.976536
2011-09-26T13:22:54.605746,5660,0.336164,0.652822,-4.290736,0.015532,-0.094323,0.976441
2011-09-26T13:22:54.615746,5670,0.353693,0.632372,-4.237117,0.014841,-0.093016,0.976346
2011-09-26T13:22:54.625746,5680,0.371222,0.611921,-4.183499,0.014149,-0.091710,0.976250
2011-09-26T13:22:54.635746,5690,0.388751,0.591471,-4.129880,0.013458,-0.090404,0.976155
2011-09-26T13:22:54.645746,5700,0.406280,0.571020,-4.076261,0.012766,-0.089098,0.976059
2011-09-26T13:22:54.655746,5710,0.331108,0.467360,-4.047841,0.013025,-0.088638,0.977034
2011-09-26T13:22:54.665746,5720,0.254099,0.362051,-4.019920,0.013303,-0.088195,0.978030
2011-09-26T13:22:54.675746,5730,0.177091,0.256743,-3.991999,0.013580,-0.087752,0.979026
2011-09-26T13:22:54.685746,5740,0.100082,0.151434,-3.964078,0.013858,-0.087309,0.980022
2011-09-26T13:22:54.695746,5750,0.023073,0.046125,-3.936157,0.014136,-0.086866,0.981018
2011-09-26T13:22:54.705746,5760,-0.053936,-0.059184,-3.908236,0.014414,-0.086423,0.982014
2011-09-26T13:22:54.715746,5770,-0.130945,-0.164493,-3.880315,0.014691,-0.085980,0.983010
2011-09-26T13:22:54.725746,5780,-0.207953,-0.269802,-3.852395,0.014969,-0.085537,0.984006
2011-09-26T13:22:54.735746,5790,-0.284962,-0.375111,-3.824474,0.015247,-0.085094,0.985001
2011-09-26T13:22:54.745746,5800,-0.361971,-0.480420,-3.796553,0.015524,-0.084651,0.985997
2011-09-26T13:22:54.755746,5810,-0.361494,-0.473169,-3.805243,0.016258,-0.083333,0.988960
2011-09-26T13:22:54.765746,5820,-0.357838,-0.461300,-3.815436,0.017011,-0.081980,0.992003
2011-09-26T13:22:54.775746,5830,-0.354182,-0.449432,-3.825628,0.017764,-0.080627,0.995046
2011-09-26T13:22:54.785746,5840,-0.350527,-0.437564,-3.835820,0.018517,-0.079274,0.998089
2011-09-26T13:22:54.795746,5850,-0.346871,-0.425695,-3.846012,0.019270,-0.077921,1.001132
2011-09-26T13:22:54.805746,5860,-0.343216,-0.413827,-3.856204,0.020022,-0.076567,1.004175
2011-09-26T13:22:54.815746,5870,-0.339560,-0.401958,-3.866397,0.020775,-0.075214,1.007218
2011-09-26T13:22:54.825746,5880,-0.335904,-0.390090,-3.876589,0.021528,-0.073861,1.010261
2011-09-26T13:22:54.835746,5890,-0.332249,-0.378221,-3.886781,0.022281,-0.072508,1.013304
2011-09-26T13:22:54.845746,5900,-0.328593,-0.366353,-3.896973,0.023034,-0.071154,1.016347
2011-09-26T13:22:54.855746,5910,-0.324937,-0.354485,-3.907166,0.023786,-0.069801,1.019390
2011-09-26T13:22:54.865746,5920,-0.346505,-0.285621,-3.898774,0.022945,-0.070527,1.018815
2011-09-26T13:22:54.875746,5930,-0.368601,-0.215562,-3.889994,0.022071,-0.071296,1.018164
2011-09-26T13:22:54.885746,5940,-0.390697,-0.145503,-3.881213,0.021196,-0.072065,1.017512
2011-09-26T13:22:54.895746,5950,-0.412793,-0.075444,-3.872432,0.020322,-0.072834,1.016861
2011-09-26T13:22:54.905746,5960,-0.434890,-0.005386,-3.863652,0.019448,-0.073603,1.016210
2011-09-26T13:22:54.915746,5970,-0.456986,0.064673,-3.854871,0.018573,-0.074373,1.015559
2011-09-26T13:22:54.925746,5980,-0.479082,0.134732,-3.846090,0.017699,-0.075142,1.014907
2011-09-26T13:22:54.935746,5990,-0.501178,0.204791,-3.837309,0.016824,-0.075911,1.014256
2011-09-26T13:22:54.945746,6000,-0.523274,0.274849,-3.828529,0.015950,-0.076680,1.013605
2011-09-26T13:22:54.955746,6010,-0.545370,0.344908,-3.819748,0.015075,-0.077449,1.012953
2011-09-26T13:22:54.965746,6020,-0.548425,0.358225,-3.819222,0.014637,-0.077200,1.010570
2011-09-26T13:22:54.975746,6030,-0.550987,0.370075,-3.818909,0.014209,-0.076925,1.008141
2011-09-26T13:22:54.985746,6040,-0.553549,0.381924,-3.818597,0.013782,-0.076649,1.005713
2011-09-26T13:22:54.995746,6050,-0.556111,0.393774,-3.818284,0.013354,-0.076374,1.003285
2011-09-26T13:22:55.005746,6060,-0.558673,0.405623,-3.817971,0.012927,-0.076099,1.000856
2011-09-26T13:22:55.015746,6070,-0.561234,0.417472,-3.817659,0.012499,-0.075823,0.998428
2011-09-26T13:22:55.025746,6080,-0.563796,0.429322,-3.817346,0.012071,-0.075548,0.995999
2011-09-26T13:22:55.035746,6090,-0.566358,0.441171,-3.817034,0.011644,-0.075272,0.993571
2011-09-26T13:22:55.045746,6100,-0.568920,0.453021,-3.816721,0.011216,-0.074997,0.991143
2011-09-26T13:22:55.055746,6110,-0.571482,0.464870,-3.816408,0.010789,-0.074722,0.988714
2011-09-26T13:22:55.065746,6120,-0.574044,0.476719,-3.816096,0.010361,-0.074446,0.986286
2011-09-26T13:22:55.075746,6130,-0.578938,0.432081,-3.813373,0.010563,-0.075107,0.986537
2011-09-26T13:22:55.085746,6140,-0.583881,0.386231,-3.810599,0.010778,-0.075788,0.986845
2011-09-26T13:22:55.095746,6150,-0.588825,0.340380,-3.807824,0.010993,-0.076468,0.987154
2011-09-26T13:22:55.105746,6160,-0.593769,0.294529,-3.805050,0.011208,-0.077149,0.987462
2011-09-26T13:22:55.115746,6170,-0.598712,0.248679,-3.802275,0.011423,-0.077829,0.987771
2011-09-26T13:22:55.125746,6180,-0.603656,0.202828,-3.799501,0.011638,-0.078510,0.988079
2011-09-26T13:22:55.135746,6190,-0.608600,0.156977,-3.796726,0.011853,-0.079191,0.988387
2011-09-26T13:22:55.145746,6200,-0.613544,0.111127,-3.793952,0.012068,-0.079871,0.988696
2011-09-26T13:22:55.155746,6210,-0.618487,0.065276,-3.791177,0.012284,-0.080552,0.989004
2011-09-26T13:22:55.165746,6220,-0.623431,0.019425,-3.788403,0.012499,-0.081233,0.989313
2011-09-26T13:22:55.175746,6230,-0.580161,0.090983,-3.793876,0.013353,-0.079876,0.990662
2011-09-26T13:22:55.185746,6240,-0.535801,0.165197,-3.799536,0.014222,-0.078474,0.992035
2011-09-26T13:22:55.195746,6250,-0.491441,0.239410,-3.805196,0.015091,-0.077071,0.993407
2011-09-26T13:22:55.205746,6260,-0.447081,0.313624,-3.810855,0.015960,-0.075669,0.994780
2011-09-26T13:22:55.215746,6270,-0.402721,0.387838,-3.816515,0.016829,-0.074266,0.996153
2011-09-26T13:22:55.225746,6280,-0.358361,0.462051,-3.822175,0.017698,-0.072864,0.997525
2011-09-26T13:22:55.235746,6290,-0.314001,0.536265,-3.827835,0.018567,-0.071461,0.998898
2011-09-26T13:22:55.245746,6300,-0.269641,0.610479,-3.833495,0.019436,-0.070059,1.000270
2011-09-26T13:22:55.255746,6310,-0.225281,0.684692,-3.839154,0.020305,-0.068656,1.001643
2011-09-26T13:22:55.265746,6320,-0.180920,0.758906,-3.844814,0.021174,-0.067254,1.003016
2011-09-26T13:22:55.275746,6330,-0.137513,0.723681,-3.833621,0.019730,-0.069319,1.000142
2011-09-26T13:22:55.285746,6340,-0.094132,0.685299,-3.821942,0.018218,-0.071485,0.997145
2011-09-26T13:22:55.295746,6350,-0.050752,0.646918,-3.810263,0.016707,-0.073651,0.994149
2011-09-26T13:22:55.305746,6360,-0.007372,0.608537,-3.798585,0.015196,-0.075817,0.991152
2011-09-26T13:22:55.315746,6370,0.036008,0.570155,-3.786906,0.013684,-0.077983,0.988156
2011-09-26T13:22:55.325746,6380,0.079389,0.531774,-3.775227,0.012173,-0.080149,0.985159
2011-09-26T13:22:55.335746,6390,0.122769,0.493393,-3.763548,0.010662,-0.082314,0.982163
2011-09-26T13:22:55.345746,6400,0.166149,0.455011,-3.751869,0.009150,-0.084480,0.979166
2011-09-26T13:22:55.355746,6410,0.209529,0.416630,-3.740190,0.007639,-0.086646,0.976170
2011-09-26T13:22:55.365746,6420,0.252910,0.378249,-3.728512,0.006128,-0.088812,0.973173
2011-09-26T13:22:55.375746,6430,0.296290,0.339867,-3.716833,0.004616,-0.090978,0.970177
2011-09-26T13:22:55.385746,6440,0.321138,0.224550,-3.724033,0.005386,-0.090027,0.972553
2011-09-26T13:22:55.395746,6450,0.345531,0.107350,-3.731696,0.006212,-0.089001,0.975060
2011-09-26T13:22:55.405746,6460,0.369925,-0.009851,-3.739358,0.007038,-0.087974,0.977567
2011-09-26T13:22:55.415746,6470,0.394319,-0.127052,-3.747021,0.007865,-0.086948,0.980074
2011-09-26T13:22:55.425746,6480,0.418713,-0.244253,-3.754683,0.008691,-0.085921,0.982581
2011-09-26T13:22:55.435746,6490,0.443107,-0.361453,-3.762346,0.009517,-0.084894,0.985089
2011-09-26T13:22:55.445746,6500,0.467501,-0.478654,-3.770008,0.010343,-0.083868,0.987596
2011-09-26T13:22:55.455746,6510,0.491895,-0.595855,-3.777671,0.011169,-0.082841,0.990103
2011-09-26T13:22:55.465746,6520,0.516289,-0.713056,-3.785333,0.011995,-0.081815,0.992610
2011-09-26T13:22:55.475746,6530,0.540683,-0.830257,-3.792996,0.012821,-0.080788,0.995117
2011-09-26T13:22:55.485746,6540,0.490463,-0.799049,-3.807745,0.013552,-0.081047,0.996928
2011-09-26T13:22:55.495746,6550,0.438092,-0.763561,-3.822699,0.014281,-0.081342,0.998719
2011-09-26T13:22:55.505746,6560,0.385721,-0.728074,-3.837653,0.015010,-0.081638,1.000510
2011-09-26T13:22:55.515746,6570,0.333350,-0.692586,-3.852607,0.015739,-0.081934,1.002301
2011-09-26T13:22:55.525746,6580,0.280979,-0.657099,-3.867561,0.016468,-0.082229,1.004092
2011-09-26T13:22:55.535746,6590,0.228608,-0.621612,-3.882515,0.017197,-0.082525,1.005883
2011-09-26T13:22:55.545746,6600,0.176237,-0.586124,-3.897468,0.017926,-0.082821,1.007674
2011-09-26T13:22:55.555746,6610,0.123866,-0.550637,-3.912422,0.018654,-0.083117,1.009465
2011-09-26T13:22:55.565746,6620,0.071495,-0.515149,-3.927376,0.019383,-0.083412,1.011256
2011-09-26T13:22:55.575746,6630,0.019124,-0.479662,-3.942330,0.020112,-0.083708,1.013047
2011-09-26T13:22:55.585746,6640,-0.033247,-0.444175,-3.957284,0.020841,-0.084004,1.014838
2011-09-26T13:22:55.595746,6650,-0.056771,-0.477577,-3.981097,0.020583,-0.083839,1.014769
2011-09-26T13:22:55.605746,6660,-0.079487,-0.512906,-4.005158,0.020297,-0.083661,1.014647
2011-09-26T13:22:55.615746,6670,-0.102203,-0.548236,-4.029218,0.020012,-0.083483,1.014526
2011-09-26T13:22:55.625746,6680,-0.124920,-0.583566,-4.053279,0.019726,-0.083305,1.014404
2011-09-26T13:22:55.635746,6690,-0.147636,-0.618896,-4.077340,0.019440,-0.083127,1.014283
2011-09-26T13:22:55.645746,6700,-0.170352,-0.654226,-4.101401,0.019154,-0.082949,1.014161
2011-09-26T13:22:55.655746,6710,-0.193069,-0.689555,-4.125462,0.018869,-0.082771,1.014040
2011-09-26T13:22:55.665746,6720,-0.215785,-0.724885,-4.149523,0.018583,-0.082593,1.013918
2011-09-26T13:22:55.675746,6730,-0.238501,-0.760215,-4.173583,0.018297,-0.082415,1.013797
2011-09-26T13:22:55.685746,6740,-0.261218,-0.795545,-4.197644,0.018011,-0.082238,1.013675
2011-09-26T13:22:55.695746,6750,-0.281054,-0.804317,-4.213173,0.018314,-0.083269,1.014713
2011-09-26T13:22:55.705746,6760,-0.300820,-0.812441,-4.228494,0.018632,-0.084330,1.015780
2011-09-26T13:22:55.715746,6770,-0.320586,-0.820565,-4.243815,0.018949,-0.085391,1.016846
2011-09-26T13:22:55.725746,6780,-0.340353,-0.828689,-4.259136,0.019266,-0.086452,1.017913
2011-09-26T13:22:55.735746,6790,-0.360119,-0.836814,-4.274457,0.019583,-0.087513,1.018979
2011-09-26T13:22:55.745746,6800,-0.379885,-0.844938,-4.289778,0.019901,-0.088574,1.020046
2011-09-26T13:22:55.755746,6810,-0.399651,-0.853062,-4.305099,0.020218,-0.089635,1.021112
2011-09-26T13:22:55.765746,6820,-0.419418,-0.861186,-4.320420,0.020535,-0.090696,1.022178
2011-09-26T13:22:55.775746,6830,-0.439184,-0.869311,-4.335741,0.020852,-0.091757,1.023245
2011-09-26T13:22:55.785746,6840,-0.458950,-0.877435,-4.351062,0.021170,-0.092818,1.024311
2011-09-26T13:22:55.795746,6850,-0.435671,-0.827299,-4.368261,0.020835,-0.092685,1.023994
2011-09-26T13:22:55.805746,6860,-0.411174,-0.775514,-4.385514,0.020482,-0.092518,1.023637
2011-09-26T13:22:55.815746,6870,-0.386676,-0.723730,-4.402767,0.020129,-0.092351,1.023281
2011-09-26T13:22:55.825746,6880,-0.362179,-0.671946,-4.420019,0.019776,-0.092185,1.022924
2011-09-26T13:22:55.835746,6890,-0.337682,-0.620161,-4.437272,0.019422,-0.092018,1.022568
2011-09-26T13:22:55.845746,6900,-0.313185,-0.568377,-4.454524,0.019069,-0.091851,1.022211
2011-09-26T13:22:55.855746,6910,-0.288688,-0.516592,-4.471777,0.018716,-0.091684,1.021854
2011-09-26T13:22:55.865746,6920,-0.264191,-0.464808,-4.489030,0.018363,-0.091517,1.021498
2011-09-26T13:22:55.875746,6930,-0.239694,-0.413023,-4.506282,0.018010,-0.091350,1.021141
2011-09-26T13:22:55.885746,6940,-0.215197,-0.361239,-4.523535,0.017657,-0.091183,1.020785
2011-09-26T13:22:55.895746,6950,-0.217461,-0.311717,-4.524392,0.017254,-0.091738,1.019685
2011-09-26T13:22:55.905746,6960,-0.220468,-0.262259,-4.524795,0.016851,-0.092312,1.018565
2011-09-26T13:22:55.915746,6970,-0.223475,-0.212800,-4.525198,0.016447,-0.092886,1.017446
2011-09-26T13:22:55.925746,6980,-0.226482,-0.163341,-4.525600,0.016043,-0.093460,1.016326
2011-09-26T13:22:55.935746,6990,-0.229489,-0.113883,-4.526003,0.015639,-0.094035,1.015206
2011-09-26T13:22:55.945746,7000,-0.232496,-0.064424,-4.526406,0.015235,-0.094609,1.014086
2011-09-26T13:22:55.955746,7010,-0.235503,-0.014965,-4.526808,0.014831,-0.095183,1.012966
2011-09-26T13:22:55.965746,7020,-0.238510,0.034493,-4.527211,0.014428,-0.095758,1.011846
2011-09-26T13:22:55.975746,7030,-0.241517,0.083952,-4.527613,0.014024,-0.096332,1.010726
2011-09-26T13:22:55.985746,7040,-0.244524,0.133411,-4.528016,0.013620,-0.096906,1.009606
2011-09-26T13:22:55.995746,7050,-0.247531,0.182869,-4.528419,0.013216,-0.097480,1.008486
2011-09-26T13:22:56.005746,7060,-0.223249,0.203267,-4.529880,0.013125,-0.097543,1.007344
2011-09-26T13:22:56.015746,7070,-0.198067,0.222708,-4.531377,0.013045,-0.097589,1.006201
2011-09-26T13:22:56.025746,7080,-0.172885,0.242148,-4.532873,0.012964,-0.097635,1.005057
2011-09-26T13:22:56.035746,7090,-0.147703,0.261588,-4.534370,0.012884,-0.097681,1.003914
2011-09-26T13:22:56.045746,7100,-0.122521,0.281028,-4.535866,0.012803,-0.097727,1.002771
2011-09-26T13:22:56.055746,7110,-0.097339,0.300468,-4.537362,0.012722,-0.097772,1.001628
2011-09-26T13:22:56.065746,7120,-0.072158,0.319908,-4.538859,0.012642,-0.097818,1.000485
2011-09-26T13:22:56.075746,7130,-0.046976,0.339349,-4.540355,0.012561,-0.097864,0.999342
2011-09-26T13:22:56.085746,7140,-0.021794,0.358789,-4.541852,0.012481,-0.097910,0.998199
2011-09-26T13:22:56.095746,7150,0.003388,0.378229,-4.543348,0.012400,-0.097956,0.997056
2011-09-26T13:22:56.105746,7160,-0.019913,0.336728,-4.546732,0.012352,-0.099492,0.996776
2011-09-26T13:22:56.115746,7170,-0.044626,0.293452,-4.550172,0.012306,-0.101072,0.996521
2011-09-26T13:22:56.125746,7180,-0.069340,0.250175,-4.553611,0.012259,-0.102651,0.996266
2011-09-26T13:22:56.135746,7190,-0.094053,0.206898,-4.557050,0.012212,-0.104231,0.996011
2011-09-26T13:22:56.145746,7200,-0.118767,0.163621,-4.560489,0.012165,-0.105810,0.995756
2011-09-26T13:22:56.155746,7210,-0.143481,0.120345,-4.563928,0.012119,-0.107390,0.995502
2011-09-26T13:22:56.165746,7220,-0.168194,0.077068,-4.567368,0.012072,-0.108970,0.995247
2011-09-26T13:22:56.175746,7230,-0.192908,0.033791,-4.570807,0.012025,-0.110549,0.994992
2011-09-26T13:22:56.185746,7240,-0.217622,-0.009486,-4.574246,0.011978,-0.112129,0.994737
2011-09-26T13:22:56.195746,7250,-0.242335,-0.052763,-4.577685,0.011932,-0.113708,0.994482
2011-09-26T13:22:56.205746,7260,-0.219481,-0.062699,-4.573101,0.012014,-0.112633,0.994774
2011-09-26T13:22:56.215746,7270,-0.195267,-0.071681,-4.568287,0.012101,-0.111481,0.995081
2011-09-26T13:22:56.225746,7280,-0.171053,-0.080663,-4.563474,0.012188,-0.110329,0.995389
2011-09-26T13:22:56.235746,7290,-0.146838,-0.089645,-4.558660,0.012274,-0.109177,0.995696
2011-09-26T13:22:56.245746,7300,-0.122624,-0.098628,-4.553846,0.012361,-0.108026,0.996003
2011-09-26T13:22:56.255746,7310,-0.098410,-0.107610,-4.549032,0.012448,-0.106874,0.996311
2011-09-26T13:22:56.265746,7320,-0.074196,-0.116592,-4.544219,0.012534,-0.105722,0.996618
2011-09-26T13:22:56.275746,7330,-0.049981,-0.125574,-4.539405,0.012621,-0.104570,0.996926
2011-09-26T13:22:56.285746,7340,-0.025767,-0.134557,-4.534591,0.012708,-0.103419,0.997233
2011-09-26T13:22:56.295746,7350,-0.001553,-0.143539,-4.529778,0.012794,-0.102267,0.997540
2011-09-26T13:22:56.305746,7360,0.022662,-0.152521,-4.524964,0.012881,-0.101115,0.997848
2011-09-26T13:22:56.315746,7370,0.031122,-0.170839,-4.509515,0.013219,-0.101372,0.998447
2011-09-26T13:22:56.325746,7380,0.038991,-0.189507,-4.493666,0.013567,-0.101681,0.999057
2011-09-26T13:22:56.335746,7390,0.046860,-0.208175,-4.477817,0.013915,-0.101990,0.999667
2011-09-26T13:22:56.345746,7400,0.054729,-0.226843,-4.461968,0.014262,-0.102299,1.000277
2011-09-26T13:22:56.355746,7410,0.062598,-0.245512,-4.446120,0.014610,-0.102609,1.000887
2011-09-26T13:22:56.365746,7420,0.070467,-0.264180,-4.430271,0.014958,-0.102918,1.001497
2011-09-26T13:22:56.375746,7430,0.078336,-0.282848,-4.414422,0.015306,-0.103227,1.002107
2011-09-26T13:22:56.385746,7440,0.086205,-0.301516,-4.398573,0.015653,-0.103536,1.002717
2011-09-26T13:22:56.395746,7450,0.094074,-0.320185,-4.382725,0.016001,-0.103846,1.003327
2011-09-26T13:22:56.405746,7460,0.101943,-0.338853,-4.366876,0.016349,-0.104155,1.003937
2011-09-26T13:22:56.415746,7470,0.112346,-0.320632,-4.327000,0.015855,-0.104385,1.004184
2011-09-26T13:22:56.425746,7480,0.122839,-0.301121,-4.286283,0.015332,-0.104612,1.004417
2011-09-26T13:22:56.435746,7490,0.133331,-0.281610,-4.245567,0.014809,-0.104839,1.004650
2011-09-26T13:22:56.445746,7500,0.143824,-0.262098,-4.204850,0.014286,-0.105066,1.004884
2011-09-26T13:22:56.455746,7510,0.154316,-0.242587,-4.164133,0.013763,-0.105293,1.005117
2011-09-26T13:22:56.465746,7520,0.164808,-0.223075,-4.123417,0.013240,-0.105520,1.005351
2011-09-26T13:22:56.475746,7530,0.175301,-0.203564,-4.082700,0.012717,-0.105747,1.005584
2011-09-26T13:22:56.485746,7540,0.185793,-0.184052,-4.041983,0.012193,-0.105974,1.005818
2011-09-26T13:22:56.495746,7550,0.196286,-0.164541,-4.001266,0.011670,-0.106201,1.006051
2011-09-26T13:22:56.505746,7560,0.206778,-0.145029,-3.960550,0.011147,-0.106428,1.006285
2011-09-26T13:22:56.515746,7570,0.217270,-0.125518,-3.919833,0.010624,-0.106655,1.006518
2011-09-26T13:22:56.525746,7580,0.203896,-0.167421,-3.890060,0.010015,-0.105274,1.006579
2011-09-26T13:22:56.535746,7590,0.189809,-0.211160,-3.860615,0.009403,-0.103845,1.006634
2011-09-26T13:22:56.545746,7600,0.175721,-0.254899,-3.831170,0.008791,-0.102416,1.006690
2011-09-26T13:22:56.555746,7610,0.161634,-0.298638,-3.801724,0.008179,-0.100987,1.006745
2011-09-26T13:22:56.565746,7620,0.147546,-0.342377,-3.772279,0.007567,-0.099558,1.006801
2011-09-26T13:22:56.575746,7630,0.133459,-0.386116,-3.742834,0.006955,-0.098129,1.006856
2011-09-26T13:22:56.585746,7640,0.119371,-0.429855,-3.713388,0.006344,-0.096700,1.006911
2011-09-26T13:22:56.595746,7650,0.105283,-0.473594,-3.683943,0.005732,-0.095271,1.006967
2011-09-26T13:22:56.605746,7660,0.091196,-0.517333,-3.654498,0.005120,-0.093842,1.007022
2011-09-26T13:22:56.615746,7670,0.077108,-0.561072,-3.625052,0.004508,-0.092413,1.007078
2011-09-26T13:22:56.625746,7680,0.100622,-0.548454,-3.615224,0.005095,-0.090275,1.008218
2011-09-26T13:22:56.635746,7690,0.125356,-0.534008,-3.606031,0.005722,-0.088115,1.009393
2011-09-26T13:22:56.645746,7700,0.150089,-0.519562,-3.596839,0.006348,-0.085954,1.010569
2011-09-26T13:22:56.655746,7710,0.174823,-0.505116,-3.587646,0.006975,-0.083793,1.011744
2011-09-26T13:22:56.665746,7720,0.199557,-0.490670,-3.578454,0.007601,-0.081633,1.012919
2011-09-26T13:22:56.675746,7730,0.224290,-0.476223,-3.569261,0.008227,-0.079472,1.014095
2011-09-26T13:22:56.685746,7740,0.249024,-0.461777,-3.560069,0.008854,-0.077311,1.015270
2011-09-26T13:22:56.695746,7750,0.273757,-0.447331,-3.550876,0.009480,-0.075151,1.016445
2011-09-26T13:22:56.705746,7760,0.298491,-0.432885,-3.541684,0.010106,-0.072990,1.017621
2011-09-26T13:22:56.715746,7770,0.323225,-0.418439,-3.532491,0.010733,-0.070829,1.018796
2011-09-26T13:22:56.725746,7780,0.302303,-0.387985,-3.518514,0.011029,-0.069423,1.017711
2011-09-26T13:22:56.735746,7790,0.278707,-0.356595,-3.504256,0.011306,-0.068062,1.016493
2011-09-26T13:22:56.745746,7800,0.255112,-0.325204,-3.489998,0.011583,-0.066700,1.015276
2011-09-26T13:22:56.755746,7810,0.231516,-0.293814,-3.475740,0.011860,-0.065339,1.014059
2011-09-26T13:22:56.765746,7820,0.207920,-0.262423,-3.461482,0.012137,-0.063977,1.012841
2011-09-26T13:22:56.775746,7830,0.184325,-0.231033,-3.447225,0.012414,-0.062616,1.011624
2011-09-26T13:22:56.785746,7840,0.160729,-0.199642,-3.432967,0.012690,-0.061254,1.010406
2011-09-26T13:22:56.795746,7850,0.137134,-0.168252,-3.418709,0.012967,-0.059892,1.009189
2011-09-26T13:22:56.805746,7860,0.113538,-0.136861,-3.404451,0.013244,-0.058531,1.007971
2011-09-26T13:22:56.815746,7870,0.089942,-0.105470,-3.390193,0.013521,-0.057169,1.006754
2011-09-26T13:22:56.825746,7880,0.066347,-0.074080,-3.375936,0.013798,-0.055808,1.005537
2011-09-26T13:22:56.835746,7890,0.049600,-0.064002,-3.350713,0.014091,-0.056422,1.005764
2011-09-26T13:22:56.845746,7900,0.033103,-0.054704,-3.325089,0.014384,-0.057108,1.006043
2011-09-26T13:22:56.855746,7910,0.016607,-0.045407,-3.299466,0.014677,-0.057795,1.006323
2011-09-26T13:22:56.865746,7920,0.000111,-0.036109,-3.273842,0.014970,-0.058481,1.006603
2011-09-26T13:22:56.875746,7930,-0.016386,-0.026811,-3.248218,0.015263,-0.059167,1.006883
2011-09-26T13:22:56.885746,7940,-0.032882,-0.017514,-3.222594,0.015556,-0.059854,1.007163
2011-09-26T13:22:56.895746,7950,-0.049379,-0.008216,-3.196971,0.015849,-0.060540,1.007443
2011-09-26T13:22:56.905746,7960,-0.065875,0.001082,-3.171347,0.016142,-0.061227,1.007722
2011-09-26T13:22:56.915746,7970,-0.082371,0.010380,-3.145723,0.016435,-0.061913,1.008002
2011-09-26T13:22:56.925746,7980,-0.098868,0.019677,-3.120100,0.016728,-0.062599,1.008282
2011-09-26T13:22:56.935746,7990,-0.103372,0.003602,-3.069252,0.016485,-0.062496,1.008137
2011-09-26T13:22:56.945746,8000,-0.107463,-0.013349,-3.017534,0.016223,-0.062365,1.007978
2011-09-26T13:22:56.955746,8010,-0.111554,-0.030299,-2.965816,0.015961,-0.062234,1.007818
2011-09-26T13:22:56.965746,8020,-0.115645,-0.047250,-2.914099,0.015700,-0.062103,1.007659
2011-09-26T13:22:56.975746,8030,-0.119736,-0.064200,-2.862381,0.015438,-0.061972,1.007499
2011-09-26T13:22:56.985746,8040,-0.123827,-0.081150,-2.810664,0.015177,-0.061841,1.007340
2011-09-26T13:22:56.995746,8050,-0.127918,-0.098101,-2.758946,0.014915,-0.061710,1.007180
2011-09-26T13:22:57.005746,8060,-0.132009,-0.115051,-2.707228,0.014654,-0.061579,1.007021
2011-09-26T13:22:57.015746,8070,-0.136100,-0.132002,-2.655511,0.014392,-0.061449,1.006861
2011-09-26T13:22:57.025746,8080,-0.140191,-0.148952,-2.603793,0.014130,-0.061318,1.006702
2011-09-26T13:22:57.035746,8090,-0.090207,-0.169943,-2.556236,0.014255,-0.060390,1.007424
2011-09-26T13:22:57.045746,8100,-0.038209,-0.191084,-2.508835,0.014393,-0.059433,1.008180
2011-09-26T13:22:57.055746,8110,0.013788,-0.212226,-2.461433,0.014532,-0.058476,1.008935
2011-09-26T13:22:57.065746,8120,0.065786,-0.233367,-2.414031,0.014670,-0.057519,1.009691
2011-09-26T13:22:57.075746,8130,0.117784,-0.254508,-2.366629,0.014809,-0.056562,1.010446
2011-09-26T13:22:57.085746,8140,0.169782,-0.275649,-2.319227,0.014947,-0.055604,1.011202
2011-09-26T13:22:57.095746,8150,0.221780,-0.296791,-2.271825,0.015086,-0.054647,1.011957
2011-09-26T13:22:57.105746,8160,0.273777,-0.317932,-2.224423,0.015225,-0.053690,1.012712
2011-09-26T13:22:57.115746,8170,0.325775,-0.339073,-2.177021,0.015363,-0.052733,1.013468
2011-09-26T13:22:57.125746,8180,0.377773,-0.360215,-2.129619,0.015502,-0.051776,1.014223
2011-09-26T13:22:57.135746,8190,0.429771,-0.381356,-2.082217,0.015640,-0.050818,1.014979
2011-09-26T13:22:57.145746,8200,0.391307,-0.348257,-2.050080,0.014690,-0.049738,1.012717
2011-09-26T13:22:57.155746,8210,0.348887,-0.312786,-2.018611,0.013693,-0.048651,1.010323
2011-09-26T13:22:57.165746,8220,0.306468,-0.277315,-1.987142,0.012695,-0.047565,1.007929
2011-09-26T13:22:57.175746,8230,0.264048,-0.241844,-1.955672,0.011698,-0.046479,1.005534
2011-09-26T13:22:57.185746,8240,0.221628,-0.206372,-1.924203,0.010700,-0.045392,1.003140
2011-09-26T13:22:57.195746,8250,0.179209,-0.170901,-1.892733,0.009703,-0.044306,1.000746
2011-09-26T13:22:57.205746,8260,0.136789,-0.135430,-1.861264,0.008705,-0.043219,0.998352
2011-09-26T13:22:57.215746,8270,0.094370,-0.099959,-1.829794,0.007708,-0.042133,0.995958
2011-09-26T13:22:57.225746,8280,0.051950,-0.064488,-1.798325,0.006710,-0.041047,0.993564
2011-09-26T13:22:57.235746,8290,0.009531,-0.029017,-1.766855,0.005713,-0.039960,0.991170
2011-09-26T13:22:57.245746,8300,-0.019295,-0.087073,-1.734979,0.005976,-0.036217,0.991402
2011-09-26T13:22:57.255746,8310,-0.047496,-0.149426,-1.703085,0.006297,-0.032351,0.991754
2011-09-26T13:22:57.265746,8320,-0.075697,-0.211779,-1.671190,0.006619,-0.028485,0.992106
2011-09-26T13:22:57.275746,8330,-0.103899,-0.274132,-1.639296,0.006940,-0.024619,0.992459
2011-09-26T13:22:57.285746,8340,-0.132100,-0.336485,-1.607401,0.007261,-0.020754,0.992811
2011-09-26T13:22:57.295746,8350,-0.160301,-0.398838,-1.575507,0.007583,-0.016888,0.993164
2011-09-26T13:22:57.305746,8360,-0.188502,-0.461191,-1.543613,0.007904,-0.013022,0.993516
2011-09-26T13:22:57.315746,8370,-0.216703,-0.523543,-1.511718,0.008225,-0.009156,0.993868
2011-09-26T13:22:57.325746,8380,-0.244904,-0.585896,-1.479824,0.008547,-0.005291,0.994221
2011-09-26T13:22:57.335746,8390,-0.273105,-0.648249,-1.447929,0.008868,-0.001425,0.994573
2011-09-26T13:22:57.345746,8400,-0.290803,-0.661064,-1.422223,0.008499,-0.001463,0.996769
2011-09-26T13:22:57.355746,8410,-0.308088,-0.671938,-1.396760,0.008102,-0.001654,0.999037
2011-09-26T13:22:57.365746,8420,-0.325373,-0.682811,-1.371297,0.007705,-0.001845,1.001305
2011-09-26T13:22:57.375746,8430,-0.342659,-0.693684,-1.345835,0.007309,-0.002036,1.003573
2011-09-26T13:22:57.385746,8440,-0.359944,-0.704558,-1.320372,0.006912,-0.002227,1.005841
2011-09-26T13:22:57.395746,8450,-0.377230,-0.715431,-1.294909,0.006516,-0.002418,1.008109
2011-09-26T13:22:57.405746,8460,-0.394515,-0.726304,-1.269446,0.006119,-0.002609,1.010377
2011-09-26T13:22:57.415746,8470,-0.411801,-0.737178,-1.243983,0.005723,-0.002800,1.012645
2011-09-26T13:22:57.425746,8480,-0.429086,-0.748051,-1.218520,0.005326,-0.002991,1.014913
2011-09-26T13:22:57.435746,8490,-0.446372,-0.758924,-1.193057,0.004930,-0.003182,1.017181
2011-09-26T13:22:57.445746,8500,-0.463657,-0.769798,-1.167594,0.004533,-0.003373,1.019449
2011-09-26T13:22:57.455746,8510,-0.487979,-0.751640,-1.138675,0.004251,-0.001988,1.019526
2011-09-26T13:22:57.465746,8520,-0.512602,-0.732240,-1.109608,0.003973,-0.000535,1.019510
2011-09-26T13:22:57.475746,8530,-0.537225,-0.712840,-1.080542,0.003696,0.000918,1.019494
2011-09-26T13:22:57.485746,8540,-0.561848,-0.693441,-1.051475,0.003419,0.002371,1.019477
2011-09-26T13:22:57.495746,8550,-0.586471,-0.674041,-1.022409,0.003141,0.003824,1.019461
2011-09-26T13:22:57.505746,8560,-0.611094,-0.654641,-0.993343,0.002864,0.005276,1.019445
2011-09-26T13:22:57.515746,8570,-0.635717,-0.635242,-0.964276,0.002587,0.006729,1.019429
2011-09-26T13:22:57.525746,8580,-0.660340,-0.615842,-0.935210,0.002309,0.008182,1.019413
2011-09-26T13:22:57.535746,8590,-0.684963,-0.596442,-0.906143,0.002032,0.009635,1.019396
2011-09-26T13:22:57.545746,8600,-0.709586,-0.577043,-0.877077,0.001755,0.011088,1.019380
2011-09-26T13:22:57.555746,8610,-0.708084,-0.548399,-0.863371,0.000833,0.011272,1.020711
2011-09-26T13:22:57.565746,8620,-0.705495,-0.519371,-0.850304,-0.000117,0.011404,1.022098
2011-09-26T13:22:57.575746,8630,-0.702907,-0.490343,-0.837237,-0.001066,0.011535,1.023486
2011-09-26T13:22:57.585746,8640,-0.700318,-0.461315,-0.824169,-0.002015,0.011667,1.024873
2011-09-26T13:22:57.595746,8650,-0.697730,-0.432286,-0.811102,-0.002964,0.011799,1.026260
2011-09-26T13:22:57.605746,8660,-0.695141,-0.403258,-0.798035,-0.003913,0.011930,1.027647
2011-09-26T13:22:57.615746,8670,-0.692553,-0.374230,-0.784968,-0.004862,0.012062,1.029034
2011-09-26T13:22:57.625746,8680,-0.689964,-0.345202,-0.771901,-0.005811,0.012193,1.030421
2011-09-26T13:22:57.635746,8690,-0.687376,-0.316174,-0.758834,-0.006760,0.012325,1.031809
2011-09-26T13:22:57.645746,8700,-0.684787,-0.287146,-0.745767,-0.007709,0.012457,1.033196
2011-09-26T13:22:57.655746,8710,-0.728083,-0.300763,-0.736143,-0.007712,0.012009,1.030375
2011-09-26T13:22:57.665746,8720,-0.773246,-0.316117,-0.726660,-0.007677,0.011537,1.027384
2011-09-26T13:22:57.675746,8730,-0.818410,-0.331470,-0.717177,-0.007642,0.011065,1.024392
2011-09-26T13:22:57.685746,8740,-0.863573,-0.346824,-0.707694,-0.007607,0.010594,1.021400
2011-09-26T13:22:57.695746,8750,-0.908736,-0.362177,-0.698211,-0.007571,0.010122,1.018409
2011-09-26T13:22:57.705746,8760,-0.953900,-0.377530,-0.688728,-0.007536,0.009650,1.015417
2011-09-26T13:22:57.715746,8770,-0.999063,-0.392884,-0.679245,-0.007501,0.009178,1.012425
2011-09-26T13:22:57.725746,8780,-1.044226,-0.408237,-0.669762,-0.007466,0.008707,1.009434
2011-09-26T13:22:57.735746,8790,-1.089390,-0.423591,-0.660279,-0.007430,0.008235,1.006442
2011-09-26T13:22:57.745746,8800,-1.134553,-0.438944,-0.650796,-0.007395,0.007763,1.003450
2011-09-26T13:22:57.755746,8810,-1.179716,-0.454298,-0.641313,-0.007360,0.007292,1.000459
2011-09-26T13:22:57.765746,8820,-1.171954,-0.240241,-0.645468,-0.007588,0.008960,0.999853
2011-09-26T13:22:57.775746,8830,-1.161569,-0.014815,-0.650299,-0.007829,0.010734,0.999365
2011-09-26T13:22:57.785746,8840,-1.151185,0.210611,-0.655131,-0.008070,0.012507,0.998877
2011-09-26T13:22:57.795746,8850,-1.140800,0.436037,-0.659962,-0.008311,0.014281,0.998390
2011-09-26T13:22:57.805746,8860,-1.130415,0.661463,-0.664793,-0.008552,0.016055,0.997902
2011-09-26T13:22:57.815746,8870,-1.120030,0.886888,-0.669625,-0.008793,0.017829,0.997414
2011-09-26T13:22:57.825746,8880,-1.109645,1.112314,-0.674456,-0.009034,0.019603,0.996926
2011-09-26T13:22:57.835746,8890,-1.099260,1.337740,-0.679287,-0.009275,0.021377,0.996439
2011-09-26T13:22:57.845746,8900,-1.088875,1.563166,-0.684119,-0.009516,0.023151,0.995951
2011-09-26T13:22:57.855746,8910,-1.078490,1.788592,-0.688950,-0.009757,0.024925,0.995463
2011-09-26T13:22:57.865746,8920,-1.012959,1.740299,-0.691275,-0.011884,0.022043,0.991487
2011-09-26T13:22:57.875746,8930,-0.945171,1.680808,-0.693498,-0.014087,0.018970,0.987367
2011-09-26T13:22:57.885746,8940,-0.877384,1.621317,-0.695720,-0.016291,0.015897,0.983248
2011-09-26T13:22:57.895746,8950,-0.809596,1.561826,-0.697943,-0.018495,0.012825,0.979128
2011-09-26T13:22:57.905746,8960,-0.741809,1.502335,-0.700165,-0.020699,0.009752,0.975009
2011-09-26T13:22:57.915746,8970,-0.674021,1.442843,-0.702388,-0.022902,0.006680,0.970890
2011-09-26T13:22:57.925746,8980,-0.606234,1.383352,-0.704610,-0.025106,0.003607,0.966770
2011-09-26T13:22:57.935746,8990,-0.538446,1.323861,-0.706833,-0.027310,0.000534,0.962651
2011-09-26T13:22:57.945746,9000,-0.470659,1.264370,-0.709056,-0.029514,-0.002538,0.958532
2011-09-26T13:22:57.955746,9010,-0.402871,1.204879,-0.711278,-0.031717,-0.005611,0.954412
2011-09-26T13:22:57.965746,9020,-0.335084,1.145387,-0.713501,-0.033921,-0.008683,0.950293
2011-09-26T13:22:57.975746,9030,-0.323701,1.013350,-0.702159,-0.033873,-0.006494,0.953968
2011-09-26T13:22:57.985746,9040,-0.314505,0.878500,-0.690291,-0.033738,-0.004101,0.957946
2011-09-26T13:22:57.995746,9050,-0.305309,0.743650,-0.678423,-0.033603,-0.001708,0.961923
2011-09-26T13:22:58.005746,9060,-0.296113,0.608799,-0.666554,-0.033467,0.000685,0.965901
2011-09-26T13:22:58.015746,9070,-0.286917,0.473949,-0.654686,-0.033332,0.003079,0.969878
2011-09-26T13:22:58.025746,9080,-0.277721,0.339099,-0.642818,-0.033197,0.005472,0.973856
2011-09-26T13:22:58.035746,9090,-0.268525,0.204249,-0.630950,-0.033061,0.007865,0.977833
2011-09-26T13:22:58.045746,9100,-0.259329,0.069398,-0.619082,-0.032926,0.010258,0.981811
2011-09-26T13:22:58.055746,9110,-0.250133,-0.065452,-0.607214,-0.032791,0.012652,0.985788
2011-09-26T13:22:58.065746,9120,-0.240937,-0.200302,-0.595346,-0.032656,0.015045,0.989766
2011-09-26T13:22:58.075746,9130,-0.235686,-0.199465,-0.599038,-0.032910,0.015432,0.993441
2011-09-26T13:22:58.085746,9140,-0.230598,-0.193030,-0.603372,-0.033181,0.015736,0.997103
2011-09-26T13:22:58.095746,9150,-0.225510,-0.186596,-0.607706,-0.033452,0.016040,1.000766
2011-09-26T13:22:58.105746,9160,-0.220422,-0.180161,-0.612040,-0.033722,0.016344,1.004429
2011-09-26T13:22:58.115746,9170,-0.215334,-0.173726,-0.616374,-0.033993,0.016648,1.008091
2011-09-26T13:22:58.125746,9180,-0.210246,-0.167291,-0.620708,-0.034264,0.016952,1.011754
2011-09-26T13:22:58.135746,9190,-0.205158,-0.160856,-0.625042,-0.034535,0.017256,1.015417
2011-09-26T13:22:58.145746,9200,-0.200070,-0.154421,-0.629376,-0.034805,0.017560,1.019079
2011-09-26T13:22:58.155746,9210,-0.194982,-0.147986,-0.633709,-0.035076,0.017864,1.022742
2011-09-26T13:22:58.165746,9220,-0.189894,-0.141551,-0.638043,-0.035347,0.018168,1.026404
2011-09-26T13:22:58.175746,9230,-0.193219,-0.126391,-0.629595,-0.034255,0.016222,1.026402
2011-09-26T13:22:58.185746,9240,-0.196897,-0.110864,-0.620611,-0.033106,0.014181,1.026247
2011-09-26T13:22:58.195746,9250,-0.200575,-0.095338,-0.611626,-0.031957,0.012140,1.026091
2011-09-26T13:22:58.205746,9260,-0.204254,-0.079811,-0.602641,-0.030808,0.010100,1.025935
2011-09-26T13:22:58.215746,9270,-0.207932,-0.064284,-0.593656,-0.029659,0.008059,1.025779
2011-09-26T13:22:58.225746,9280,-0.211610,-0.048758,-0.584672,-0.028510,0.006019,1.025623
2011-09-26T13:22:58.235746,9290,-0.215288,-0.033231,-0.575687,-0.027361,0.003978,1.025468
2011-09-26T13:22:58.245746,9300,-0.218966,-0.017705,-0.566702,-0.026211,0.001937,1.025312
2011-09-26T13:22:58.255746,9310,-0.222645,-0.002178,-0.557717,-0.025062,-0.000103,1.025156
2011-09-26T13:22:58.265746,9320,-0.226323,0.013348,-0.548733,-0.023913,-0.002144,1.025000
2011-09-26T13:22:58.275746,9330,-0.230001,0.028875,-0.539748,-0.022764,-0.004185,1.024844
2011-09-26T13:22:58.285746,9340,-0.218500,0.029074,-0.527904,-0.023743,-0.002881,1.022353
2011-09-26T13:22:58.295746,9350,-0.206054,0.028320,-0.515883,-0.024854,-0.001369,1.019716
2011-09-26T13:22:58.305746,9360,-0.193608,0.027565,-0.503862,-0.025965,0.000142,1.017079
2011-09-26T13:22:58.315746,9370,-0.181163,0.026810,-0.491841,-0.027076,0.001654,1.014443
2011-09-26T13:22:58.325746,9380,-0.168717,0.026056,-0.479819,-0.028187,0.003166,1.011806
2011-09-26T13:22:58.335746,9390,-0.156271,0.025301,-0.467798,-0.029298,0.004678,1.009169
2011-09-26T13:22:58.345746,9400,-0.143825,0.024546,-0.455777,-0.030409,0.006189,1.006533
2011-09-26T13:22:58.355746,9410,-0.131379,0.023792,-0.443755,-0.031519,0.007701,1.003896
2011-09-26T13:22:58.365746,9420,-0.118934,0.023037,-0.431734,-0.032630,0.009213,1.001259
2011-09-26T13:22:58.375746,9430,-0.106488,0.022282,-0.419713,-0.033741,0.010725,0.998622
2011-09-26T13:22:58.385746,9440,-0.118128,-0.013139,-0.393430,-0.034128,0.011869,0.998995
2011-09-26T13:22:58.395746,9450,-0.130775,-0.050009,-0.366550,-0.034484,0.012998,0.999494
2011-09-26T13:22:58.405746,9460,-0.143422,-0.086878,-0.339671,-0.034840,0.014127,0.999993
2011-09-26T13:22:58.415746,9470,-0.156069,-0.123748,-0.312792,-0.035196,0.015257,1.000491
2011-09-26T13:22:58.425746,9480,-0.168716,-0.160618,-0.285913,-0.035552,0.016386,1.000990
2011-09-26T13:22:58.435746,9490,-0.181362,-0.197487,-0.259034,-0.035908,0.017515,1.001488
2011-09-26T13:22:58.445746,9500,-0.194009,-0.234357,-0.232154,-0.036264,0.018644,1.001987
2011-09-26T13:22:58.455746,9510,-0.206656,-0.271227,-0.205275,-0.036620,0.019773,1.002486
2011-09-26T13:22:58.465746,9520,-0.219303,-0.308097,-0.178396,-0.036977,0.020903,1.002984
2011-09-26T13:22:58.475746,9530,-0.231950,-0.344966,-0.151517,-0.037333,0.022032,1.003483
2011-09-26T13:22:58.485746,9540,-0.236972,-0.364959,-0.132959,-0.036881,0.022505,1.004229
2011-09-26T13:22:58.495746,9550,-0.241632,-0.384151,-0.114796,-0.036391,0.022948,1.004986
2011-09-26T13:22:58.505746,9560,-0.246292,-0.403343,-0.096633,-0.035901,0.023390,1.005743
2011-09-26T13:22:58.515746,9570,-0.250952,-0.422535,-0.078470,-0.035411,0.023832,1.006501
2011-09-26T13:22:58.525746,9580,-0.255613,-0.441726,-0.060307,-0.034921,0.024275,1.007258
2011-09-26T13:22:58.535746,9590,-0.260273,-0.460918,-0.042144,-0.034431,0.024717,1.008015
2011-09-26T13:22:58.545746,9600,-0.264933,-0.480110,-0.023982,-0.033941,0.025159,1.008773
2011-09-26T13:22:58.555746,9610,-0.269593,-0.499302,-0.005819,-0.033451,0.025602,1.009530
2011-09-26T13:22:58.565746,9620,-0.274253,-0.518494,0.012344,-0.032961,0.026044,1.010287
2011-09-26T13:22:58.575746,9630,-0.278913,-0.537685,0.030507,-0.032472,0.026486,1.011045
2011-09-26T13:22:58.585746,9640,-0.283573,-0.556877,0.048670,-0.031982,0.026928,1.011802
2011-09-26T13:22:58.595746,9650,-0.269960,-0.539708,0.068027,-0.032050,0.025969,1.011631
2011-09-26T13:22:58.605746,9660,-0.255502,-0.520857,0.087440,-0.032144,0.024945,1.011417
2011-09-26T13:22:58.615746,9670,-0.241044,-0.502005,0.106853,-0.032239,0.023921,1.011203
2011-09-26T13:22:58.625746,9680,-0.226586,-0.483154,0.126266,-0.032333,0.022897,1.010989
2011-09-26T13:22:58.635746,9690,-0.212128,-0.464303,0.145679,-0.032427,0.021873,1.010775
2011-09-26T13:22:58.645746,9700,-0.197669,-0.445451,0.165091,-0.032522,0.020848,1.010561
2011-09-26T13:22:58.655746,9710,-0.183211,-0.426600,0.184504,-0.032616,0.019824,1.010347
2011-09-26T13:22:58.665746,9720,-0.168753,-0.407749,0.203917,-0.032710,0.018800,1.010133
2011-09-26T13:22:58.675746,9730,-0.154295,-0.388897,0.223330,-0.032805,0.017776,1.009919
2011-09-26T13:22:58.685746,9740,-0.139837,-0.370046,0.242742,-0.032899,0.016752,1.009705
2011-09-26T13:22:58.695746,9750,-0.084387,-0.248450,0.227795,-0.031687,0.019189,1.007198
2011-09-26T13:22:58.705746,9760,-0.027064,-0.122158,0.211277,-0.030415,0.021784,1.004585
2011-09-26T13:22:58.715746,9770,0.030260,0.004134,0.194759,-0.029144,0.024380,1.001973
2011-09-26T13:22:58.725746,9780,0.087583,0.130425,0.178242,-0.027872,0.026975,0.999360
2011-09-26T13:22:58.735746,9790,0.144906,0.256717,0.161724,-0.026601,0.029570,0.996748
2011-09-26T13:22:58.745746,9800,0.202229,0.383008,0.145206,-0.025329,0.032166,0.994135
2011-09-26T13:22:58.755746,9810,0.259552,0.509300,0.128688,-0.024057,0.034761,0.991523
2011-09-26T13:22:58.765746,9820,0.316875,0.635591,0.112171,-0.022786,0.037356,0.988910
2011-09-26T13:22:58.775746,9830,0.374199,0.761883,0.095653,-0.021514,0.039952,0.986298
2011-09-26T13:22:58.785746,9840,0.431522,0.888175,0.079135,-0.020242,0.042547,0.983685
2011-09-26T13:22:58.795746,9850,0.540651,0.873414,0.072170,-0.019315,0.040914,0.983848
2011-09-26T13:22:58.805746,9860,0.652250,0.851928,0.065661,-0.018403,0.039080,0.984143
2011-09-26T13:22:58.815746,9870,0.763849,0.830442,0.059151,-0.017492,0.037246,0.984438
2011-09-26T13:22:58.825746,9880,0.875447,0.808956,0.052642,-0.016581,0.035411,0.984733
2011-09-26T13:22:58.835746,9890,0.987046,0.787471,0.046132,-0.015670,0.033577,0.985027
2011-09-26T13:22:58.845746,9900,1.098645,0.765985,0.039622,-0.014759,0.031743,0.985322
2011-09-26T13:22:58.855746,9910,1.210244,0.744499,0.033113,-0.013848,0.029909,0.985617
2011-09-26T13:22:58.865746,9920,1.321843,0.723013,0.026603,-0.012936,0.028074,0.985912
2011-09-26T13:22:58.875746,9930,1.433442,0.701527,0.020094,-0.012025,0.026240,0.986207
2011-09-26T13:22:58.885746,9940,1.545041,0.680042,0.013584,-0.011114,0.024406,0.986502
2011-09-26T13:22:58.895746,9950,1.656640,0.658556,0.007075,-0.010203,0.022571,0.986797
2011-09-26T13:22:58.905746,9960,1.646144,0.606324,-0.002977,-0.010969,0.024181,0.985708
2011-09-26T13:22:58.915746,9970,1.629650,0.552582,-0.013203,-0.011818,0.025960,0.984552
2011-09-26T13:22:58.925746,9980,1.613156,0.498840,-0.023428,-0.012666,0.027738,0.983395
2011-09-26T13:22:58.935746,9990,1.596663,0.445098,-0.033654,-0.013515,0.029517,0.982239
2011-09-26T13:22:58.945746,10000,1.580169,0.391356,-0.043879,-0.014363,0.031296,0.981082
2011-09-26T13:22:58.955746,10010,1.563675,0.337614,-0.054105,-0.015212,0.033075,0.979925
2011-09-26T13:22:58.965746,10020,1.547181,0.283872,-0.064331,-0.016061,0.034854,0.978769
2011-09-26T13:22:58.975746,10030,1.530687,0.230130,-0.074556,-0.016909,0.036632,0.977612
2011-09-26T13:22:58.985746,10040,1.514193,0.176388,-0.084782,-0.017758,0.038411,0.976456
2011-09-26T13:22:58.995746,10050,1.497700,0.122646,-0.095008,-0.018606,0.040190,0.975299
2011-09-26T13:22:59.005746,10060,1.388120,0.047538,-0.112879,-0.018442,0.040797,0.976502
2011-09-26T13:22:59.015746,10070,1.273958,-0.028623,-0.131126,-0.018227,0.041347,0.977822
2011-09-26T13:22:59.025746,10080,1.159796,-0.104784,-0.149374,-0.018012,0.041896,0.979141
2011-09-26T13:22:59.035746,10090,1.045633,-0.180944,-0.167622,-0.017797,0.042446,0.980461
2011-09-26T13:22:59.045746,10100,0.931471,-0.257105,-0.185869,-0.017582,0.042995,0.981780
2011-09-26T13:22:59.055746,10110,0.817309,-0.333266,-0.204117,-0.017367,0.043545,0.983100
2011-09-26T13:22:59.065746,10120,0.703147,-0.409426,-0.222365,-0.017153,0.044094,0.984419
2011-09-26T13:22:59.075746,10130,0.588984,-0.485587,-0.240612,-0.016938,0.044644,0.985738
2011-09-26T13:22:59.085746,10140,0.474822,-0.561747,-0.258860,-0.016723,0.045193,0.987058
2011-09-26T13:22:59.095746,10150,0.360660,-0.637908,-0.277108,-0.016508,0.045743,0.988377
2011-09-26T13:22:59.105746,10160,0.241314,-0.657603,-0.306463,-0.016245,0.045557,0.990390
2011-09-26T13:22:59.115746,10170,0.121721,-0.674605,-0.336349,-0.015980,0.045335,0.992435
2011-09-26T13:22:59.125746,10180,0.002128,-0.691607,-0.366234,-0.015714,0.045114,0.994480
2011-09-26T13:22:59.135746,10190,-0.117465,-0.708610,-0.396120,-0.015449,0.044893,0.996525
2011-09-26T13:22:59.145746,10200,-0.237059,-0.725612,-0.426005,-0.015184,0.044672,0.998571
2011-09-26T13:22:59.155746,10210,-0.356652,-0.742614,-0.455891,-0.014918,0.044451,1.000616
2011-09-26T13:22:59.165746,10220,-0.476245,-0.759616,-0.485776,-0.014653,0.044230,1.002661
2011-09-26T13:22:59.175746,10230,-0.595838,-0.776619,-0.515662,-0.014388,0.044009,1.004706
2011-09-26T13:22:59.185746,10240,-0.715431,-0.793621,-0.545547,-0.014122,0.043788,1.006752
2011-09-26T13:22:59.195746,10250,-0.835024,-0.810623,-0.575432,-0.013857,0.043567,1.008797
2011-09-26T13:22:59.205746,10260,-0.954617,-0.827626,-0.605318,-0.013592,0.043346,1.010842
2011-09-26T13:22:59.215746,10270,-1.005366,-0.765047,-0.628045,-0.013199,0.042145,1.011360
2011-09-26T13:22:59.225746,10280,-1.051938,-0.697640,-0.650337,-0.012799,0.040885,1.011786
2011-09-26T13:22:59.235746,10290,-1.098510,-0.630233,-0.672630,-0.012399,0.039625,1.012211
2011-09-26T13:22:59.245746,10300,-1.145082,-0.562825,-0.694922,-0.011998,0.038365,1.012637
2011-09-26T13:22:59.255746,10310,-1.191655,-0.495418,-0.717215,-0.011598,0.037105,1.013062
2011-09-26T13:22:59.265746,10320,-1.238227,-0.428011,-0.739507,-0.011198,0.035845,1.013487
2011-09-26T13:22:59.275746,10330,-1.284799,-0.360604,-0.761800,-0.010797,0.034585,1.013913
2011-09-26T13:22:59.285746,10340,-1.331371,-0.293197,-0.784092,-0.010397,0.033325,1.014338
2011-09-26T13:22:59.295746,10350,-1.377943,-0.225790,-0.806385,-0.009997,0.032065,1.014764
2011-09-26T13:22:59.305746,10360,-1.424515,-0.158383,-0.828677,-0.009597,0.030805,1.015189
2011-09-26T13:22:59.315746,10370,-1.406178,-0.149363,-0.823133,-0.010084,0.028210,1.014597
2011-09-26T13:22:59.325746,10380,-1.384439,-0.143405,-0.816129,-0.010618,0.025546,1.013952
2011-09-26T13:22:59.335746,10390,-1.362700,-0.137446,-0.809125,-0.011151,0.022882,1.013307
2011-09-26T13:22:59.345746,10400,-1.340961,-0.131487,-0.802122,-0.011685,0.020218,1.012662
2011-09-26T13:22:59.355746,10410,-1.319222,-0.125528,-0.795118,-0.012219,0.017553,1.012017
2011-09-26T13:22:59.365746,10420,-1.297483,-0.119569,-0.788114,-0.012752,0.014889,1.011372
2011-09-26T13:22:59.375746,10430,-1.275744,-0.113611,-0.781111,-0.013286,0.012225,1.010726
2011-09-26T13:22:59.385746,10440,-1.254005,-0.107652,-0.774107,-0.013820,0.009561,1.010081
2011-09-26T13:22:59.395746,10450,-1.232266,-0.101693,-0.767103,-0.014353,0.006896,1.009436
2011-09-26T13:22:59.405746,10460,-1.210527,-0.095734,-0.760100,-0.014887,0.004232,1.008791
2011-09-26T13:22:59.415746,10470,-1.188788,-0.089776,-0.753096,-0.015421,0.001568,1.008146
2011-09-26T13:22:59.425746,10480,-1.145343,-0.081849,-0.752722,-0.015005,0.000741,1.006868
2011-09-26T13:22:59.435746,10490,-1.100901,-0.073832,-0.752652,-0.014545,-0.000002,1.005561
2011-09-26T13:22:59.445746,10500,-1.056459,-0.065815,-0.752582,-0.014086,-0.000745,1.004254
2011-09-26T13:22:59.455746,10510,-1.012017,-0.057798,-0.752511,-0.013627,-0.001488,1.002948
2011-09-26T13:22:59.465746,10520,-0.967575,-0.049780,-0.752441,-0.013168,-0.002230,1.001641
2011-09-26T13:22:59.475746,10530,-0.923133,-0.041763,-0.752371,-0.012708,-0.002973,1.000334
2011-09-26T13:22:59.485746,10540,-0.878691,-0.033746,-0.752301,-0.012249,-0.003716,0.999027
2011-09-26T13:22:59.495746,10550,-0.834249,-0.025729,-0.752231,-0.011790,-0.004458,0.997721
2011-09-26T13:22:59.505746,10560,-0.789807,-0.017712,-0.752161,-0.011330,-0.005201,0.996414
2011-09-26T13:22:59.515746,10570,-0.745365,-0.009695,-0.752091,-0.010871,-0.005944,0.995107
2011-09-26T13:22:59.525746,10580,-0.710905,0.015814,-0.747496,-0.010650,-0.003881,0.995230
2011-09-26T13:22:59.535746,10590,-0.676929,0.042172,-0.742681,-0.010441,-0.001681,0.995422
2011-09-26T13:22:59.545746,10600,-0.642954,0.068530,-0.737866,-0.010232,0.000518,0.995614
2011-09-26T13:22:59.555746,10610,-0.608978,0.094888,-0.733052,-0.010023,0.002718,0.995806
2011-09-26T13:22:59.565746,10620,-0.575003,0.121246,-0.728237,-0.009814,0.004917,0.995999
2011-09-26T13:22:59.575746,10630,-0.541027,0.147604,-0.723422,-0.009605,0.007116,0.996191
2011-09-26T13:22:59.585746,10640,-0.507052,0.173962,-0.718607,-0.009396,0.009316,0.996383
2011-09-26T13:22:59.595746,10650,-0.473077,0.200320,-0.713792,-0.009187,0.011515,0.996575
2011-09-26T13:22:59.605746,10660,-0.439101,0.226678,-0.708977,-0.008978,0.013715,0.996767
2011-09-26T13:22:59.615746,10670,-0.405126,0.253036,-0.704162,-0.008769,0.015914,0.996960
2011-09-26T13:22:59.625746,10680,-0.369550,0.231486,-0.707762,-0.009406,0.015418,0.996009
2011-09-26T13:22:59.635746,10690,-0.333894,0.207557,-0.711780,-0.010086,0.014788,0.995001
2011-09-26T13:22:59.645746,10700,-0.298239,0.183628,-0.715797,-0.010765,0.014158,0.993993
2011-09-26T13:22:59.655746,10710,-0.262584,0.159698,-0.719815,-0.011445,0.013528,0.992986
2011-09-26T13:22:59.665746,10720,-0.226928,0.135769,-0.723832,-0.012124,0.012899,0.991978
2011-09-26T13:22:59.675746,10730,-0.191273,0.111840,-0.727850,-0.012803,0.012269,0.990971
2011-09-26T13:22:59.685746,10740,-0.155618,0.087910,-0.731867,-0.013483,0.011639,0.989963
2011-09-26T13:22:59.695746,10750,-0.119962,0.063981,-0.735885,-0.014162,0.011009,0.988955
2011-09-26T13:22:59.705746,10760,-0.084307,0.040052,-0.739902,-0.014842,0.010379,0.987948
2011-09-26T13:22:59.715746,10770,-0.048652,0.016122,-0.743920,-0.015521,0.009749,0.986940
2011-09-26T13:22:59.725746,10780,-0.012996,-0.007807,-0.747937,-0.016201,0.009119,0.985932
2011-09-26T13:22:59.735746,10790,-0.015130,-0.103115,-0.740011,-0.015933,0.009279,0.987808
2011-09-26T13:22:59.745746,10800,-0.020101,-0.203781,-0.731187,-0.015595,0.009498,0.989899
2011-09-26T13:22:59.755746,10810,-0.025072,-0.304447,-0.722364,-0.015256,0.009717,0.991991
2011-09-26T13:22:59.765746,10820,-0.030042,-0.405113,-0.713540,-0.014918,0.009936,0.994083
2011-09-26T13:22:59.775746,10830,-0.035013,-0.505779,-0.704717,-0.014580,0.010155,0.996175
2011-09-26T13:22:59.785746,10840,-0.039984,-0.606445,-0.695894,-0.014241,0.010374,0.998267
2011-09-26T13:22:59.795746,10850,-0.044955,-0.707111,-0.687070,-0.013903,0.010593,1.000358
2011-09-26T13:22:59.805746,10860,-0.049925,-0.807778,-0.678247,-0.013564,0.010812,1.002450
2011-09-26T13:22:59.815746,10870,-0.054896,-0.908444,-0.669423,-0.013226,0.011031,1.004542
2011-09-26T13:22:59.825746,10880,-0.059867,-1.009110,-0.660600,-0.012887,0.011250,1.006634
2011-09-26T13:22:59.835746,10890,-0.057411,-0.981397,-0.659799,-0.011919,0.010515,1.009636
2011-09-26T13:22:59.845746,10900,-0.054582,-0.947235,-0.659401,-0.010918,0.009732,1.012685
2011-09-26T13:22:59.855746,10910,-0.051754,-0.913074,-0.659002,-0.009918,0.008949,1.015733
2011-09-26T13:22:59.865746,10920,-0.048925,-0.878912,-0.658604,-0.008917,0.008166,1.018781
2011-09-26T13:22:59.875746,10930,-0.046096,-0.844751,-0.658206,-0.007917,0.007383,1.021830
2011-09-26T13:22:59.885746,10940,-0.043267,-0.810589,-0.657808,-0.006916,0.006600,1.024878
2011-09-26T13:22:59.895746,10950,-0.040439,-0.776428,-0.657410,-0.005916,0.005816,1.027926
2011-09-26T13:22:59.905746,10960,-0.037610,-0.742266,-0.657012,-0.004916,0.005033,1.030975
2011-09-26T13:22:59.915746,10970,-0.034781,-0.708105,-0.656613,-0.003915,0.004250,1.034023
2011-09-26T13:22:59.925746,10980,-0.031953,-0.673944,-0.656215,-0.002915,0.003467,1.037071
2011-09-26T13:22:59.935746,10990,-0.041388,-0.554522,-0.646016,-0.002976,0.004913,1.034394
2011-09-26T13:22:59.945746,11000,-0.051404,-0.431063,-0.635353,-0.003088,0.006465,1.031446
2011-09-26T13:22:59.955746,11010,-0.061420,-0.307603,-0.624689,-0.003200,0.008016,1.028497
2011-09-26T13:22:59.965746,11020,-0.071437,-0.184144,-0.614026,-0.003312,0.009568,1.025549
2011-09-26T13:22:59.975746,11030,-0.081453,-0.060685,-0.603363,-0.003424,0.011119,1.022601
2011-09-26T13:22:59.985746,11040,-0.091469,0.062775,-0.592700,-0.003535,0.012671,1.019652
2011-09-26T13:22:59.995746,11050,-0.101485,0.186234,-0.582036,-0.003647,0.014222,1.016704
2011-09-26T13:23:00.005746,11060,-0.111501,0.309693,-0.571373,-0.003759,0.015774,1.013755
2011-09-26T13:23:00.015746,11070,-0.121518,0.433153,-0.560710,-0.003871,0.017325,1.010807
2011-09-26T13:23:00.025746,11080,-0.131534,0.556612,-0.550046,-0.003983,0.018877,1.007858
2011-09-26T13:23:00.035746,11090,-0.141550,0.680071,-0.539383,-0.004095,0.020428,1.004910
2011-09-26T13:23:00.045746,11100,-0.135505,0.710565,-0.545118,-0.004332,0.019231,1.003044
2011-09-26T13:23:00.055746,11110,-0.128642,0.736328,-0.551688,-0.004575,0.017893,1.001234
2011-09-26T13:23:00.065746,11120,-0.121779,0.762092,-0.558258,-0.004819,0.016556,0.999423
2011-09-26T13:23:00.075746,11130,-0.114917,0.787855,-0.564828,-0.005063,0.015218,0.997613
2011-09-26T13:23:00.085746,11140,-0.108054,0.813619,-0.571398,-0.005306,0.013881,0.995802
2011-09-26T13:23:00.095746,11150,-0.101192,0.839382,-0.577967,-0.005550,0.012543,0.993991
2011-09-26T13:23:00.105746,11160,-0.094329,0.865146,-0.584537,-0.005793,0.011206,0.992181
2011-09-26T13:23:00.115746,11170,-0.087467,0.890909,-0.591107,-0.006037,0.009868,0.990370
2011-09-26T13:23:00.125746,11180,-0.080604,0.916672,-0.597677,-0.006281,0.008531,0.988560
2011-09-26T13:23:00.135746,11190,-0.073742,0.942436,-0.604246,-0.006524,0.007194,0.986749
2011-09-26T13:23:00.145746,11200,-0.086943,0.899772,-0.595473,-0.007320,0.006953,0.986399
2011-09-26T13:23:00.155746,11210,-0.101200,0.853513,-0.585892,-0.008145,0.006770,0.986126
2011-09-26T13:23:00.165746,11220,-0.115456,0.807253,-0.576312,-0.008970,0.006587,0.985852
2011-09-26T13:23:00.175746,11230,-0.129712,0.760993,-0.566732,-0.009795,0.006404,0.985579
2011-09-26T13:23:00.185746,11240,-0.143968,0.714734,-0.557152,-0.010619,0.006221,0.985305
2011-09-26T13:23:00.195746,11250,-0.158224,0.668474,-0.547572,-0.011444,0.006038,0.985032
2011-09-26T13:23:00.205746,11260,-0.172480,0.622214,-0.537991,-0.012269,0.005855,0.984759
2011-09-26T13:23:00.215746,11270,-0.186736,0.575955,-0.528411,-0.013094,0.005672,0.984485
2011-09-26T13:23:00.225746,11280,-0.200992,0.529695,-0.518831,-0.013919,0.005489,0.984212
2011-09-26T13:23:00.235746,11290,-0.215249,0.483435,-0.509251,-0.014744,0.005306,0.983939
2011-09-26T13:23:00.245746,11300,-0.231513,0.389941,-0.496946,-0.014443,0.006524,0.984392
2011-09-26T13:23:00.255746,11310,-0.247928,0.292901,-0.484436,-0.014058,0.007847,0.984901
2011-09-26T13:23:00.265746,11320,-0.264344,0.195860,-0.471927,-0.013673,0.009170,0.985409
2011-09-26T13:23:00.275746,11330,-0.280759,0.098820,-0.459417,-0.013288,0.010493,0.985918
2011-09-26T13:23:00.285746,11340,-0.297174,0.001780,-0.446907,-0.012903,0.011816,0.986426
2011-09-26T13:23:00.295746,11350,-0.313590,-0.095260,-0.434398,-0.012518,0.013139,0.986935
2011-09-26T13:23:00.305746,11360,-0.330005,-0.192300,-0.421888,-0.012133,0.014463,0.987443
2011-09-26T13:23:00.315746,11370,-0.346420,-0.289340,-0.409379,-0.011748,0.015786,0.987952
2011-09-26T13:23:00.325746,11380,-0.362835,-0.386381,-0.396869,-0.011363,0.017109,0.988460
2011-09-26T13:23:00.335746,11390,-0.379251,-0.483421,-0.384360,-0.010978,0.018432,0.988969
2011-09-26T13:23:00.345746,11400,-0.395666,-0.580461,-0.371850,-0.010593,0.019755,0.989477
2011-09-26T13:23:00.355746,11410,-0.418178,-0.601498,-0.362243,-0.010600,0.019632,0.991397
2011-09-26T13:23:00.365746,11420,-0.440995,-0.618736,-0.352781,-0.010628,0.019436,0.993388
2011-09-26T13:23:00.375746,11430,-0.463811,-0.635974,-0.343319,-0.010655,0.019240,0.995379
2011-09-26T13:23:00.385746,11440,-0.486628,-0.653212,-0.333857,-0.010682,0.019044,0.997370
2011-09-26T13:23:00.395746,11450,-0.509445,-0.670451,-0.324396,-0.010709,0.018848,0.999360
2011-09-26T13:23:00.405746,11460,-0.532262,-0.687689,-0.314934,-0.010736,0.018653,1.001351
2011-09-26T13:23:00.415746,11470,-0.555078,-0.704927,-0.305472,-0.010763,0.018457,1.003342
2011-09-26T13:23:00.425746,11480,-0.577895,-0.722165,-0.296010,-0.010790,0.018261,1.005333
2011-09-26T13:23:00.435746,11490,-0.600712,-0.739403,-0.286548,-0.010817,0.018065,1.007323
2011-09-26T13:23:00.445746,11500,-0.623529,-0.756641,-0.277086,-0.010844,0.017869,1.009314
2011-09-26T13:23:00.455746,11510,-0.616840,-0.740013,-0.271267,-0.010123,0.018923,1.010552
2011-09-26T13:23:00.465746,11520,-0.608618,-0.721624,-0.265637,-0.009363,0.020041,1.011752
2011-09-26T13:23:00.475746,11530,-0.600396,-0.703235,-0.260007,-0.008602,0.021160,1.012951
2011-09-26T13:23:00.485746,11540,-0.592173,-0.684846,-0.254377,-0.007842,0.022279,1.014150
2011-09-26T13:23:00.495746,11550,-0.583951,-0.666457,-0.248747,-0.007082,0.023397,1.015349
2011-09-26T13:23:00.505746,11560,-0.575729,-0.648068,-0.243117,-0.006322,0.024516,1.016548
2011-09-26T13:23:00.515746,11570,-0.567507,-0.629679,-0.237487,-0.005561,0.025634,1.017748
2011-09-26T13:23:00.525746,11580,-0.559284,-0.611290,-0.231857,-0.004801,0.026753,1.018947
2011-09-26T13:23:00.535746,11590,-0.551062,-0.592902,-0.226226,-0.004041,0.027872,1.020146
2011-09-26T13:23:00.545746,11600,-0.542840,-0.574513,-0.220596,-0.003281,0.028990,1.021345
2011-09-26T13:23:00.555746,11610,-0.514015,-0.500653,-0.208961,-0.003249,0.028178,1.021123
2011-09-26T13:23:00.565746,11620,-0.484098,-0.423855,-0.197007,-0.003256,0.027264,1.020826
2011-09-26T13:23:00.575746,11630,-0.454181,-0.347056,-0.185054,-0.003263,0.026349,1.020529
2011-09-26T13:23:00.585746,11640,-0.424264,-0.270258,-0.173100,-0.003269,0.025435,1.020231
2011-09-26T13:23:00.595746,11650,-0.394348,-0.193460,-0.161147,-0.003276,0.024520,1.019934
2011-09-26T13:23:00.605746,11660,-0.364431,-0.116661,-0.149193,-0.003283,0.023606,1.019637
2011-09-26T13:23:00.615746,11670,-0.334514,-0.039863,-0.137240,-0.003290,0.022691,1.019339
2011-09-26T13:23:00.625746,11680,-0.304597,0.036936,-0.125286,-0.003297,0.021777,1.019042
2011-09-26T13:23:00.635746,11690,-0.274681,0.113734,-0.113332,-0.003304,0.020862,1.018745
2011-09-26T13:23:00.645746,11700,-0.244764,0.190533,-0.101379,-0.003311,0.019948,1.018448
2011-09-26T13:23:00.655746,11710,-0.214847,0.267331,-0.089425,-0.003318,0.019033,1.018150
2011-09-26T13:23:00.665746,11720,-0.154371,0.310915,-0.073717,-0.003179,0.018609,1.015748
2011-09-26T13:23:00.675746,11730,-0.092147,0.352600,-0.057794,-0.003031,0.018213,1.013224
2011-09-26T13:23:00.685746,11740,-0.029924,0.394284,-0.041870,-0.002884,0.017817,1.010701
2011-09-26T13:23:00.695746,11750,0.032300,0.435969,-0.025947,-0.002737,0.017421,1.008178
2011-09-26T13:23:00.705746,11760,0.094524,0.477653,-0.010024,-0.002589,0.017025,1.005655
2011-09-26T13:23:00.715746,11770,0.156748,0.519338,0.005899,-0.002442,0.016629,1.003132
2011-09-26T13:23:00.725746,11780,0.218972,0.561023,0.021822,-0.002295,0.016233,1.000609
2011-09-26T13:23:00.735746,11790,0.281196,0.602707,0.037746,-0.002148,0.015836,0.998086
2011-09-26T13:23:00.745746,11800,0.343420,0.644392,0.053669,-0.002000,0.015440,0.995563
2011-09-26T13:23:00.755746,11810,0.405643,0.686076,0.069592,-0.001853,0.015044,0.993040
2011-09-26T13:23:00.765746,11820,0.437723,0.672416,0.078478,-0.001890,0.016765,0.990932
2011-09-26T13:23:00.775746,11830,0.468024,0.655491,0.086948,-0.001938,0.018611,0.988849
2011-09-26T13:23:00.785746,11840,0.498325,0.638566,0.095418,-0.001986,0.020456,0.986766
2011-09-26T13:23:00.795746,11850,0.528626,0.621640,0.103889,-0.002035,0.022302,0.984684
2011-09-26T13:23:00.805746,11860,0.558927,0.604715,0.112359,-0.002083,0.024148,0.982601
2011-09-26T13:23:00.815746,11870,0.589228,0.587790,0.120829,-0.002131,0.025994,0.980518
2011-09-26T13:23:00.825746,11880,0.619530,0.570864,0.129300,-0.002179,0.027839,0.978435
2011-09-26T13:23:00.835746,11890,0.649831,0.553939,0.137770,-0.002227,0.029685,0.976352
2011-09-26T13:23:00.845746,11900,0.680132,0.537014,0.146240,-0.002275,0.031531,0.974269
2011-09-26T13:23:00.855746,11910,0.710433,0.520089,0.154711,-0.002323,0.033376,0.972186
2011-09-26T13:23:00.865746,11920,0.740734,0.503163,0.163181,-0.002371,0.035222,0.970103
2011-09-26T13:23:00.875746,11930,0.708551,0.460906,0.170868,-0.003576,0.035557,0.971280
2011-09-26T13:23:00.885746,11940,0.672842,0.417219,0.178511,-0.004846,0.035806,0.972641
2011-09-26T13:23:00.895746,11950,0.637133,0.373533,0.186154,-0.006117,0.036056,0.974002
2011-09-26T13:23:00.905746,11960,0.601424,0.329846,0.193797,-0.007387,0.036305,0.975363
2011-09-26T13:23:00.915746,11970,0.565714,0.286159,0.201440,-0.008657,0.036555,0.976723
2011-09-26T13:23:00.925746,11980,0.530005,0.242472,0.209083,-0.009927,0.036805,0.978084
2011-09-26T13:23:00.935746,11990,0.494296,0.198785,0.216726,-0.011197,0.037054,0.979445
2011-09-26T13:23:00.945746,12000,0.458587,0.155099,0.224369,-0.012467,0.037304,0.980806
2011-09-26T13:23:00.955746,12010,0.422878,0.111412,0.232012,-0.013737,0.037553,0.982167
2011-09-26T13:23:00.965746,12020,0.387169,0.067725,0.239655,-0.015007,0.037803,0.983527
2011-09-26T13:23:00.975746,12030,0.360079,0.035107,0.240374,-0.014457,0.037763,0.984220
2011-09-26T13:23:00.985746,12040,0.333459,0.003092,0.240717,-0.013808,0.037708,0.984875
2011-09-26T13:23:00.995746,12050,0.306839,-0.028924,0.241060,-0.013159,0.037652,0.985531
2011-09-26T13:23:01.005746,12060,0.280218,-0.060939,0.241402,-0.012510,0.037597,0.986187
2011-09-26T13:23:01.015746,12070,0.253598,-0.092955,0.241745,-0.011861,0.037541,0.986843
2011-09-26T13:23:01.025746,12080,0.226978,-0.124970,0.242088,-0.011211,0.037486,0.987499
2011-09-26T13:23:01.035746,12090,0.200358,-0.156986,0.242430,-0.010562,0.037431,0.988155
2011-09-26T13:23:01.045746,12100,0.173737,-0.189001,0.242773,-0.009913,0.037375,0.988811
2011-09-26T13:23:01.055746,12110,0.147117,-0.221017,0.243115,-0.009264,0.037320,0.989467
2011-09-26T13:23:01.065746,12120,0.120497,-0.253032,0.243458,-0.008615,0.037264,0.990122
2011-09-26T13:23:01.075746,12130,0.091475,-0.241623,0.241438,-0.007910,0.037126,0.992391
2011-09-26T13:23:01.085746,12140,0.062323,-0.227856,0.239289,-0.007201,0.036983,0.994747
2011-09-26T13:23:01.095746,12150,0.033171,-0.214089,0.237141,-0.006493,0.036841,0.997103
2011-09-26T13:23:01.105746,12160,0.004019,-0.200322,0.234992,-0.005784,0.036698,0.999459
2011-09-26T13:23:01.115746,12170,-0.025133,-0.186555,0.232843,-0.005076,0.036555,1.001815
2011-09-26T13:23:01.125746,12180,-0.054285,-0.172787,0.230695,-0.004368,0.036413,1.004172
2011-09-26T13:23:01.135746,12190,-0.083437,-0.159020,0.228546,-0.003659,0.036270,1.006528
2011-09-26T13:23:01.145746,12200,-0.112589,-0.145253,0.226398,-0.002951,0.036127,1.008884
2011-09-26T13:23:01.155746,12210,-0.141741,-0.131486,0.224249,-0.002243,0.035984,1.011240
2011-09-26T13:23:01.165746,12220,-0.170893,-0.117719,0.222100,-0.001534,0.035842,1.013596
2011-09-26T13:23:01.175746,12230,-0.200045,-0.103952,0.219952,-0.000826,0.035699,1.015952
2011-09-26T13:23:01.185746,12240,-0.193599,-0.054508,0.227402,-0.000716,0.035851,1.014530
2011-09-26T13:23:01.195746,12250,-0.185183,-0.003092,0.235382,-0.000640,0.036019,1.012899
2011-09-26T13:23:01.205746,12260,-0.176768,0.048325,0.243363,-0.000563,0.036188,1.011268
2011-09-26T13:23:01.215746,12270,-0.168353,0.099742,0.251344,-0.000487,0.036356,1.009637
2011-09-26T13:23:01.225746,12280,-0.159938,0.151158,0.259324,-0.000410,0.036525,1.008005
2011-09-26T13:23:01.235746,12290,-0.151522,0.202575,0.267305,-0.000334,0.036693,1.006374
2011-09-26T13:23:01.245746,12300,-0.143107,0.253991,0.275286,-0.000257,0.036861,1.004743
2011-09-26T13:23:01.255746,12310,-0.134692,0.305408,0.283266,-0.000181,0.037030,1.003112
2011-09-26T13:23:01.265746,12320,-0.126276,0.356825,0.291247,-0.000104,0.037198,1.001481
2011-09-26T13:23:01.275746,12330,-0.117861,0.408241,0.299228,-0.000028,0.037366,0.999849
2011-09-26T13:23:01.285746,12340,-0.111050,0.425531,0.297727,0.000109,0.037767,0.998670
2011-09-26T13:23:01.295746,12350,-0.104379,0.439856,0.295401,0.000252,0.038188,0.997529
2011-09-26T13:23:01.305746,12360,-0.097707,0.454181,0.293076,0.000394,0.038609,0.996389
2011-09-26T13:23:01.315746,12370,-0.091035,0.468506,0.290751,0.000537,0.039029,0.995248
2011-09-26T13:23:01.325746,12380,-0.084364,0.482831,0.288426,0.000679,0.039450,0.994108
2011-09-26T13:23:01.335746,12390,-0.077692,0.497156,0.286101,0.000821,0.039871,0.992967
2011-09-26T13:23:01.345746,12400,-0.071021,0.511481,0.283776,0.000964,0.040292,0.991827
2011-09-26T13:23:01.355746,12410,-0.064349,0.525806,0.281451,0.001106,0.040713,0.990686
2011-09-26T13:23:01.365746,12420,-0.057677,0.540131,0.279126,0.001249,0.041134,0.989546
2011-09-26T13:23:01.375746,12430,-0.051006,0.554456,0.276801,0.001391,0.041555,0.988406
2011-09-26T13:23:01.385746,12440,-0.032095,0.511476,0.278369,0.000945,0.041199,0.987983
2011-09-26T13:23:01.395746,12450,-0.012513,0.465350,0.280152,0.000466,0.040800,0.987600
2011-09-26T13:23:01.405746,12460,0.007069,0.419225,0.281934,-0.000012,0.040402,0.987217
2011-09-26T13:23:01.415746,12470,0.026651,0.373099,0.283716,-0.000491,0.040003,0.986833
2011-09-26T13:23:01.425746,12480,0.046234,0.326974,0.285498,-0.000970,0.039605,0.986450
2011-09-26T13:23:01.435746,12490,0.065816,0.280848,0.287280,-0.001448,0.039206,0.986067
2011-09-26T13:23:01.445746,12500,0.085398,0.234723,0.289063,-0.001927,0.038807,0.985684
2011-09-26T13:23:01.455746,12510,0.104980,0.188597,0.290845,-0.002406,0.038409,0.985301
2011-09-26T13:23:01.465746,12520,0.124562,0.142472,0.292627,-0.002884,0.038010,0.984917
2011-09-26T13:23:01.475746,12530,0.144145,0.096346,0.294409,-0.003363,0.037612,0.984534
2011-09-26T13:23:01.485746,12540,0.163727,0.050221,0.296192,-0.003841,0.037213,0.984151
2011-09-26T13:23:01.495746,12550,0.172584,0.015472,0.305755,-0.003383,0.037786,0.985726
2011-09-26T13:23:01.505746,12560,0.180869,-0.018668,0.315735,-0.002874,0.038410,0.987406
2011-09-26T13:23:01.515746,12570,0.189154,-0.052809,0.325714,-0.002365,0.039034,0.989085
2011-09-26T13:23:01.525746,12580,0.197439,-0.086950,0.335694,-0.001856,0.039659,0.990765
2011-09-26T13:23:01.535746,12590,0.205723,-0.121090,0.345673,-0.001347,0.040283,0.992445
2011-09-26T13:23:01.545746,12600,0.214008,-0.155231,0.355652,-0.000839,0.040908,0.994125
2011-09-26T13:23:01.555746,12610,0.222293,-0.189372,0.365632,-0.000330,0.041532,0.995804
2011-09-26T13:23:01.565746,12620,0.230578,-0.223512,0.375611,0.000179,0.042156,0.997484
2011-09-26T13:23:01.575746,12630,0.238862,-0.257653,0.385590,0.000688,0.042781,0.999164
2011-09-26T13:23:01.585746,12640,0.247147,-0.291794,0.395570,0.001197,0.043405,1.000843
2011-09-26T13:23:01.595746,12650,0.211136,-0.280803,0.386526,0.001047,0.043222,1.000905
2011-09-26T13:23:01.605746,12660,0.172631,-0.267271,0.376412,0.000861,0.042993,1.000876
2011-09-26T13:23:01.615746,12670,0.134126,-0.253740,0.366298,0.000675,0.042765,1.000847
2011-09-26T13:23:01.625746,12680,0.095622,-0.240208,0.356183,0.000489,0.042536,1.000818
2011-09-26T13:23:01.635746,12690,0.057117,-0.226677,0.346069,0.000303,0.042308,1.000788
2011-09-26T13:23:01.645746,12700,0.018612,-0.213145,0.335954,0.000117,0.042079,1.000759
2011-09-26T13:23:01.655746,12710,-0.019893,-0.199614,0.325840,-0.000069,0.041851,1.000730
2011-09-26T13:23:01.665746,12720,-0.058398,-0.186082,0.315726,-0.000256,0.041622,1.000701
2011-09-26T13:23:01.675746,12730,-0.096902,-0.172551,0.305611,-0.000442,0.041393,1.000671
2011-09-26T13:23:01.685746,12740,-0.135407,-0.159019,0.295497,-0.000628,0.041165,1.000642
2011-09-26T13:23:01.695746,12750,-0.130860,-0.150057,0.295019,-0.000589,0.040857,1.000886
2011-09-26T13:23:01.705746,12760,-0.123709,-0.141371,0.295125,-0.000537,0.040545,1.001146
2011-09-26T13:23:01.715746,12770,-0.116559,-0.132685,0.295230,-0.000484,0.040233,1.001407
2011-09-26T13:23:01.725746,12780,-0.109409,-0.123999,0.295335,-0.000432,0.039921,1.001667
2011-09-26T13:23:01.735746,12790,-0.102259,-0.115313,0.295440,-0.000380,0.039608,1.001928
2011-09-26T13:23:01.745746,12800,-0.095109,-0.106627,0.295546,-0.000327,0.039296,1.002188
2011-09-26T13:23:01.755746,12810,-0.087959,-0.097941,0.295651,-0.000275,0.038984,1.002448
2011-09-26T13:23:01.765746,12820,-0.080808,-0.089255,0.295756,-0.000223,0.038672,1.002709
2011-09-26T13:23:01.775746,12830,-0.073658,-0.080568,0.295861,-0.000170,0.038360,1.002969
2011-09-26T13:23:01.785746,12840,-0.066508,-0.071882,0.295967,-0.000118,0.038047,1.003229
2011-09-26T13:23:01.795746,12850,-0.059358,-0.063196,0.296072,-0.000066,0.037735,1.003490
2011-09-26T13:23:01.805746,12860,-0.088802,-0.065989,0.297537,-0.000178,0.036459,1.004104
2011-09-26T13:23:01.815746,12870,-0.120658,-0.069538,0.299092,-0.000302,0.035120,1.004742
2011-09-26T13:23:01.825746,12880,-0.152514,-0.073088,0.300646,-0.000426,0.033780,1.005380
2011-09-26T13:23:01.835746,12890,-0.184370,-0.076637,0.302201,-0.000550,0.032441,1.006017
2011-09-26T13:23:01.845746,12900,-0.216225,-0.080186,0.303756,-0.000673,0.031101,1.006655
2011-09-26T13:23:01.855746,12910,-0.248081,-0.083735,0.305310,-0.000797,0.029762,1.007293
2011-09-26T13:23:01.865746,12920,-0.279937,-0.087285,0.306865,-0.000921,0.028422,1.007930
2011-09-26T13:23:01.875746,12930,-0.311792,-0.090834,0.308420,-0.001044,0.027083,1.008568
2011-09-26T13:23:01.885746,12940,-0.343648,-0.094383,0.309974,-0.001168,0.025743,1.009206
2011-09-26T13:23:01.895746,12950,-0.375504,-0.097932,0.311529,-0.001292,0.024404,1.009844
2011-09-26T13:23:01.905746,12960,-0.356139,-0.089687,0.308503,-0.001973,0.024849,1.008970
2011-09-26T13:23:01.915746,12970,-0.333912,-0.080783,0.305222,-0.002686,0.025395,1.008013
2011-09-26T13:23:01.925746,12980,-0.311684,-0.071879,0.301940,-0.003399,0.025941,1.007055
2011-09-26T13:23:01.935746,12990,-0.289457,-0.062974,0.298658,-0.004112,0.026486,1.006097
2011-09-26T13:23:01.945746,13000,-0.267229,-0.054070,0.295377,-0.004825,0.027032,1.005140
2011-09-26T13:23:01.955746,13010,-0.245002,-0.045166,0.292095,-0.005538,0.027578,1.004182
2011-09-26T13:23:01.965746,13020,-0.222774,-0.036261,0.288814,-0.006251,0.028124,1.003224
2011-09-26T13:23:01.975746,13030,-0.200547,-0.027357,0.285532,-0.006964,0.028669,1.002266
2011-09-26T13:23:01.985746,13040,-0.178319,-0.018453,0.282250,-0.007677,0.029215,1.001309
2011-09-26T13:23:01.995746,13050,-0.156092,-0.009549,0.278969,-0.008390,0.029761,1.000351
2011-09-26T13:23:02.005746,13060,-0.157849,-0.008686,0.282973,-0.007701,0.029448,1.000332
2011-09-26T13:23:02.015746,13070,-0.161138,-0.008336,0.287443,-0.006922,0.029080,1.000373
2011-09-26T13:23:02.025746,13080,-0.164426,-0.007987,0.291912,-0.006143,0.028713,1.000413
2011-09-26T13:23:02.035746,13090,-0.167715,-0.007638,0.296382,-0.005364,0.028345,1.000454
2011-09-26T13:23:02.045746,13100,-0.171004,-0.007288,0.300851,-0.004586,0.027978,1.000495
2011-09-26T13:23:02.055746,13110,-0.174292,-0.006939,0.305321,-0.003807,0.027610,1.000536
2011-09-26T13:23:02.065746,13120,-0.177581,-0.006589,0.309790,-0.003028,0.027243,1.000577
2011-09-26T13:23:02.075746,13130,-0.180869,-0.006240,0.314260,-0.002249,0.026875,1.000617
2011-09-26T13:23:02.085746,13140,-0.184158,-0.005891,0.318730,-0.001471,0.026508,1.000658
2011-09-26T13:23:02.095746,13150,-0.187446,-0.005541,0.323199,-0.000692,0.026140,1.000699
2011-09-26T13:23:02.105746,13160,-0.190735,-0.005192,0.327669,0.000087,0.025772,1.000740
2011-09-26T13:23:02.115746,13170,-0.134031,-0.003552,0.324536,-0.000751,0.026505,1.001163
2011-09-26T13:23:02.125746,13180,-0.073592,-0.001832,0.320930,-0.001689,0.027307,1.001609
2011-09-26T13:23:02.135746,13190,-0.013153,-0.000111,0.317324,-0.002627,0.028109,1.002056
2011-09-26T13:23:02.145746,13200,0.047286,0.001609,0.313717,-0.003564,0.028910,1.002502
2011-09-26T13:23:02.155746,13210,0.107725,0.003329,0.310111,-0.004502,0.029712,1.002949
2011-09-26T13:23:02.165746,13220,0.168164,0.005050,0.306505,-0.005440,0.030513,1.003395
2011-09-26T13:23:02.175746,13230,0.228603,0.006770,0.302899,-0.006378,0.031315,1.003842
2011-09-26T13:23:02.185746,13240,0.289042,0.008490,0.299292,-0.007316,0.032116,1.004289
2011-09-26T13:23:02.195746,13250,0.349482,0.010211,0.295686,-0.008254,0.032918,1.004735
2011-09-26T13:23:02.205746,13260,0.409921,0.011931,0.292080,-0.009192,0.033719,1.005182
2011-09-26T13:23:02.215746,13270,0.402442,0.004849,0.295213,-0.008952,0.034601,1.004267
2011-09-26T13:23:02.225746,13280,0.389274,-0.002970,0.298911,-0.008613,0.035490,1.003239
2011-09-26T13:23:02.235746,13290,0.376106,-0.010790,0.302609,-0.008274,0.036378,1.002210
2011-09-26T13:23:02.245746,13300,0.362938,-0.018609,0.306307,-0.007935,0.037266,1.001182
2011-09-26T13:23:02.255746,13310,0.349770,-0.026428,0.310005,-0.007596,0.038155,1.000153
2011-09-26T13:23:02.265746,13320,0.336602,-0.034248,0.313702,-0.007257,0.039043,0.999125
2011-09-26T13:23:02.275746,13330,0.323434,-0.042067,0.317400,-0.006918,0.039932,0.998097
2011-09-26T13:23:02.285746,13340,0.310266,-0.049886,0.321098,-0.006579,0.040820,0.997068
2011-09-26T13:23:02.295746,13350,0.297098,-0.057706,0.324796,-0.006240,0.041709,0.996040
2011-09-26T13:23:02.305746,13360,0.283930,-0.065525,0.328494,-0.005900,0.042597,0.995011
2011-09-26T13:23:02.315746,13370,0.263156,-0.056640,0.326470,-0.005925,0.042560,0.994901
2011-09-26T13:23:02.325746,13380,0.241872,-0.046635,0.324063,-0.005974,0.042461,0.994852
2011-09-26T13:23:02.335746,13390,0.220588,-0.036630,0.321656,-0.006024,0.042362,0.994804
2011-09-26T13:23:02.345746,13400,0.199304,-0.026625,0.319248,-0.006073,0.042262,0.994755
2011-09-26T13:23:02.355746,13410,0.178020,-0.016619,0.316841,-0.006122,0.042163,0.994706
