pc_time,ts_ms,gyroX,gyroY,gyroZ,accelX,accelY,accelZ
2011-09-26T13:08:24.969505,0,0.954699,-2.110294,0.189743,0.000607,0.086183,1.011046
2011-09-26T13:08:24.979505,10,0.882146,-1.983981,0.187538,0.001305,0.087531,1.014315
2011-09-26T13:08:24.989505,20,0.809592,-1.857667,0.185333,0.002003,0.088880,1.017585
2011-09-26T13:08:24.999505,30,0.737038,-1.731354,0.183129,0.002702,0.090229,1.020854
2011-09-26T13:08:25.009505,40,0.664484,-1.605040,0.180924,0.003400,0.091577,1.024124
2011-09-26T13:08:25.019505,50,0.591930,-1.478727,0.178719,0.004098,0.092926,1.027393
2011-09-26T13:08:25.029505,60,0.519377,-1.352413,0.176514,0.004796,0.094275,1.030663
2011-09-26T13:08:25.039505,70,0.446823,-1.226100,0.174309,0.005495,0.095623,1.033932
2011-09-26T13:08:25.049505,80,0.374269,-1.099786,0.172104,0.006193,0.096972,1.037202
2011-09-26T13:08:25.059505,90,0.301715,-0.973473,0.169900,0.006891,0.098321,1.040471
2011-09-26T13:08:25.069505,100,0.229162,-0.847160,0.167695,0.007589,0.099669,1.043741
2011-09-26T13:08:25.079505,110,0.156558,-0.720807,0.165479,0.008288,0.101017,1.047008
2011-09-26T13:08:25.089505,120,-0.012529,-0.518787,0.142194,0.009279,0.099406,1.046437
2011-09-26T13:08:25.099505,130,-0.181616,-0.316766,0.118910,0.010269,0.097795,1.045865
2011-09-26T13:08:25.109505,140,-0.350704,-0.114746,0.095625,0.011260,0.096185,1.045294
2011-09-26T13:08:25.119505,150,-0.519791,0.087275,0.072340,0.012251,0.094574,1.044722
2011-09-26T13:08:25.129505,160,-0.688879,0.289295,0.049055,0.013241,0.092964,1.044151
2011-09-26T13:08:25.139505,170,-0.857966,0.491316,0.025770,0.014232,0.091353,1.043579
2011-09-26T13:08:25.149505,180,-1.027053,0.693336,0.002485,0.015223,0.089743,1.043007
2011-09-26T13:08:25.159505,190,-1.196141,0.895357,-0.020800,0.016213,0.088132,1.042436
2011-09-26T13:08:25.169505,200,-1.365228,1.097377,-0.044084,0.017204,0.086522,1.041864
2011-09-26T13:08:25.179505,210,-1.534315,1.299398,-0.067369,0.018195,0.084911,1.041293
2011-09-26T13:08:25.189505,220,-1.406457,1.375400,-0.060368,0.015029,0.081135,1.032274
2011-09-26T13:08:25.199505,230,-1.277317,1.450858,-0.053236,0.011846,0.077350,1.023218
2011-09-26T13:08:25.209505,240,-1.148177,1.526316,-0.046104,0.008663,0.073564,1.014163
2011-09-26T13:08:25.219505,250,-1.019037,1.601774,-0.038972,0.005480,0.069779,1.005108
2011-09-26T13:08:25.229505,260,-0.889897,1.677232,-0.031841,0.002297,0.065994,0.996052
2011-09-26T13:08:25.239505,270,-0.760756,1.752690,-0.024709,-0.000886,0.062208,0.986997
2011-09-26T13:08:25.249505,280,-0.631616,1.828148,-0.017577,-0.004070,0.058423,0.977941
2011-09-26T13:08:25.259505,290,-0.502476,1.903606,-0.010445,-0.007253,0.054638,0.968886
2011-09-26T13:08:25.269505,300,-0.373336,1.979065,-0.003313,-0.010436,0.050852,0.959831
2011-09-26T13:08:25.279505,310,-0.244196,2.054523,0.003819,-0.013619,0.047067,0.950775
2011-09-26T13:08:25.289505,320,-0.248199,1.984904,0.015629,-0.013998,0.048574,0.952127
2011-09-26T13:08:25.299505,330,-0.252907,1.914516,0.027465,-0.014361,0.050109,0.953535
2011-09-26T13:08:25.309505,340,-0.257615,1.844127,0.039301,-0.014725,0.051644,0.954942
2011-09-26T13:08:25.319505,350,-0.262323,1.773739,0.051136,-0.015089,0.053179,0.956349
2011-09-26T13:08:25.329505,360,-0.267031,1.703351,0.062972,-0.015452,0.054714,0.957756
2011-09-26T13:08:25.339505,370,-0.271740,1.632963,0.074807,-0.015816,0.056249,0.959164
2011-09-26T13:08:25.349505,380,-0.276448,1.562575,0.086643,-0.016180,0.057784,0.960571
2011-09-26T13:08:25.359505,390,-0.281156,1.492187,0.098479,-0.016543,0.059319,0.961978
2011-09-26T13:08:25.369505,400,-0.285864,1.421799,0.110314,-0.016907,0.060854,0.963386
2011-09-26T13:08:25.379505,410,-0.290572,1.351411,0.122150,-0.017271,0.062389,0.964793
2011-09-26T13:08:25.389505,420,-0.295198,1.281003,0.133960,-0.017635,0.063921,0.966200
2011-09-26T13:08:25.399505,430,-0.248685,1.198148,0.129906,-0.018497,0.063809,0.967298
2011-09-26T13:08:25.409505,440,-0.202172,1.115293,0.125853,-0.019359,0.063696,0.968396
2011-09-26T13:08:25.419505,450,-0.155659,1.032438,0.121799,-0.020221,0.063584,0.969494
2011-09-26T13:08:25.429505,460,-0.109146,0.949583,0.117746,-0.021083,0.063471,0.970591
2011-09-26T13:08:25.439505,470,-0.062633,0.866728,0.113692,-0.021945,0.063359,0.971689
2011-09-26T13:08:25.449505,480,-0.016120,0.783873,0.109639,-0.022807,0.063247,0.972787
2011-09-26T13:08:25.459505,490,0.030393,0.701018,0.105586,-0.023669,0.063134,0.973885
2011-09-26T13:08:25.469505,500,0.076906,0.618163,0.101532,-0.024531,0.063022,0.974983
2011-09-26T13:08:25.479505,510,0.123419,0.535308,0.097479,-0.025393,0.062909,0.976081
2011-09-26T13:08:25.489505,520,0.169932,0.452453,0.093425,-0.026255,0.062797,0.977179
2011-09-26T13:08:25.499505,530,0.185465,0.374769,0.097969,-0.026494,0.063759,0.978095
2011-09-26T13:08:25.509505,540,0.200985,0.297088,0.102516,-0.026732,0.064722,0.979010
2011-09-26T13:08:25.519505,550,0.216506,0.219407,0.107063,-0.026971,0.065685,0.979926
2011-09-26T13:08:25.529505,560,0.232027,0.141725,0.111610,-0.027209,0.066647,0.980841
2011-09-26T13:08:25.539505,570,0.247548,0.064044,0.116157,-0.027448,0.067610,0.981757
2011-09-26T13:08:25.549505,580,0.263069,-0.013637,0.120704,-0.027686,0.068573,0.982672
2011-09-26T13:08:25.559505,590,0.278589,-0.091318,0.125251,-0.027925,0.069536,0.983587
2011-09-26T13:08:25.569505,600,0.294110,-0.169000,0.129798,-0.028164,0.070499,0.984503
2011-09-26T13:08:25.579505,610,0.309631,-0.246681,0.134345,-0.028402,0.071461,0.985418
2011-09-26T13:08:25.589505,620,0.325152,-0.324362,0.138892,-0.028641,0.072424,0.986334
2011-09-26T13:08:25.599505,630,0.340672,-0.402044,0.143439,-0.028879,0.073387,0.987249
2011-09-26T13:08:25.609505,640,0.306118,-0.420982,0.142566,-0.028758,0.074295,0.988800
2011-09-26T13:08:25.619505,650,0.271175,-0.439465,0.141651,-0.028633,0.075203,0.990357
2011-09-26T13:08:25.629505,660,0.236232,-0.457948,0.140735,-0.028509,0.076110,0.991913
2011-09-26T13:08:25.639505,670,0.201289,-0.476431,0.139820,-0.028385,0.077018,0.993469
2011-09-26T13:08:25.649505,680,0.166346,-0.494914,0.138904,-0.028261,0.077925,0.995025
2011-09-26T13:08:25.659505,690,0.131403,-0.513397,0.137989,-0.028136,0.078833,0.996581
2011-09-26T13:08:25.669505,700,0.096460,-0.531880,0.137073,-0.028012,0.079741,0.998138
2011-09-26T13:08:25.679505,710,0.061517,-0.550363,0.136158,-0.027888,0.080648,0.999694
2011-09-26T13:08:25.689505,720,0.026574,-0.568846,0.135243,-0.027764,0.081556,1.001250
2011-09-26T13:08:25.699505,730,-0.008369,-0.587328,0.134327,-0.027639,0.082464,1.002806
2011-09-26T13:08:25.709505,740,-0.038608,-0.570029,0.132473,-0.028200,0.081322,1.003534
2011-09-26T13:08:25.719505,750,-0.068773,-0.552170,0.130605,-0.028771,0.080149,1.004250
2011-09-26T13:08:25.729505,760,-0.098938,-0.534311,0.128736,-0.029342,0.078975,1.004965
2011-09-26T13:08:25.739505,770,-0.129103,-0.516452,0.126867,-0.029914,0.077802,1.005680
2011-09-26T13:08:25.749505,780,-0.159268,-0.498593,0.124999,-0.030485,0.076629,1.006395
2011-09-26T13:08:25.759505,790,-0.189433,-0.480734,0.123130,-0.031056,0.075455,1.007110
2011-09-26T13:08:25.769505,800,-0.219598,-0.462875,0.121262,-0.031627,0.074282,1.007825
2011-09-26T13:08:25.779505,810,-0.249763,-0.445015,0.119393,-0.032199,0.073108,1.008540
2011-09-26T13:08:25.789505,820,-0.279928,-0.427156,0.117524,-0.032770,0.071935,1.009256
2011-09-26T13:08:25.799505,830,-0.310093,-0.409297,0.115656,-0.033341,0.070761,1.009971
2011-09-26T13:08:25.809505,840,-0.331391,-0.392035,0.117666,-0.032486,0.070340,1.010303
2011-09-26T13:08:25.819505,850,-0.352670,-0.374774,0.119685,-0.031627,0.069920,1.010635
2011-09-26T13:08:25.829505,860,-0.373948,-0.357512,0.121703,-0.030768,0.069500,1.010966
2011-09-26T13:08:25.839505,870,-0.395226,-0.340251,0.123722,-0.029909,0.069080,1.011298
2011-09-26T13:08:25.849505,880,-0.416504,-0.322990,0.125741,-0.029050,0.068660,1.011630
2011-09-26T13:08:25.859505,890,-0.437782,-0.305729,0.127760,-0.028191,0.068240,1.011961
2011-09-26T13:08:25.869505,900,-0.459060,-0.288468,0.129779,-0.027332,0.067821,1.012293
2011-09-26T13:08:25.879505,910,-0.480339,-0.271207,0.131797,-0.026473,0.067401,1.012624
2011-09-26T13:08:25.889505,920,-0.501617,-0.253946,0.133816,-0.025614,0.066981,1.012956
2011-09-26T13:08:25.899505,930,-0.522895,-0.236684,0.135835,-0.024755,0.066561,1.013288
2011-09-26T13:08:25.909505,940,-0.544173,-0.219423,0.137854,-0.023896,0.066141,1.013619
2011-09-26T13:08:25.919505,950,-0.526922,-0.157282,0.131813,-0.025576,0.066353,1.013784
2011-09-26T13:08:25.929505,960,-0.509582,-0.095038,0.125753,-0.027262,0.066566,1.013949
2011-09-26T13:08:25.939505,970,-0.492241,-0.032793,0.119693,-0.028948,0.066780,1.014114
2011-09-26T13:08:25.949505,980,-0.474901,0.029451,0.113633,-0.030634,0.066993,1.014278
2011-09-26T13:08:25.959505,990,-0.457561,0.091695,0.107573,-0.032319,0.067206,1.014443
2011-09-26T13:08:25.969505,1000,-0.440221,0.153940,0.101513,-0.034005,0.067420,1.014608
2011-09-26T13:08:25.979505,1010,-0.422881,0.216184,0.095453,-0.035691,0.067633,1.014772
2011-09-26T13:08:25.989505,1020,-0.405541,0.278429,0.089394,-0.037377,0.067846,1.014937
2011-09-26T13:08:25.999505,1030,-0.388201,0.340673,0.083334,-0.039062,0.068060,1.015102
2011-09-26T13:08:26.009505,1040,-0.370861,0.402917,0.077274,-0.040748,0.068273,1.015267
2011-09-26T13:08:26.019505,1050,-0.333698,0.390811,0.070890,-0.040462,0.068746,1.012727
2011-09-26T13:08:26.029505,1060,-0.296466,0.378444,0.064505,-0.040169,0.069219,1.010178
2011-09-26T13:08:26.039505,1070,-0.259233,0.366077,0.058120,-0.039876,0.069693,1.007628
2011-09-26T13:08:26.049505,1080,-0.222001,0.353710,0.051735,-0.039583,0.070167,1.005079
2011-09-26T13:08:26.059505,1090,-0.184768,0.341343,0.045350,-0.039290,0.070640,1.002530
2011-09-26T13:08:26.069505,1100,-0.147536,0.328976,0.038965,-0.038997,0.071114,0.999980
2011-09-26T13:08:26.079505,1110,-0.110303,0.316609,0.032580,-0.038703,0.071588,0.997431
2011-09-26T13:08:26.089505,1120,-0.073071,0.304242,0.026195,-0.038410,0.072061,0.994882
2011-09-26T13:08:26.099505,1130,-0.035839,0.291876,0.019810,-0.038117,0.072535,0.992333
2011-09-26T13:08:26.109505,1140,0.001361,0.279494,0.013428,-0.037825,0.073008,0.989784
2011-09-26T13:08:26.119505,1150,-0.040541,0.232527,0.014399,-0.038534,0.072407,0.989942
2011-09-26T13:08:26.129505,1160,-0.082443,0.185560,0.015370,-0.039244,0.071806,0.990100
2011-09-26T13:08:26.139505,1170,-0.124345,0.138592,0.016341,-0.039953,0.071205,0.990258
2011-09-26T13:08:26.149505,1180,-0.166247,0.091625,0.017312,-0.040663,0.070604,0.990416
2011-09-26T13:08:26.159505,1190,-0.208149,0.044658,0.018284,-0.041372,0.070003,0.990574
2011-09-26T13:08:26.169505,1200,-0.250051,-0.002310,0.019255,-0.042082,0.069402,0.990731
2011-09-26T13:08:26.179505,1210,-0.291953,-0.049277,0.020226,-0.042791,0.068801,0.990889
2011-09-26T13:08:26.189505,1220,-0.333855,-0.096244,0.021197,-0.043501,0.068201,0.991047
2011-09-26T13:08:26.199505,1230,-0.375757,-0.143211,0.022168,-0.044210,0.067600,0.991205
2011-09-26T13:08:26.209505,1240,-0.417659,-0.190179,0.023139,-0.044920,0.066999,0.991363
2011-09-26T13:08:26.219505,1250,-0.459561,-0.237146,0.024110,-0.045629,0.066398,0.991521
2011-09-26T13:08:26.229505,1260,-0.379570,-0.244119,0.026905,-0.044409,0.064785,0.992933
2011-09-26T13:08:26.239505,1270,-0.297862,-0.250529,0.029725,-0.043161,0.063158,0.994363
2011-09-26T13:08:26.249505,1280,-0.216153,-0.256939,0.032546,-0.041913,0.061531,0.995793
2011-09-26T13:08:26.259505,1290,-0.134445,-0.263349,0.035366,-0.040666,0.059904,0.997223
2011-09-26T13:08:26.269505,1300,-0.052737,-0.269759,0.038186,-0.039418,0.058277,0.998653
2011-09-26T13:08:26.279505,1310,0.028971,-0.276168,0.041007,-0.038170,0.056650,1.000084
2011-09-26T13:08:26.289505,1320,0.110679,-0.282578,0.043827,-0.036923,0.055023,1.001514
2011-09-26T13:08:26.299505,1330,0.192387,-0.288988,0.046647,-0.035675,0.053396,1.002944
2011-09-26T13:08:26.309505,1340,0.274095,-0.295398,0.049468,-0.034428,0.051769,1.004374
2011-09-26T13:08:26.319505,1350,0.355803,-0.301808,0.052288,-0.033180,0.050142,1.005804
2011-09-26T13:08:26.329505,1360,0.310707,-0.218600,0.055578,-0.034246,0.052487,1.006921
2011-09-26T13:08:26.339505,1370,0.264719,-0.134762,0.058871,-0.035328,0.054860,1.008036
2011-09-26T13:08:26.349505,1380,0.218732,-0.050923,0.062164,-0.036411,0.057233,1.009151
2011-09-26T13:08:26.359505,1390,0.172744,0.032915,0.065457,-0.037493,0.059606,1.010266
2011-09-26T13:08:26.369505,1400,0.126756,0.116753,0.068750,-0.038575,0.061979,1.011381
2011-09-26T13:08:26.379505,1410,0.080769,0.200591,0.072043,-0.039658,0.064352,1.012496
2011-09-26T13:08:26.389505,1420,0.034781,0.284429,0.075336,-0.040740,0.066725,1.013611
2011-09-26T13:08:26.399505,1430,-0.011207,0.368268,0.078629,-0.041822,0.069098,1.014726
2011-09-26T13:08:26.409505,1440,-0.057194,0.452106,0.081922,-0.042905,0.071471,1.015841
2011-09-26T13:08:26.419505,1450,-0.103182,0.535944,0.085215,-0.043987,0.073844,1.016956
2011-09-26T13:08:26.429505,1460,-0.112217,0.543985,0.087471,-0.044075,0.073044,1.014452
2011-09-26T13:08:26.439505,1470,-0.121071,0.551655,0.089721,-0.044158,0.072229,1.011931
2011-09-26T13:08:26.449505,1480,-0.129926,0.559324,0.091971,-0.044241,0.071414,1.009409
2011-09-26T13:08:26.459505,1490,-0.138780,0.566993,0.094221,-0.044324,0.070599,1.006887
2011-09-26T13:08:26.469505,1500,-0.147634,0.574663,0.096471,-0.044407,0.069784,1.004365
2011-09-26T13:08:26.479505,1510,-0.156488,0.582332,0.098721,-0.044490,0.068969,1.001844
2011-09-26T13:08:26.489505,1520,-0.165342,0.590001,0.100971,-0.044573,0.068154,0.999322
2011-09-26T13:08:26.499505,1530,-0.174196,0.597671,0.103221,-0.044656,0.067339,0.996800
2011-09-26T13:08:26.509505,1540,-0.183050,0.605340,0.105471,-0.044739,0.066524,0.994279
2011-09-26T13:08:26.519505,1550,-0.191904,0.613009,0.107722,-0.044822,0.065709,0.991757
2011-09-26T13:08:26.529505,1560,-0.200759,0.620679,0.109972,-0.044904,0.064894,0.989235
2011-09-26T13:08:26.539505,1570,-0.163317,0.585148,0.107462,-0.044951,0.064085,0.988652
2011-09-26T13:08:26.549505,1580,-0.125694,0.549449,0.104934,-0.044997,0.063276,0.988077
2011-09-26T13:08:26.559505,1590,-0.088070,0.513749,0.102405,-0.045043,0.062467,0.987502
2011-09-26T13:08:26.569505,1600,-0.050447,0.478049,0.099877,-0.045089,0.061658,0.986926
2011-09-26T13:08:26.579505,1610,-0.012824,0.442349,0.097349,-0.045135,0.060849,0.986351
2011-09-26T13:08:26.589505,1620,0.024799,0.406650,0.094820,-0.045181,0.060039,0.985776
2011-09-26T13:08:26.599505,1630,0.062422,0.370950,0.092292,-0.045227,0.059230,0.985200
2011-09-26T13:08:26.609505,1640,0.100046,0.335250,0.089764,-0.045273,0.058421,0.984625
2011-09-26T13:08:26.619505,1650,0.137669,0.299550,0.087235,-0.045319,0.057612,0.984050
2011-09-26T13:08:26.629505,1660,0.175292,0.263851,0.084707,-0.045365,0.056803,0.983474
2011-09-26T13:08:26.639505,1670,0.298535,0.259294,0.084794,-0.046003,0.057369,0.983921
2011-09-26T13:08:26.649505,1680,0.422251,0.254910,0.084896,-0.046645,0.057943,0.984372
2011-09-26T13:08:26.659505,1690,0.545967,0.250525,0.084998,-0.047286,0.058516,0.984824
2011-09-26T13:08:26.669505,1700,0.669683,0.246141,0.085099,-0.047928,0.059090,0.985276
2011-09-26T13:08:26.679505,1710,0.793399,0.241757,0.085201,-0.048569,0.059663,0.985728
2011-09-26T13:08:26.689505,1720,0.917114,0.237372,0.085303,-0.049210,0.060237,0.986180
2011-09-26T13:08:26.699505,1730,1.040830,0.232988,0.085404,-0.049852,0.060811,0.986632
2011-09-26T13:08:26.709505,1740,1.164546,0.228603,0.085506,-0.050493,0.061384,0.987084
2011-09-26T13:08:26.719505,1750,1.288262,0.224219,0.085608,-0.051134,0.061958,0.987536
2011-09-26T13:08:26.729505,1760,1.411978,0.219835,0.085709,-0.051776,0.062531,0.987988
2011-09-26T13:08:26.739505,1770,1.249094,0.156304,0.091127,-0.052511,0.064902,0.988017
2011-09-26T13:08:26.749505,1780,1.084102,0.092338,0.096584,-0.053247,0.067285,0.988043
2011-09-26T13:08:26.759505,1790,0.919110,0.028373,0.102041,-0.053984,0.069668,0.988069
2011-09-26T13:08:26.769505,1800,0.754118,-0.035593,0.107498,-0.054720,0.072052,0.988095
2011-09-26T13:08:26.779505,1810,0.589127,-0.099558,0.112954,-0.055456,0.074435,0.988121
2011-09-26T13:08:26.789505,1820,0.424135,-0.163524,0.118411,-0.056192,0.076819,0.988148
2011-09-26T13:08:26.799505,1830,0.259143,-0.227489,0.123868,-0.056929,0.079202,0.988174
2011-09-26T13:08:26.809505,1840,0.094151,-0.291455,0.129325,-0.057665,0.081586,0.988200
2011-09-26T13:08:26.819505,1850,-0.070840,-0.355420,0.134782,-0.058401,0.083969,0.988226
2011-09-26T13:08:26.829505,1860,-0.235832,-0.419386,0.140238,-0.059137,0.086352,0.988252
2011-09-26T13:08:26.839505,1870,-0.400824,-0.483351,0.145695,-0.059874,0.088736,0.988278
2011-09-26T13:08:26.849505,1880,-0.387086,-0.609932,0.147432,-0.059363,0.082632,0.987841
2011-09-26T13:08:26.859505,1890,-0.372179,-0.736922,0.149144,-0.058844,0.076473,0.987401
2011-09-26T13:08:26.869505,1900,-0.357273,-0.863912,0.150857,-0.058326,0.070314,0.986962
2011-09-26T13:08:26.879505,1910,-0.342366,-0.990903,0.152569,-0.057807,0.064155,0.986522
2011-09-26T13:08:26.889505,1920,-0.327459,-1.117893,0.154282,-0.057288,0.057995,0.986082
2011-09-26T13:08:26.899505,1930,-0.312553,-1.244883,0.155994,-0.056769,0.051836,0.985642
2011-09-26T13:08:26.909505,1940,-0.297646,-1.371873,0.157707,-0.056251,0.045677,0.985202
2011-09-26T13:08:26.919505,1950,-0.282740,-1.498863,0.159419,-0.055732,0.039518,0.984762
2011-09-26T13:08:26.929505,1960,-0.267833,-1.625854,0.161132,-0.055213,0.033358,0.984322
2011-09-26T13:08:26.939505,1970,-0.252926,-1.752844,0.162844,-0.054694,0.027199,0.983882
2011-09-26T13:08:26.949505,1980,-0.179091,-1.627227,0.169004,-0.054786,0.033108,0.987653
2011-09-26T13:08:26.959505,1990,-0.104900,-1.500091,0.175190,-0.054880,0.039089,0.991449
2011-09-26T13:08:26.969505,2000,-0.030710,-1.372954,0.181377,-0.054975,0.045070,0.995245
2011-09-26T13:08:26.979505,2010,0.043481,-1.245818,0.187563,-0.055070,0.051051,0.999042
2011-09-26T13:08:26.989505,2020,0.117671,-1.118681,0.193750,-0.055165,0.057032,1.002838
2011-09-26T13:08:26.999505,2030,0.191861,-0.991545,0.199936,-0.055260,0.063013,1.006634
2011-09-26T13:08:27.009505,2040,0.266052,-0.864408,0.206123,-0.055354,0.068994,1.010430
2011-09-26T13:08:27.019505,2050,0.340242,-0.737272,0.212309,-0.055449,0.074975,1.014226
2011-09-26T13:08:27.029505,2060,0.414433,-0.610135,0.218496,-0.055544,0.080956,1.018022
2011-09-26T13:08:27.039505,2070,0.488623,-0.482999,0.224682,-0.055639,0.086937,1.021818
2011-09-26T13:08:27.049505,2080,0.294389,-0.362870,0.190834,-0.052729,0.087140,1.022336
2011-09-26T13:08:27.059505,2090,0.097687,-0.242805,0.156618,-0.049791,0.087291,1.022824
2011-09-26T13:08:27.069505,2100,-0.099014,-0.122741,0.122402,-0.046854,0.087442,1.023312
2011-09-26T13:08:27.079505,2110,-0.295715,-0.002676,0.088185,-0.043917,0.087593,1.023800
2011-09-26T13:08:27.089505,2120,-0.492416,0.117389,0.053969,-0.040979,0.087744,1.024288
2011-09-26T13:08:27.099505,2130,-0.689118,0.237453,0.019753,-0.038042,0.087895,1.024776
2011-09-26T13:08:27.109505,2140,-0.885819,0.357518,-0.014463,-0.035104,0.088045,1.025264
2011-09-26T13:08:27.119505,2150,-1.082520,0.477583,-0.048679,-0.032167,0.088196,1.025752
2011-09-26T13:08:27.129505,2160,-1.279221,0.597647,-0.082895,-0.029230,0.088347,1.026240
2011-09-26T13:08:27.139505,2170,-1.475923,0.717712,-0.117112,-0.026292,0.088498,1.026728
2011-09-26T13:08:27.149505,2180,-1.672624,0.837777,-0.151328,-0.023355,0.088649,1.027216
2011-09-26T13:08:27.159505,2190,-1.661383,0.843843,-0.153502,-0.022709,0.084460,1.020346
2011-09-26T13:08:27.169505,2200,-1.648761,0.849153,-0.155465,-0.022079,0.080242,1.013428
2011-09-26T13:08:27.179505,2210,-1.636140,0.854463,-0.157427,-0.021449,0.076024,1.006509
2011-09-26T13:08:27.189505,2220,-1.623519,0.859772,-0.159389,-0.020819,0.071807,0.999590
2011-09-26T13:08:27.199505,2230,-1.610898,0.865082,-0.161351,-0.020189,0.067589,0.992672
2011-09-26T13:08:27.209505,2240,-1.598277,0.870392,-0.163313,-0.019558,0.063371,0.985753
2011-09-26T13:08:27.219505,2250,-1.585656,0.875702,-0.165275,-0.018928,0.059153,0.978834
2011-09-26T13:08:27.229505,2260,-1.573035,0.881011,-0.167237,-0.018298,0.054936,0.971916
2011-09-26T13:08:27.239505,2270,-1.560413,0.886321,-0.169199,-0.017668,0.050718,0.964997
2011-09-26T13:08:27.249505,2280,-1.547792,0.891631,-0.171161,-0.017037,0.046500,0.958078
2011-09-26T13:08:27.259505,2290,-1.498861,0.841238,-0.154210,-0.017253,0.047424,0.960161
2011-09-26T13:08:27.269505,2300,-1.449664,0.790436,-0.137121,-0.017474,0.048387,0.962310
2011-09-26T13:08:27.279505,2310,-1.400467,0.739635,-0.120032,-0.017696,0.049349,0.964459
2011-09-26T13:08:27.289505,2320,-1.351269,0.688833,-0.102943,-0.017917,0.050311,0.966608
2011-09-26T13:08:27.299505,2330,-1.302072,0.638032,-0.085854,-0.018139,0.051273,0.968757
2011-09-26T13:08:27.309505,2340,-1.252875,0.587230,-0.068764,-0.018360,0.052235,0.970905
2011-09-26T13:08:27.319505,2350,-1.203677,0.536429,-0.051675,-0.018582,0.053197,0.973054
2011-09-26T13:08:27.329505,2360,-1.154480,0.485627,-0.034586,-0.018803,0.054159,0.975203
2011-09-26T13:08:27.339505,2370,-1.105283,0.434826,-0.017497,-0.019025,0.055121,0.977352
2011-09-26T13:08:27.349505,2380,-1.056085,0.384024,-0.000408,-0.019247,0.056083,0.979501
2011-09-26T13:08:27.359505,2390,-1.073684,0.389677,-0.005434,-0.018100,0.056582,0.979726
2011-09-26T13:08:27.369505,2400,-1.091969,0.395910,-0.010687,-0.016940,0.057076,0.979932
2011-09-26T13:08:27.379505,2410,-1.110254,0.402144,-0.015941,-0.015779,0.057570,0.980137
2011-09-26T13:08:27.389505,2420,-1.128539,0.408378,-0.021194,-0.014619,0.058065,0.980343
2011-09-26T13:08:27.399505,2430,-1.146824,0.414611,-0.026448,-0.013458,0.058559,0.980548
2011-09-26T13:08:27.409505,2440,-1.165109,0.420845,-0.031701,-0.012298,0.059053,0.980754
2011-09-26T13:08:27.419505,2450,-1.183395,0.427078,-0.036954,-0.011138,0.059547,0.980960
2011-09-26T13:08:27.429505,2460,-1.201680,0.433312,-0.042208,-0.009977,0.060041,0.981165
2011-09-26T13:08:27.439505,2470,-1.219965,0.439545,-0.047461,-0.008817,0.060535,0.981371
2011-09-26T13:08:27.449505,2480,-1.238250,0.445779,-0.052715,-0.007656,0.061030,0.981576
2011-09-26T13:08:27.459505,2490,-1.256535,0.452012,-0.057968,-0.006496,0.061524,0.981782
2011-09-26T13:08:27.469505,2500,-1.231645,0.335635,-0.034038,-0.005891,0.061269,0.982068
2011-09-26T13:08:27.479505,2510,-1.206520,0.218593,-0.009950,-0.005289,0.061010,0.982354
2011-09-26T13:08:27.489505,2520,-1.181396,0.101550,0.014139,-0.004687,0.060751,0.982640
2011-09-26T13:08:27.499505,2530,-1.156271,-0.015492,0.038227,-0.004085,0.060492,0.982926
2011-09-26T13:08:27.509505,2540,-1.131146,-0.132535,0.062315,-0.003483,0.060234,0.983212
2011-09-26T13:08:27.519505,2550,-1.106022,-0.249577,0.086404,-0.002881,0.059975,0.983498
2011-09-26T13:08:27.529505,2560,-1.080897,-0.366620,0.110492,-0.002279,0.059716,0.983784
2011-09-26T13:08:27.539505,2570,-1.055773,-0.483662,0.134581,-0.001677,0.059457,0.984070
2011-09-26T13:08:27.549505,2580,-1.030648,-0.600705,0.158669,-0.001075,0.059198,0.984356
2011-09-26T13:08:27.559505,2590,-1.005524,-0.717747,0.182757,-0.000473,0.058939,0.984643
2011-09-26T13:08:27.569505,2600,-1.050572,-0.778900,0.206614,0.001215,0.059839,0.984101
2011-09-26T13:08:27.579505,2610,-1.096127,-0.839648,0.230468,0.002910,0.060747,0.983554
2011-09-26T13:08:27.589505,2620,-1.141683,-0.900397,0.254322,0.004606,0.061656,0.983007
2011-09-26T13:08:27.599505,2630,-1.187238,-0.961146,0.278177,0.006301,0.062564,0.982460
2011-09-26T13:08:27.609505,2640,-1.232793,-1.021894,0.302031,0.007997,0.063472,0.981913
2011-09-26T13:08:27.619505,2650,-1.278349,-1.082643,0.325885,0.009692,0.064380,0.981365
2011-09-26T13:08:27.629505,2660,-1.323904,-1.143392,0.349740,0.011388,0.065289,0.980818
2011-09-26T13:08:27.639505,2670,-1.369460,-1.204140,0.373594,0.013083,0.066197,0.980271
2011-09-26T13:08:27.649505,2680,-1.415015,-1.264889,0.397449,0.014779,0.067105,0.979724
2011-09-26T13:08:27.659505,2690,-1.460571,-1.325637,0.421303,0.016474,0.068013,0.979177
2011-09-26T13:08:27.669505,2700,-1.425035,-1.258250,0.411945,0.017106,0.067696,0.984496
2011-09-26T13:08:27.679505,2710,-1.388874,-1.189874,0.402330,0.017729,0.067369,0.989860
2011-09-26T13:08:27.689505,2720,-1.352712,-1.121497,0.392716,0.018352,0.067042,0.995224
2011-09-26T13:08:27.699505,2730,-1.316550,-1.053120,0.383101,0.018975,0.066715,1.000588
2011-09-26T13:08:27.709505,2740,-1.280389,-0.984743,0.373487,0.019599,0.066388,1.005953
2011-09-26T13:08:27.719505,2750,-1.244227,-0.916366,0.363872,0.020222,0.066061,1.011317
2011-09-26T13:08:27.729505,2760,-1.208065,-0.847990,0.354257,0.020845,0.065734,1.016681
2011-09-26T13:08:27.739505,2770,-1.171903,-0.779613,0.344643,0.021469,0.065407,1.022045
2011-09-26T13:08:27.749505,2780,-1.135742,-0.711236,0.335028,0.022092,0.065080,1.027410
2011-09-26T13:08:27.759505,2790,-1.099580,-0.642859,0.325413,0.022715,0.064753,1.032774
2011-09-26T13:08:27.769505,2800,-1.063418,-0.574482,0.315799,0.023339,0.064426,1.038138
2011-09-26T13:08:27.779505,2810,-1.126161,-0.423921,0.315823,0.023390,0.063565,1.036345
2011-09-26T13:08:27.789505,2820,-1.190736,-0.271837,0.316025,0.023431,0.062694,1.034418
2011-09-26T13:08:27.799505,2830,-1.255311,-0.119753,0.316227,0.023471,0.061822,1.032492
2011-09-26T13:08:27.809505,2840,-1.319886,0.032331,0.316429,0.023512,0.060951,1.030566
2011-09-26T13:08:27.819505,2850,-1.384461,0.184414,0.316632,0.023553,0.060080,1.028640
2011-09-26T13:08:27.829505,2860,-1.449037,0.336498,0.316834,0.023594,0.059208,1.026713
2011-09-26T13:08:27.839505,2870,-1.513612,0.488582,0.317036,0.023634,0.058337,1.024787
2011-09-26T13:08:27.849505,2880,-1.578187,0.640666,0.317239,0.023675,0.057466,1.022861
2011-09-26T13:08:27.859505,2890,-1.642762,0.792750,0.317441,0.023716,0.056594,1.020935
2011-09-26T13:08:27.869505,2900,-1.707337,0.944834,0.317643,0.023756,0.055723,1.019008
2011-09-26T13:08:27.879505,2910,-1.655098,0.947538,0.312464,0.022277,0.054642,1.015593
2011-09-26T13:08:27.889505,2920,-1.601515,0.948523,0.307223,0.020780,0.053559,1.012160
2011-09-26T13:08:27.899505,2930,-1.547932,0.949508,0.301982,0.019283,0.052475,1.008727
2011-09-26T13:08:27.909505,2940,-1.494349,0.950493,0.296741,0.017786,0.051392,1.005295
2011-09-26T13:08:27.919505,2950,-1.440766,0.951478,0.291500,0.016289,0.050308,1.001862
2011-09-26T13:08:27.929505,2960,-1.387183,0.952463,0.286258,0.014792,0.049225,0.998429
2011-09-26T13:08:27.939505,2970,-1.333600,0.953448,0.281017,0.013295,0.048142,0.994997
2011-09-26T13:08:27.949505,2980,-1.280017,0.954433,0.275776,0.011797,0.047058,0.991564
2011-09-26T13:08:27.959505,2990,-1.226434,0.955418,0.270535,0.010300,0.045975,0.988131
2011-09-26T13:08:27.969505,3000,-1.172850,0.956403,0.265294,0.008803,0.044891,0.984699
2011-09-26T13:08:27.979505,3010,-1.166208,0.862961,0.283617,0.009250,0.044593,0.983187
2011-09-26T13:08:27.989505,3020,-1.160055,0.768536,0.302186,0.009718,0.044303,0.981696
2011-09-26T13:08:27.999505,3030,-1.153902,0.674111,0.320754,0.010185,0.044014,0.980205
2011-09-26T13:08:28.009505,3040,-1.147748,0.579686,0.339323,0.010652,0.043724,0.978714
2011-09-26T13:08:28.019505,3050,-1.141595,0.485261,0.357891,0.011119,0.043434,0.977222
2011-09-26T13:08:28.029505,3060,-1.135442,0.390836,0.376460,0.011587,0.043144,0.975731
2011-09-26T13:08:28.039505,3070,-1.129288,0.296411,0.395029,0.012054,0.042854,0.974240
2011-09-26T13:08:28.049505,3080,-1.123135,0.201986,0.413597,0.012521,0.042564,0.972749
2011-09-26T13:08:28.059505,3090,-1.116981,0.107561,0.432166,0.012988,0.042275,0.971257
2011-09-26T13:08:28.069505,3100,-1.110828,0.013136,0.450734,0.013456,0.041985,0.969766
2011-09-26T13:08:28.079505,3110,-1.104675,-0.081289,0.469303,0.013923,0.041695,0.968275
2011-09-26T13:08:28.089505,3120,-1.004632,-0.110791,0.471880,0.014421,0.041874,0.970417
2011-09-26T13:08:28.099505,3130,-0.903335,-0.139426,0.474244,0.014920,0.042059,0.972607
2011-09-26T13:08:28.109505,3140,-0.802038,-0.168060,0.476608,0.015418,0.042244,0.974798
2011-09-26T13:08:28.119505,3150,-0.700741,-0.196695,0.478972,0.015917,0.042429,0.976988
2011-09-26T13:08:28.129505,3160,-0.599443,-0.225330,0.481336,0.016415,0.042614,0.979178
2011-09-26T13:08:28.139505,3170,-0.498146,-0.253964,0.483699,0.016914,0.042799,0.981369
2011-09-26T13:08:28.149505,3180,-0.396849,-0.282599,0.486063,0.017412,0.042984,0.983559
2011-09-26T13:08:28.159505,3190,-0.295552,-0.311234,0.488427,0.017911,0.043170,0.985750
2011-09-26T13:08:28.169505,3200,-0.194255,-0.339868,0.490791,0.018410,0.043355,0.987940
2011-09-26T13:08:28.179505,3210,-0.092958,-0.368503,0.493155,0.018908,0.043540,0.990131
2011-09-26T13:08:28.189505,3220,-0.071179,-0.334724,0.498248,0.019646,0.044421,0.992147
2011-09-26T13:08:28.199505,3230,-0.052036,-0.298876,0.503432,0.020392,0.045326,0.994157
2011-09-26T13:08:28.209505,3240,-0.032892,-0.263028,0.508616,0.021138,0.046230,0.996168
2011-09-26T13:08:28.219505,3250,-0.013749,-0.227181,0.513800,0.021884,0.047135,0.998178
2011-09-26T13:08:28.229505,3260,0.005394,-0.191333,0.518984,0.022629,0.048039,1.000189
2011-09-26T13:08:28.239505,3270,0.024538,-0.155485,0.524168,0.023375,0.048944,1.002199
2011-09-26T13:08:28.249505,3280,0.043681,-0.119638,0.529352,0.024121,0.049849,1.004209
2011-09-26T13:08:28.259505,3290,0.062824,-0.083790,0.534536,0.024867,0.050753,1.006220
2011-09-26T13:08:28.269505,3300,0.081968,-0.047942,0.539720,0.025613,0.051658,1.008230
2011-09-26T13:08:28.279505,3310,0.101111,-0.012095,0.544904,0.026359,0.052562,1.010241
2011-09-26T13:08:28.289505,3320,0.120254,0.023753,0.550088,0.027105,0.053467,1.012251
2011-09-26T13:08:28.299505,3330,0.108529,0.048628,0.547115,0.026658,0.053229,1.011336
2011-09-26T13:08:28.309505,3340,0.096303,0.073324,0.544010,0.026193,0.052972,1.010373
2011-09-26T13:08:28.319505,3350,0.084076,0.098021,0.540905,0.025727,0.052715,1.009410
2011-09-26T13:08:28.329505,3360,0.071849,0.122717,0.537800,0.025262,0.052459,1.008447
2011-09-26T13:08:28.339505,3370,0.059622,0.147414,0.534695,0.024797,0.052202,1.007484
2011-09-26T13:08:28.349505,3380,0.047396,0.172110,0.531589,0.024331,0.051945,1.006521
2011-09-26T13:08:28.359505,3390,0.035169,0.196806,0.528484,0.023866,0.051689,1.005558
2011-09-26T13:08:28.369505,3400,0.022942,0.221503,0.525379,0.023400,0.051432,1.004595
2011-09-26T13:08:28.379505,3410,0.010716,0.246199,0.522274,0.022935,0.051175,1.003632
2011-09-26T13:08:28.389505,3420,-0.001511,0.270896,0.519169,0.022469,0.050918,1.002669
2011-09-26T13:08:28.399505,3430,0.011727,0.251847,0.505451,0.022748,0.051459,1.002254
2011-09-26T13:08:28.409505,3440,0.025180,0.232428,0.491643,0.023033,0.052005,1.001844
2011-09-26T13:08:28.419505,3450,0.038634,0.213008,0.477835,0.023318,0.052552,1.001435
2011-09-26T13:08:28.429505,3460,0.052087,0.193589,0.464027,0.023603,0.053099,1.001025
2011-09-26T13:08:28.439505,3470,0.065540,0.174170,0.450219,0.023888,0.053646,1.000615
2011-09-26T13:08:28.449505,3480,0.078994,0.154750,0.436411,0.024173,0.054193,1.000205
2011-09-26T13:08:28.459505,3490,0.092447,0.135331,0.422604,0.024459,0.054740,0.999795
2011-09-26T13:08:28.469505,3500,0.105901,0.115912,0.408796,0.024744,0.055287,0.999385
2011-09-26T13:08:28.479505,3510,0.119354,0.096492,0.394988,0.025029,0.055834,0.998976
2011-09-26T13:08:28.489505,3520,0.132808,0.077073,0.381180,0.025314,0.056381,0.998566
2011-09-26T13:08:28.499505,3530,0.085297,0.067411,0.339468,0.026180,0.055839,0.997514
2011-09-26T13:08:28.509505,3540,0.036689,0.057925,0.297253,0.027056,0.055277,0.996450
2011-09-26T13:08:28.519505,3550,-0.011919,0.048440,0.255038,0.027932,0.054716,0.995387
2011-09-26T13:08:28.529505,3560,-0.060527,0.038954,0.212823,0.028808,0.054154,0.994323
2011-09-26T13:08:28.539505,3570,-0.109135,0.029468,0.170609,0.029685,0.053593,0.993260
2011-09-26T13:08:28.549505,3580,-0.157743,0.019982,0.128394,0.030561,0.053031,0.992196
2011-09-26T13:08:28.559505,3590,-0.206351,0.010496,0.086179,0.031437,0.052470,0.991133
2011-09-26T13:08:28.569505,3600,-0.254959,0.001010,0.043965,0.032314,0.051908,0.990069
2011-09-26T13:08:28.579505,3610,-0.303567,-0.008476,0.001750,0.033190,0.051347,0.989005
2011-09-26T13:08:28.589505,3620,-0.352175,-0.017962,-0.040465,0.034066,0.050785,0.987942
2011-09-26T13:08:28.599505,3630,-0.400783,-0.027448,-0.082679,0.034942,0.050224,0.986878
2011-09-26T13:08:28.609505,3640,-0.407643,0.032010,-0.138105,0.035267,0.049729,0.988771
2011-09-26T13:08:28.619505,3650,-0.413876,0.092502,-0.193729,0.035584,0.049235,0.990708
2011-09-26T13:08:28.629505,3660,-0.420109,0.152995,-0.249352,0.035900,0.048742,0.992645
2011-09-26T13:08:28.639505,3670,-0.426342,0.213488,-0.304976,0.036216,0.048248,0.994582
2011-09-26T13:08:28.649505,3680,-0.432575,0.273980,-0.360600,0.036533,0.047754,0.996518
2011-09-26T13:08:28.659505,3690,-0.438807,0.334473,-0.416224,0.036849,0.047261,0.998455
2011-09-26T13:08:28.669505,3700,-0.445040,0.394966,-0.471847,0.037166,0.046767,1.000392
2011-09-26T13:08:28.679505,3710,-0.451273,0.455458,-0.527471,0.037482,0.046273,1.002329
2011-09-26T13:08:28.689505,3720,-0.457506,0.515951,-0.583095,0.037799,0.045780,1.004266
2011-09-26T13:08:28.699505,3730,-0.463739,0.576444,-0.638719,0.038115,0.045286,1.006203
2011-09-26T13:08:28.709505,3740,-0.456394,0.593422,-0.673445,0.037127,0.042889,1.004587
2011-09-26T13:08:28.719505,3750,-0.448507,0.608659,-0.707334,0.036087,0.040416,1.002829
2011-09-26T13:08:28.729505,3760,-0.440619,0.623896,-0.741224,0.035047,0.037942,1.001071
2011-09-26T13:08:28.739505,3770,-0.432731,0.639133,-0.775113,0.034007,0.035469,0.999313
2011-09-26T13:08:28.749505,3780,-0.424844,0.654370,-0.809003,0.032966,0.032996,0.997554
2011-09-26T13:08:28.759505,3790,-0.416956,0.669607,-0.842892,0.031926,0.030523,0.995796
2011-09-26T13:08:28.769505,3800,-0.409068,0.684844,-0.876782,0.030886,0.028049,0.994038
2011-09-26T13:08:28.779505,3810,-0.401181,0.700081,-0.910671,0.029846,0.025576,0.992280
2011-09-26T13:08:28.789505,3820,-0.393293,0.715318,-0.944561,0.028806,0.023103,0.990522
2011-09-26T13:08:28.799505,3830,-0.385405,0.730555,-0.978450,0.027765,0.020630,0.988764
2011-09-26T13:08:28.809505,3840,-0.383635,0.663038,-0.997983,0.027897,0.020639,0.987584
2011-09-26T13:08:28.819505,3850,-0.381954,0.594322,-1.017307,0.028045,0.020685,0.986412
2011-09-26T13:08:28.829505,3860,-0.380273,0.525606,-1.036631,0.028193,0.020730,0.985241
2011-09-26T13:08:28.839505,3870,-0.378592,0.456890,-1.055955,0.028341,0.020775,0.984069
2011-09-26T13:08:28.849505,3880,-0.376911,0.388174,-1.075279,0.028490,0.020821,0.982898
2011-09-26T13:08:28.859505,3890,-0.375230,0.319458,-1.094603,0.028638,0.020866,0.981726
2011-09-26T13:08:28.869505,3900,-0.373549,0.250742,-1.113927,0.028786,0.020911,0.980555
2011-09-26T13:08:28.879505,3910,-0.371868,0.182026,-1.133251,0.028934,0.020957,0.979383
2011-09-26T13:08:28.889505,3920,-0.370187,0.113310,-1.152575,0.029082,0.021002,0.978212
2011-09-26T13:08:28.899505,3930,-0.368506,0.044594,-1.171899,0.029231,0.021048,0.977040
2011-09-26T13:08:28.909505,3940,-0.366825,-0.024123,-1.191223,0.029379,0.021093,0.975869
2011-09-26T13:08:28.919505,3950,-0.293071,-0.078426,-1.207540,0.029854,0.018336,0.976489
2011-09-26T13:08:28.929505,3960,-0.218116,-0.132490,-1.223808,0.030334,0.015533,0.977139
2011-09-26T13:08:28.939505,3970,-0.143161,-0.186554,-1.240075,0.030815,0.012729,0.977789
2011-09-26T13:08:28.949505,3980,-0.068206,-0.240618,-1.256342,0.031295,0.009926,0.978439
2011-09-26T13:08:28.959505,3990,0.006749,-0.294682,-1.272609,0.031776,0.007122,0.979089
2011-09-26T13:08:28.969505,4000,0.081703,-0.348746,-1.288877,0.032256,0.004319,0.979739
2011-09-26T13:08:28.979505,4010,0.156658,-0.402809,-1.305144,0.032736,0.001515,0.980389
2011-09-26T13:08:28.989505,4020,0.231613,-0.456873,-1.321411,0.033217,-0.001288,0.981039
2011-09-26T13:08:28.999505,4030,0.306568,-0.510937,-1.337679,0.033697,-0.004092,0.981689
2011-09-26T13:08:29.009505,4040,0.381523,-0.565001,-1.353946,0.034178,-0.006895,0.982339
2011-09-26T13:08:29.019505,4050,0.422168,-0.542640,-1.344868,0.034151,-0.004475,0.985685
2011-09-26T13:08:29.029505,4060,0.462326,-0.519195,-1.335431,0.034117,-0.001980,0.989068
2011-09-26T13:08:29.039505,4070,0.502484,-0.495750,-1.325993,0.034083,0.000515,0.992452
2011-09-26T13:08:29.049505,4080,0.542642,-0.472304,-1.316556,0.034049,0.003010,0.995836
2011-09-26T13:08:29.059505,4090,0.582800,-0.448859,-1.307118,0.034015,0.005504,0.999219
2011-09-26T13:08:29.069505,4100,0.622958,-0.425414,-1.297681,0.033980,0.007999,1.002603
2011-09-26T13:08:29.079505,4110,0.663117,-0.401969,-1.288243,0.033946,0.010494,1.005987
2011-09-26T13:08:29.089505,4120,0.703275,-0.378524,-1.278806,0.033912,0.012989,1.009370
2011-09-26T13:08:29.099505,4130,0.743433,-0.355078,-1.269368,0.033878,0.015483,1.012754
2011-09-26T13:08:29.109505,4140,0.783591,-0.331633,-1.259931,0.033844,0.017978,1.016137
2011-09-26T13:08:29.119505,4150,0.778034,-0.280648,-1.270812,0.034358,0.018213,1.015582
2011-09-26T13:08:29.129505,4160,0.771768,-0.229236,-1.282008,0.034880,0.018413,1.014965
2011-09-26T13:08:29.139505,4170,0.765502,-0.177824,-1.293205,0.035403,0.018614,1.014349
2011-09-26T13:08:29.149505,4180,0.759235,-0.126412,-1.304401,0.035925,0.018814,1.013732
2011-09-26T13:08:29.159505,4190,0.752969,-0.075000,-1.315598,0.036448,0.019014,1.013116
2011-09-26T13:08:29.169505,4200,0.746703,-0.023588,-1.326794,0.036970,0.019214,1.012499
2011-09-26T13:08:29.179505,4210,0.740436,0.027824,-1.337990,0.037492,0.019414,1.011883
2011-09-26T13:08:29.189505,4220,0.734170,0.079237,-1.349187,0.038015,0.019614,1.011266
2011-09-26T13:08:29.199505,4230,0.727904,0.130649,-1.360383,0.038537,0.019814,1.010650
2011-09-26T13:08:29.209505,4240,0.721638,0.182061,-1.371580,0.039060,0.020015,1.010033
2011-09-26T13:08:29.219505,4250,0.715371,0.233473,-1.382776,0.039582,0.020215,1.009416
2011-09-26T13:08:29.229505,4260,0.714824,0.260655,-1.374217,0.038736,0.019771,1.008255
2011-09-26T13:08:29.239505,4270,0.714448,0.287108,-1.365064,0.037850,0.019309,1.007077
2011-09-26T13:08:29.249505,4280,0.714072,0.313562,-1.355911,0.036963,0.018846,1.005899
2011-09-26T13:08:29.259505,4290,0.713696,0.340015,-1.346759,0.036076,0.018383,1.004721
2011-09-26T13:08:29.269505,4300,0.713321,0.366468,-1.337606,0.035190,0.017920,1.003543
2011-09-26T13:08:29.279505,4310,0.712945,0.392922,-1.328453,0.034303,0.017458,1.002365
2011-09-26T13:08:29.289505,4320,0.712569,0.419375,-1.319300,0.033416,0.016995,1.001187
2011-09-26T13:08:29.299505,4330,0.712193,0.445829,-1.310147,0.032530,0.016532,1.000010
2011-09-26T13:08:29.309505,4340,0.711817,0.472282,-1.300995,0.031643,0.016069,0.998832
2011-09-26T13:08:29.319505,4350,0.711442,0.498736,-1.291842,0.030756,0.015607,0.997654
2011-09-26T13:08:29.329505,4360,0.693970,0.444207,-1.288732,0.031041,0.016533,0.996533
2011-09-26T13:08:29.339505,4370,0.676120,0.387883,-1.285756,0.031352,0.017491,0.995414
2011-09-26T13:08:29.349505,4380,0.658270,0.331560,-1.282780,0.031663,0.018449,0.994294
2011-09-26T13:08:29.359505,4390,0.640420,0.275236,-1.279804,0.031974,0.019406,0.993175
2011-09-26T13:08:29.369505,4400,0.622570,0.218913,-1.276828,0.032286,0.020364,0.992055
2011-09-26T13:08:29.379505,4410,0.604720,0.162589,-1.273852,0.032597,0.021321,0.990936
2011-09-26T13:08:29.389505,4420,0.586869,0.106266,-1.270876,0.032908,0.022279,0.989816
2011-09-26T13:08:29.399505,4430,0.569019,0.049942,-1.267900,0.033219,0.023237,0.988697
2011-09-26T13:08:29.409505,4440,0.551169,-0.006381,-1.264924,0.033530,0.024194,0.987577
2011-09-26T13:08:29.419505,4450,0.533319,-0.062705,-1.261948,0.033841,0.025152,0.986458
2011-09-26T13:08:29.429505,4460,0.493673,-0.110651,-1.251072,0.033737,0.024834,0.987453
2011-09-26T13:08:29.439505,4470,0.453664,-0.158459,-1.240063,0.033626,0.024496,0.988483
2011-09-26T13:08:29.449505,4480,0.413655,-0.206266,-1.229055,0.033516,0.024157,0.989513
2011-09-26T13:08:29.459505,4490,0.373646,-0.254074,-1.218047,0.033405,0.023819,0.990543
2011-09-26T13:08:29.469505,4500,0.333637,-0.301881,-1.207038,0.033294,0.023481,0.991573
2011-09-26T13:08:29.479505,4510,0.293628,-0.349689,-1.196030,0.033184,0.023142,0.992603
2011-09-26T13:08:29.489505,4520,0.253619,-0.397496,-1.185022,0.033073,0.022804,0.993633
2011-09-26T13:08:29.499505,4530,0.213610,-0.445304,-1.174014,0.032962,0.022465,0.994663
2011-09-26T13:08:29.509505,4540,0.173601,-0.493111,-1.163005,0.032852,0.022127,0.995693
2011-09-26T13:08:29.519505,4550,0.133591,-0.540918,-1.151997,0.032741,0.021788,0.996723
2011-09-26T13:08:29.529505,4560,0.093582,-0.588726,-1.140989,0.032630,0.021450,0.997753
2011-09-26T13:08:29.539505,4570,0.210036,-0.566570,-1.129896,0.031733,0.022542,0.999053
2011-09-26T13:08:29.549505,4580,0.329177,-0.543212,-1.118801,0.030822,0.023659,1.000359
2011-09-26T13:08:29.559505,4590,0.448319,-0.519854,-1.107706,0.029910,0.024776,1.001664
2011-09-26T13:08:29.569505,4600,0.567461,-0.496496,-1.096612,0.028999,0.025893,1.002969
2011-09-26T13:08:29.579505,4610,0.686603,-0.473138,-1.085517,0.028088,0.027010,1.004274
2011-09-26T13:08:29.589505,4620,0.805745,-0.449780,-1.074423,0.027177,0.028128,1.005579
2011-09-26T13:08:29.599505,4630,0.924887,-0.426422,-1.063328,0.026266,0.029245,1.006884
2011-09-26T13:08:29.609505,4640,1.044029,-0.403064,-1.052234,0.025355,0.030362,1.008189
2011-09-26T13:08:29.619505,4650,1.163171,-0.379705,-1.041139,0.024444,0.031479,1.009494
2011-09-26T13:08:29.629505,4660,1.282312,-0.356347,-1.030045,0.023533,0.032596,1.010799
2011-09-26T13:08:29.639505,4670,1.204827,-0.306334,-1.004059,0.024034,0.032303,1.012010
2011-09-26T13:08:29.649505,4680,1.123539,-0.255805,-0.977785,0.024563,0.031982,1.013218
2011-09-26T13:08:29.659505,4690,1.042252,-0.205276,-0.951511,0.025091,0.031661,1.014426
2011-09-26T13:08:29.669505,4700,0.960964,-0.154747,-0.925237,0.025620,0.031341,1.015634
2011-09-26T13:08:29.679505,4710,0.879677,-0.104218,-0.898963,0.026148,0.031020,1.016842
2011-09-26T13:08:29.689505,4720,0.798389,-0.053689,-0.872689,0.026677,0.030700,1.018051
2011-09-26T13:08:29.699505,4730,0.717102,-0.003159,-0.846415,0.027205,0.030379,1.019259
2011-09-26T13:08:29.709505,4740,0.635814,0.047370,-0.820141,0.027734,0.030059,1.020467
2011-09-26T13:08:29.719505,4750,0.554526,0.097899,-0.793868,0.028262,0.029738,1.021675
2011-09-26T13:08:29.729505,4760,0.473239,0.148428,-0.767594,0.028791,0.029418,1.022884
2011-09-26T13:08:29.739505,4770,0.600329,0.162910,-0.765130,0.026037,0.028433,1.020998
2011-09-26T13:08:29.749505,4780,0.731841,0.176628,-0.763172,0.023214,0.027433,1.019047
2011-09-26T13:08:29.759505,4790,0.863352,0.190346,-0.761214,0.020390,0.026434,1.017096
2011-09-26T13:08:29.769505,4800,0.994864,0.204064,-0.759256,0.017566,0.025435,1.015144
2011-09-26T13:08:29.779505,4810,1.126375,0.217781,-0.757298,0.014743,0.024435,1.013193
2011-09-26T13:08:29.789505,4820,1.257887,0.231499,-0.755339,0.011919,0.023436,1.011242
2011-09-26T13:08:29.799505,4830,1.389398,0.245217,-0.753381,0.009096,0.022437,1.009291
2011-09-26T13:08:29.809505,4840,1.520910,0.258935,-0.751423,0.006272,0.021438,1.007339
2011-09-26T13:08:29.819505,4850,1.652422,0.272653,-0.749465,0.003449,0.020438,1.005388
2011-09-26T13:08:29.829505,4860,1.783933,0.286370,-0.747507,0.000625,0.019439,1.003437
2011-09-26T13:08:29.839505,4870,1.915445,0.300088,-0.745548,-0.002198,0.018440,1.001486
2011-09-26T13:08:29.849505,4880,1.823263,0.212029,-0.718863,-0.003544,0.022197,0.999010
2011-09-26T13:08:29.859505,4890,1.725839,0.121584,-0.691599,-0.004856,0.026066,0.996521
2011-09-26T13:08:29.869505,4900,1.628414,0.031139,-0.664335,-0.006167,0.029935,0.994033
2011-09-26T13:08:29.879505,4910,1.530990,-0.059306,-0.637070,-0.007479,0.033804,0.991545
2011-09-26T13:08:29.889505,4920,1.433565,-0.149751,-0.609806,-0.008790,0.037673,0.989056
2011-09-26T13:08:29.899505,4930,1.336141,-0.240196,-0.582541,-0.010102,0.041542,0.986568
2011-09-26T13:08:29.909505,4940,1.238717,-0.330641,-0.555277,-0.011413,0.045411,0.984080
2011-09-26T13:08:29.919505,4950,1.141292,-0.421086,-0.528013,-0.012725,0.049280,0.981592
2011-09-26T13:08:29.929505,4960,1.043868,-0.511531,-0.500748,-0.014036,0.053149,0.979103
2011-09-26T13:08:29.939505,4970,0.946444,-0.601975,-0.473484,-0.015348,0.057018,0.976615
2011-09-26T13:08:29.949505,4980,0.907234,-0.791982,-0.444805,-0.014695,0.056285,0.977796
2011-09-26T13:08:29.959505,4990,0.869023,-0.983698,-0.416102,-0.014008,0.055472,0.979040
2011-09-26T13:08:29.969505,5000,0.830812,-1.175413,-0.387400,-0.013321,0.054660,0.980283
2011-09-26T13:08:29.979505,5010,0.792601,-1.367128,-0.358697,-0.012634,0.053848,0.981527
2011-09-26T13:08:29.989505,5020,0.754390,-1.558843,-0.329994,-0.011946,0.053035,0.982771
2011-09-26T13:08:29.999505,5030,0.716179,-1.750559,-0.301291,-0.011259,0.052223,0.984015
2011-09-26T13:08:30.009505,5040,0.677968,-1.942274,-0.272588,-0.010572,0.051410,0.985259
2011-09-26T13:08:30.019505,5050,0.639757,-2.133989,-0.243886,-0.009885,0.050598,0.986502
2011-09-26T13:08:30.029505,5060,0.601546,-2.325704,-0.215183,-0.009198,0.049786,0.987746
2011-09-26T13:08:30.039505,5070,0.563335,-2.517420,-0.186480,-0.008511,0.048973,0.988990
2011-09-26T13:08:30.049505,5080,0.543586,-2.438074,-0.196432,-0.006950,0.050938,0.995234
2011-09-26T13:08:30.059505,5090,0.524274,-2.352292,-0.207301,-0.005368,0.052969,1.001596
2011-09-26T13:08:30.069505,5100,0.504963,-2.266509,-0.218171,-0.003786,0.055000,1.007959
2011-09-26T13:08:30.079505,5110,0.485651,-2.180727,-0.229041,-0.002203,0.057031,1.014321
2011-09-26T13:08:30.089505,5120,0.466340,-2.094945,-0.239910,-0.000621,0.059061,1.020684
2011-09-26T13:08:30.099505,5130,0.447028,-2.009163,-0.250780,0.000961,0.061092,1.027046
2011-09-26T13:08:30.109505,5140,0.427717,-1.923381,-0.261650,0.002543,0.063123,1.033409
2011-09-26T13:08:30.119505,5150,0.408405,-1.837599,-0.272519,0.004125,0.065154,1.039771
2011-09-26T13:08:30.129505,5160,0.389094,-1.751817,-0.283389,0.005708,0.067184,1.046134
2011-09-26T13:08:30.139505,5170,0.369782,-1.666035,-0.294258,0.007290,0.069215,1.052496
2011-09-26T13:08:30.149505,5180,0.350471,-1.580253,-0.305128,0.008872,0.071246,1.058859
2011-09-26T13:08:30.159505,5190,0.202190,-1.340000,-0.325490,0.008472,0.070978,1.059454
2011-09-26T13:08:30.169505,5200,0.051280,-1.096599,-0.346045,0.008032,0.070664,1.059932
2011-09-26T13:08:30.179505,5210,-0.099629,-0.853197,-0.366600,0.007592,0.070349,1.060409
2011-09-26T13:08:30.189505,5220,-0.250538,-0.609796,-0.387155,0.007153,0.070034,1.060887
2011-09-26T13:08:30.199505,5230,-0.401447,-0.366395,-0.407710,0.006713,0.069720,1.061365
2011-09-26T13:08:30.209505,5240,-0.552356,-0.122994,-0.428266,0.006273,0.069405,1.061842
2011-09-26T13:08:30.219505,5250,-0.703265,0.120407,-0.448821,0.005833,0.069091,1.062320
2011-09-26T13:08:30.229505,5260,-0.854175,0.363808,-0.469376,0.005393,0.068776,1.062798
2011-09-26T13:08:30.239505,5270,-1.005084,0.607209,-0.489931,0.004953,0.068462,1.063275
2011-09-26T13:08:30.249505,5280,-1.155993,0.850610,-0.510486,0.004513,0.068147,1.063753
2011-09-26T13:08:30.259505,5290,-1.113370,0.927848,-0.515305,0.002250,0.064683,1.053427
2011-09-26T13:08:30.269505,5300,-1.066822,1.001717,-0.519805,-0.000049,0.061155,1.042882
2011-09-26T13:08:30.279505,5310,-1.020275,1.075586,-0.524305,-0.002348,0.057627,1.032337
2011-09-26T13:08:30.289505,5320,-0.973727,1.149455,-0.528805,-0.004648,0.054100,1.021792
2011-09-26T13:08:30.299505,5330,-0.927180,1.223323,-0.533305,-0.006947,0.050572,1.011247
2011-09-26T13:08:30.309505,5340,-0.880632,1.297192,-0.537805,-0.009247,0.047044,1.000702
2011-09-26T13:08:30.319505,5350,-0.834085,1.371061,-0.542305,-0.011546,0.043516,0.990157
2011-09-26T13:08:30.329505,5360,-0.787537,1.444930,-0.546805,-0.013846,0.039988,0.979612
2011-09-26T13:08:30.339505,5370,-0.740990,1.518799,-0.551305,-0.016145,0.036460,0.969067
2011-09-26T13:08:30.349505,5380,-0.694442,1.592668,-0.555805,-0.018445,0.032933,0.958522
2011-09-26T13:08:30.359505,5390,-0.616141,1.486949,-0.513230,-0.018805,0.033116,0.959317
2011-09-26T13:08:30.369505,5400,-0.537155,1.377361,-0.469640,-0.019124,0.033379,0.960356
2011-09-26T13:08:30.379505,5410,-0.458169,1.267772,-0.426051,-0.019443,0.033642,0.961396
2011-09-26T13:08:30.389505,5420,-0.379184,1.158183,-0.382462,-0.019762,0.033905,0.962435
2011-09-26T13:08:30.399505,5430,-0.300198,1.048595,-0.338873,-0.020081,0.034169,0.963474
2011-09-26T13:08:30.409505,5440,-0.221212,0.939006,-0.295284,-0.020400,0.034432,0.964514
2011-09-26T13:08:30.419505,5450,-0.142226,0.829418,-0.251694,-0.020718,0.034695,0.965553
2011-09-26T13:08:30.429505,5460,-0.063240,0.719829,-0.208105,-0.021037,0.034958,0.966593
2011-09-26T13:08:30.439505,5470,0.015745,0.610240,-0.164516,-0.021356,0.035221,0.967632
2011-09-26T13:08:30.449505,5480,0.094731,0.500652,-0.120927,-0.021675,0.035485,0.968672
2011-09-26T13:08:30.459505,5490,0.173717,0.391063,-0.077337,-0.021994,0.035748,0.969711
2011-09-26T13:08:30.469505,5500,0.226491,0.331305,-0.055101,-0.021547,0.036889,0.971272
2011-09-26T13:08:30.479505,5510,0.278740,0.272543,-0.033292,-0.021084,0.038048,0.972844
2011-09-26T13:08:30.489505,5520,0.330990,0.213782,-0.011483,-0.020621,0.039207,0.974415
2011-09-26T13:08:30.499505,5530,0.383239,0.155020,0.010326,-0.020159,0.040366,0.975987
2011-09-26T13:08:30.509505,5540,0.435488,0.096258,0.032135,-0.019696,0.041525,0.977559
2011-09-26T13:08:30.519505,5550,0.487738,0.037496,0.053944,-0.019233,0.042684,0.979130
2011-09-26T13:08:30.529505,5560,0.539987,-0.021265,0.075753,-0.018771,0.043843,0.980702
2011-09-26T13:08:30.539505,5570,0.592237,-0.080027,0.097562,-0.018308,0.045002,0.982273
2011-09-26T13:08:30.549505,5580,0.644486,-0.138789,0.119371,-0.017846,0.046161,0.983845
2011-09-26T13:08:30.559505,5590,0.696736,-0.197550,0.141180,-0.017383,0.047320,0.985417
2011-09-26T13:08:30.569505,5600,0.727030,-0.182888,0.160423,-0.016813,0.048932,0.987289
2011-09-26T13:08:30.579505,5610,0.756862,-0.166682,0.179613,-0.016240,0.050554,0.989168
2011-09-26T13:08:30.589505,5620,0.786695,-0.150476,0.198803,-0.015668,0.052175,0.991047
2011-09-26T13:08:30.599505,5630,0.816528,-0.134270,0.217993,-0.015095,0.053797,0.992926
2011-09-26T13:08:30.609505,5640,0.846360,-0.118065,0.237182,-0.014523,0.055418,0.994805
2011-09-26T13:08:30.619505,5650,0.876193,-0.101859,0.256372,-0.013950,0.057040,0.996684
2011-09-26T13:08:30.629505,5660,0.906025,-0.085653,0.275562,-0.013377,0.058661,0.998563
2011-09-26T13:08:30.639505,5670,0.935858,-0.069448,0.294752,-0.012805,0.060283,1.000442
2011-09-26T13:08:30.649505,5680,0.965691,-0.053242,0.313941,-0.012232,0.061905,1.002321
2011-09-26T13:08:30.659505,5690,0.995523,-0.037036,0.333131,-0.011660,0.063526,1.004199
2011-09-26T13:08:30.669505,5700,1.025356,-0.020830,0.352321,-0.011087,0.065148,1.006078
2011-09-26T13:08:30.679505,5710,0.991079,0.005120,0.375464,-0.010250,0.065676,1.006158
2011-09-26T13:08:30.689505,5720,0.954691,0.031392,0.398738,-0.009404,0.066169,1.006179
2011-09-26T13:08:30.699505,5730,0.918303,0.057664,0.422012,-0.008558,0.066661,1.006199
2011-09-26T13:08:30.709505,5740,0.881915,0.083936,0.445286,-0.007711,0.067154,1.006219
2011-09-26T13:08:30.719505,5750,0.845527,0.110207,0.468560,-0.006865,0.067647,1.006240
2011-09-26T13:08:30.729505,5760,0.809139,0.136479,0.491834,-0.006019,0.068139,1.006260
2011-09-26T13:08:30.739505,5770,0.772751,0.162751,0.515108,-0.005173,0.068632,1.006281
2011-09-26T13:08:30.749505,5780,0.736363,0.189022,0.538382,-0.004327,0.069124,1.006301
2011-09-26T13:08:30.759505,5790,0.699975,0.215294,0.561656,-0.003481,0.069617,1.006322
2011-09-26T13:08:30.769505,5800,0.663587,0.241566,0.584930,-0.002635,0.070109,1.006342
2011-09-26T13:08:30.779505,5810,0.655132,0.255105,0.612773,-0.004199,0.071641,1.003478
2011-09-26T13:08:30.789505,5820,0.647647,0.268202,0.640775,-0.005847,0.073208,1.000513
2011-09-26T13:08:30.799505,5830,0.640162,0.281299,0.668776,-0.007495,0.074776,0.997548
2011-09-26T13:08:30.809505,5840,0.632678,0.294396,0.696778,-0.009143,0.076343,0.994583
2011-09-26T13:08:30.819505,5850,0.625193,0.307493,0.724779,-0.010791,0.077911,0.991619
2011-09-26T13:08:30.829505,5860,0.617708,0.320590,0.752781,-0.012439,0.079479,0.988654
2011-09-26T13:08:30.839505,5870,0.610224,0.333687,0.780782,-0.014087,0.081046,0.985689
2011-09-26T13:08:30.849505,5880,0.602739,0.346784,0.808784,-0.015735,0.082614,0.982725
2011-09-26T13:08:30.859505,5890,0.595254,0.359881,0.836786,-0.017384,0.084181,0.979760
2011-09-26T13:08:30.869505,5900,0.587770,0.372977,0.864787,-0.019032,0.085749,0.976795
2011-09-26T13:08:30.879505,5910,0.480915,0.323609,0.873647,-0.018081,0.085484,0.978006
2011-09-26T13:08:30.889505,5920,0.372166,0.273050,0.882142,-0.017081,0.085185,0.979296
2011-09-26T13:08:30.899505,5930,0.263417,0.222492,0.890637,-0.016082,0.084885,0.980586
2011-09-26T13:08:30.909505,5940,0.154668,0.171933,0.899132,-0.015082,0.084586,0.981877
2011-09-26T13:08:30.919505,5950,0.045919,0.121374,0.907627,-0.014082,0.084286,0.983167
2011-09-26T13:08:30.929505,5960,-0.062830,0.070815,0.916122,-0.013082,0.083987,0.984457
2011-09-26T13:08:30.939505,5970,-0.171578,0.020257,0.924617,-0.012082,0.083687,0.985747
2011-09-26T13:08:30.949505,5980,-0.280327,-0.030302,0.933112,-0.011082,0.083388,0.987038
2011-09-26T13:08:30.959505,5990,-0.389076,-0.080861,0.941607,-0.010082,0.083088,0.988328
2011-09-26T13:08:30.969505,6000,-0.497825,-0.131420,0.950102,-0.009082,0.082789,0.989618
2011-09-26T13:08:30.979505,6010,-0.499386,-0.137557,0.952998,-0.008632,0.082639,0.990938
2011-09-26T13:08:30.989505,6020,-0.498580,-0.142712,0.955771,-0.008193,0.082493,0.992259
2011-09-26T13:08:30.999505,6030,-0.497774,-0.147868,0.958543,-0.007755,0.082346,0.993580
2011-09-26T13:08:31.009505,6040,-0.496968,-0.153024,0.961315,-0.007316,0.082200,0.994901
2011-09-26T13:08:31.019505,6050,-0.496162,-0.158180,0.964088,-0.006878,0.082053,0.996221
2011-09-26T13:08:31.029505,6060,-0.495357,-0.163336,0.966860,-0.006439,0.081907,0.997542
2011-09-26T13:08:31.039505,6070,-0.494551,-0.168492,0.969632,-0.006001,0.081760,0.998863
2011-09-26T13:08:31.049505,6080,-0.493745,-0.173648,0.972404,-0.005563,0.081614,1.000184
2011-09-26T13:08:31.059505,6090,-0.492939,-0.178804,0.975177,-0.005124,0.081467,1.001505
2011-09-26T13:08:31.069505,6100,-0.492133,-0.183960,0.977949,-0.004686,0.081321,1.002825
2011-09-26T13:08:31.079505,6110,-0.491327,-0.189115,0.980721,-0.004247,0.081174,1.004146
2011-09-26T13:08:31.089505,6120,-0.551783,-0.088484,0.966674,-0.003201,0.081492,1.004919
2011-09-26T13:08:31.099505,6130,-0.613782,0.014814,0.952202,-0.002139,0.081821,1.005678
2011-09-26T13:08:31.109505,6140,-0.675782,0.118112,0.937730,-0.001077,0.082150,1.006438
2011-09-26T13:08:31.119505,6150,-0.737782,0.221410,0.923259,-0.000015,0.082479,1.007197
2011-09-26T13:08:31.129505,6160,-0.799782,0.324707,0.908787,0.001047,0.082809,1.007956
2011-09-26T13:08:31.139505,6170,-0.861781,0.428005,0.894316,0.002109,0.083138,1.008716
2011-09-26T13:08:31.149505,6180,-0.923781,0.531303,0.879844,0.003171,0.083467,1.009475
2011-09-26T13:08:31.159505,6190,-0.985781,0.634601,0.865372,0.004233,0.083796,1.010234
2011-09-26T13:08:31.169505,6200,-1.047781,0.737899,0.850901,0.005295,0.084125,1.010993
2011-09-26T13:08:31.179505,6210,-1.109780,0.841197,0.836429,0.006356,0.084455,1.011753
2011-09-26T13:08:31.189505,6220,-1.154966,0.863224,0.842047,0.005356,0.084146,1.009393
2011-09-26T13:08:31.199505,6230,-1.199384,0.881539,0.848582,0.004261,0.083808,1.006892
2011-09-26T13:08:31.209505,6240,-1.243801,0.899854,0.855117,0.003166,0.083470,1.004390
2011-09-26T13:08:31.219505,6250,-1.288219,0.918169,0.861653,0.002071,0.083132,1.001889
2011-09-26T13:08:31.229505,6260,-1.332637,0.936484,0.868188,0.000976,0.082794,0.999387
2011-09-26T13:08:31.239505,6270,-1.377054,0.954799,0.874723,-0.000119,0.082456,0.996886
2011-09-26T13:08:31.249505,6280,-1.421472,0.973114,0.881258,-0.001214,0.082118,0.994384
2011-09-26T13:08:31.259505,6290,-1.465890,0.991429,0.887794,-0.002309,0.081780,0.991882
2011-09-26T13:08:31.269505,6300,-1.510308,1.009744,0.894329,-0.003404,0.081442,0.989381
2011-09-26T13:08:31.279505,6310,-1.554725,1.028059,0.900864,-0.004499,0.081104,0.986879
2011-09-26T13:08:31.289505,6320,-1.550376,0.923830,0.909261,-0.004867,0.080122,0.985024
2011-09-26T13:08:31.299505,6330,-1.544545,0.815877,0.917714,-0.005213,0.079120,0.983188
2011-09-26T13:08:31.309505,6340,-1.538714,0.707924,0.926168,-0.005559,0.078118,0.981352
2011-09-26T13:08:31.319505,6350,-1.532883,0.599971,0.934621,-0.005905,0.077116,0.979516
2011-09-26T13:08:31.329505,6360,-1.527052,0.492018,0.943074,-0.006251,0.076114,0.977680
2011-09-26T13:08:31.339505,6370,-1.521222,0.384065,0.951528,-0.006597,0.075112,0.975844
2011-09-26T13:08:31.349505,6380,-1.515391,0.276113,0.959981,-0.006943,0.074110,0.974009
2011-09-26T13:08:31.359505,6390,-1.509560,0.168160,0.968434,-0.007290,0.073109,0.972173
2011-09-26T13:08:31.369505,6400,-1.503729,0.060207,0.976888,-0.007636,0.072107,0.970337
2011-09-26T13:08:31.379505,6410,-1.497898,-0.047746,0.985341,-0.007982,0.071105,0.968501
2011-09-26T13:08:31.389505,6420,-1.492067,-0.155699,0.993794,-0.008328,0.070103,0.966665
2011-09-26T13:08:31.399505,6430,-1.494871,-0.241388,1.007518,-0.007183,0.069973,0.970086
2011-09-26T13:08:31.409505,6440,-1.497928,-0.326427,1.021396,-0.005995,0.069869,0.973660
2011-09-26T13:08:31.419505,6450,-1.500985,-0.411466,1.035274,-0.004807,0.069765,0.977234
2011-09-26T13:08:31.429505,6460,-1.504041,-0.496505,1.049152,-0.003619,0.069661,0.980809
2011-09-26T13:08:31.439505,6470,-1.507098,-0.581543,1.063030,-0.002431,0.069557,0.984383
2011-09-26T13:08:31.449505,6480,-1.510155,-0.666582,1.076908,-0.001243,0.069453,0.987957
2011-09-26T13:08:31.459505,6490,-1.513212,-0.751621,1.090786,-0.000055,0.069348,0.991532
2011-09-26T13:08:31.469505,6500,-1.516268,-0.836660,1.104663,0.001133,0.069244,0.995106
2011-09-26T13:08:31.479505,6510,-1.519325,-0.921699,1.118541,0.002321,0.069140,0.998680
2011-09-26T13:08:31.489505,6520,-1.522382,-1.006737,1.132419,0.003509,0.069036,1.002254
2011-09-26T13:08:31.499505,6530,-1.482235,-0.997976,1.129729,0.003903,0.068786,1.004415
2011-09-26T13:08:31.509505,6540,-1.440985,-0.986821,1.126616,0.004275,0.068533,1.006539
2011-09-26T13:08:31.519505,6550,-1.399736,-0.975667,1.123504,0.004648,0.068279,1.008663
2011-09-26T13:08:31.529505,6560,-1.358486,-0.964513,1.120391,0.005021,0.068025,1.010788
2011-09-26T13:08:31.539505,6570,-1.317237,-0.953358,1.117278,0.005394,0.067772,1.012912
2011-09-26T13:08:31.549505,6580,-1.275987,-0.942204,1.114165,0.005766,0.067518,1.015036
2011-09-26T13:08:31.559505,6590,-1.234738,-0.931049,1.111053,0.006139,0.067265,1.017161
2011-09-26T13:08:31.569505,6600,-1.193488,-0.919895,1.107940,0.006512,0.067011,1.019285
2011-09-26T13:08:31.579505,6610,-1.152239,-0.908740,1.104827,0.006885,0.066757,1.021409
2011-09-26T13:08:31.589505,6620,-1.110989,-0.897586,1.101714,0.007258,0.066504,1.023533
2011-09-26T13:08:31.599505,6630,-1.095460,-0.844684,1.095897,0.007154,0.066360,1.023322
2011-09-26T13:08:31.609505,6640,-1.080584,-0.790722,1.090010,0.007039,0.066218,1.023051
2011-09-26T13:08:31.619505,6650,-1.065708,-0.736759,1.084123,0.006924,0.066077,1.022780
2011-09-26T13:08:31.629505,6660,-1.050832,-0.682797,1.078237,0.006809,0.065936,1.022510
2011-09-26T13:08:31.639505,6670,-1.035957,-0.628834,1.072350,0.006693,0.065794,1.022239
2011-09-26T13:08:31.649505,6680,-1.021081,-0.574872,1.066463,0.006578,0.065653,1.021968
2011-09-26T13:08:31.659505,6690,-1.006205,-0.520909,1.060577,0.006463,0.065512,1.021697
2011-09-26T13:08:31.669505,6700,-0.991329,-0.466947,1.054690,0.006347,0.065370,1.021427
2011-09-26T13:08:31.679505,6710,-0.976453,-0.412984,1.048804,0.006232,0.065229,1.021156
2011-09-26T13:08:31.689505,6720,-0.961577,-0.359022,1.042917,0.006117,0.065087,1.020885
2011-09-26T13:08:31.699505,6730,-0.946701,-0.305060,1.037030,0.006001,0.064946,1.020614
2011-09-26T13:08:31.709505,6740,-0.945871,-0.344702,1.046692,0.005954,0.064147,1.019414
2011-09-26T13:08:31.719505,6750,-0.945854,-0.389771,1.057254,0.005910,0.063310,1.018160
2011-09-26T13:08:31.729505,6760,-0.945838,-0.434839,1.067817,0.005866,0.062473,1.016906
2011-09-26T13:08:31.739505,6770,-0.945821,-0.479907,1.078379,0.005823,0.061635,1.015652
2011-09-26T13:08:31.749505,6780,-0.945804,-0.524975,1.088942,0.005779,0.060798,1.014398
2011-09-26T13:08:31.759505,6790,-0.945788,-0.570043,1.099504,0.005735,0.059961,1.013144
2011-09-26T13:08:31.769505,6800,-0.945771,-0.615111,1.110067,0.005692,0.059124,1.011889
2011-09-26T13:08:31.779505,6810,-0.945754,-0.660180,1.120629,0.005648,0.058287,1.010635
2011-09-26T13:08:31.789505,6820,-0.945738,-0.705248,1.131192,0.005604,0.057449,1.009381
2011-09-26T13:08:31.799505,6830,-0.945721,-0.750316,1.141754,0.005560,0.056612,1.008127
2011-09-26T13:08:31.809505,6840,-0.867827,-0.730480,1.124209,0.006515,0.056037,1.008686
2011-09-26T13:08:31.819505,6850,-0.787642,-0.708733,1.105836,0.007499,0.055470,1.009299
2011-09-26T13:08:31.829505,6860,-0.707456,-0.686986,1.087464,0.008483,0.054903,1.009911
2011-09-26T13:08:31.839505,6870,-0.627270,-0.665240,1.069091,0.009467,0.054335,1.010524
2011-09-26T13:08:31.849505,6880,-0.547084,-0.643493,1.050718,0.010451,0.053768,1.011136
2011-09-26T13:08:31.859505,6890,-0.466898,-0.621747,1.032346,0.011435,0.053201,1.011749
2011-09-26T13:08:31.869505,6900,-0.386713,-0.600000,1.013973,0.012419,0.052633,1.012362
2011-09-26T13:08:31.879505,6910,-0.306527,-0.578254,0.995601,0.013403,0.052066,1.012974
2011-09-26T13:08:31.889505,6920,-0.226341,-0.556507,0.977228,0.014387,0.051499,1.013587
2011-09-26T13:08:31.899505,6930,-0.146155,-0.534761,0.958855,0.015371,0.050932,1.014199
2011-09-26T13:08:31.909505,6940,-0.144737,-0.439160,0.950496,0.015267,0.051809,1.014582
2011-09-26T13:08:31.919505,6950,-0.145519,-0.341496,0.942416,0.015132,0.052727,1.014959
2011-09-26T13:08:31.929505,6960,-0.146301,-0.243832,0.934336,0.014998,0.053645,1.015336
2011-09-26T13:08:31.939505,6970,-0.147083,-0.146169,0.926257,0.014864,0.054563,1.015712
2011-09-26T13:08:31.949505,6980,-0.147865,-0.048505,0.918177,0.014729,0.055481,1.016089
2011-09-26T13:08:31.959505,6990,-0.148647,0.049159,0.910097,0.014595,0.056399,1.016466
2011-09-26T13:08:31.969505,7000,-0.149429,0.146822,0.902018,0.014460,0.057317,1.016843
2011-09-26T13:08:31.979505,7010,-0.150211,0.244486,0.893938,0.014326,0.058235,1.017219
2011-09-26T13:08:31.989505,7020,-0.150993,0.342150,0.885858,0.014191,0.059153,1.017596
2011-09-26T13:08:31.999505,7030,-0.151775,0.439813,0.877779,0.014057,0.060071,1.017973
2011-09-26T13:08:32.009505,7040,-0.152557,0.537477,0.869699,0.013922,0.060989,1.018350
2011-09-26T13:08:32.019505,7050,-0.170489,0.602451,0.866893,0.013394,0.060507,1.015261
2011-09-26T13:08:32.029505,7060,-0.188923,0.666466,0.864242,0.012853,0.059985,1.012071
2011-09-26T13:08:32.039505,7070,-0.207357,0.730482,0.861590,0.012313,0.059462,1.008881
2011-09-26T13:08:32.049505,7080,-0.225791,0.794497,0.858939,0.011773,0.058939,1.005691
2011-09-26T13:08:32.059505,7090,-0.244225,0.858513,0.856288,0.011233,0.058417,1.002501
2011-09-26T13:08:32.069505,7100,-0.262660,0.922528,0.853636,0.010693,0.057894,0.999311
2011-09-26T13:08:32.079505,7110,-0.281094,0.986543,0.850985,0.010153,0.057371,0.996121
2011-09-26T13:08:32.089505,7120,-0.299528,1.050559,0.848334,0.009613,0.056849,0.992932
2011-09-26T13:08:32.099505,7130,-0.317962,1.114574,0.845683,0.009073,0.056326,0.989742
2011-09-26T13:08:32.109505,7140,-0.336397,1.178590,0.843031,0.008533,0.055803,0.986552
2011-09-26T13:08:32.119505,7150,-0.295025,1.132780,0.841768,0.008604,0.055183,0.985229
2011-09-26T13:08:32.129505,7160,-0.251906,1.083764,0.840545,0.008692,0.054560,0.983962
2011-09-26T13:08:32.139505,7170,-0.208788,1.034748,0.839322,0.008781,0.053936,0.982694
2011-09-26T13:08:32.149505,7180,-0.165670,0.985732,0.838099,0.008870,0.053313,0.981426
2011-09-26T13:08:32.159505,7190,-0.122552,0.936716,0.836876,0.008958,0.052690,0.980159
2011-09-26T13:08:32.169505,7200,-0.079434,0.887700,0.835653,0.009047,0.052066,0.978891
2011-09-26T13:08:32.179505,7210,-0.036315,0.838684,0.834430,0.009135,0.051443,0.977623
2011-09-26T13:08:32.189505,7220,0.006803,0.789668,0.833207,0.009224,0.050819,0.976355
2011-09-26T13:08:32.199505,7230,0.049921,0.740652,0.831984,0.009313,0.050196,0.975088
2011-09-26T13:08:32.209505,7240,0.093039,0.691636,0.830761,0.009401,0.049573,0.973820
2011-09-26T13:08:32.219505,7250,0.057862,0.659973,0.833934,0.009210,0.050595,0.974016
2011-09-26T13:08:32.229505,7260,0.018338,0.629274,0.837352,0.009003,0.051709,0.974293
2011-09-26T13:08:32.239505,7270,-0.021185,0.598575,0.840769,0.008796,0.052823,0.974570
2011-09-26T13:08:32.249505,7280,-0.060708,0.567875,0.844186,0.008589,0.053937,0.974846
2011-09-26T13:08:32.259505,7290,-0.100232,0.537176,0.847604,0.008382,0.055051,0.975123
2011-09-26T13:08:32.269505,7300,-0.139755,0.506477,0.851021,0.008175,0.056164,0.975400
2011-09-26T13:08:32.279505,7310,-0.179279,0.475777,0.854438,0.007968,0.057278,0.975677
2011-09-26T13:08:32.289505,7320,-0.218802,0.445078,0.857856,0.007761,0.058392,0.975954
2011-09-26T13:08:32.299505,7330,-0.258326,0.414378,0.861273,0.007555,0.059506,0.976231
2011-09-26T13:08:32.309505,7340,-0.297849,0.383679,0.864690,0.007348,0.060620,0.976508
2011-09-26T13:08:32.319505,7350,-0.337372,0.352980,0.868108,0.007141,0.061734,0.976785
2011-09-26T13:08:32.329505,7360,-0.289352,0.331385,0.854212,0.007454,0.060593,0.978783
2011-09-26T13:08:32.339505,7370,-0.238033,0.310134,0.839665,0.007787,0.059368,0.980847
2011-09-26T13:08:32.349505,7380,-0.186715,0.288883,0.825117,0.008120,0.058143,0.982910
2011-09-26T13:08:32.359505,7390,-0.135396,0.267631,0.810569,0.008453,0.056918,0.984973
2011-09-26T13:08:32.369505,7400,-0.084078,0.246380,0.796022,0.008786,0.055693,0.987037
2011-09-26T13:08:32.379505,7410,-0.032760,0.225128,0.781474,0.009119,0.054468,0.989100
2011-09-26T13:08:32.389505,7420,0.018559,0.203877,0.766926,0.009452,0.053243,0.991163
2011-09-26T13:08:32.399505,7430,0.069877,0.182626,0.752379,0.009784,0.052018,0.993227
2011-09-26T13:08:32.409505,7440,0.121196,0.161374,0.737831,0.010117,0.050793,0.995290
2011-09-26T13:08:32.419505,7450,0.172514,0.140123,0.723284,0.010450,0.049568,0.997353
2011-09-26T13:08:32.429505,7460,0.156332,0.187684,0.735317,0.011211,0.049860,0.998022
2011-09-26T13:08:32.439505,7470,0.137998,0.237441,0.748198,0.011986,0.050199,0.998646
2011-09-26T13:08:32.449505,7480,0.119663,0.287197,0.761080,0.012760,0.050539,0.999270
2011-09-26T13:08:32.459505,7490,0.101328,0.336953,0.773961,0.013535,0.050879,0.999894
2011-09-26T13:08:32.469505,7500,0.082993,0.386709,0.786842,0.014309,0.051219,1.000518
2011-09-26T13:08:32.479505,7510,0.064659,0.436466,0.799723,0.015084,0.051559,1.001142
2011-09-26T13:08:32.489505,7520,0.046324,0.486222,0.812605,0.015858,0.051899,1.001766
2011-09-26T13:08:32.499505,7530,0.027989,0.535978,0.825486,0.016633,0.052239,1.002390
2011-09-26T13:08:32.509505,7540,0.009654,0.585734,0.838367,0.017407,0.052579,1.003014
2011-09-26T13:08:32.519505,7550,-0.008680,0.635491,0.851249,0.018182,0.052919,1.003638
2011-09-26T13:08:32.529505,7560,-0.027015,0.685247,0.864130,0.018956,0.053259,1.004262
2011-09-26T13:08:32.539505,7570,0.013058,0.743833,0.869109,0.018082,0.052772,1.003158
2011-09-26T13:08:32.549505,7580,0.054789,0.802670,0.873863,0.017160,0.052261,1.002005
2011-09-26T13:08:32.559505,7590,0.096519,0.861507,0.878618,0.016239,0.051751,1.000853
2011-09-26T13:08:32.569505,7600,0.138249,0.920344,0.883372,0.015317,0.051241,0.999700
2011-09-26T13:08:32.579505,7610,0.179980,0.979181,0.888127,0.014395,0.050731,0.998547
2011-09-26T13:08:32.589505,7620,0.221710,1.038017,0.892882,0.013474,0.050220,0.997394
2011-09-26T13:08:32.599505,7630,0.263440,1.096854,0.897636,0.012552,0.049710,0.996241
2011-09-26T13:08:32.609505,7640,0.305171,1.155691,0.902391,0.011631,0.049200,0.995088
2011-09-26T13:08:32.619505,7650,0.346901,1.214528,0.907145,0.010709,0.048689,0.993935
2011-09-26T13:08:32.629505,7660,0.388631,1.273365,0.911900,0.009787,0.048179,0.992783
2011-09-26T13:08:32.639505,7670,0.471312,1.240564,0.921450,0.009701,0.049073,0.990155
2011-09-26T13:08:32.649505,7680,0.555363,1.204697,0.931161,0.009642,0.050014,0.987478
2011-09-26T13:08:32.659505,7690,0.639413,1.168830,0.940872,0.009583,0.050954,0.984802
2011-09-26T13:08:32.669505,7700,0.723464,1.132963,0.950583,0.009524,0.051895,0.982125
2011-09-26T13:08:32.679505,7710,0.807515,1.097096,0.960293,0.009466,0.052836,0.979448
2011-09-26T13:08:32.689505,7720,0.891566,1.061229,0.970004,0.009407,0.053776,0.976771
2011-09-26T13:08:32.699505,7730,0.975616,1.025363,0.979715,0.009348,0.054717,0.974095
2011-09-26T13:08:32.709505,7740,1.059667,0.989496,0.989426,0.009289,0.055658,0.971418
2011-09-26T13:08:32.719505,7750,1.143718,0.953629,0.999137,0.009231,0.056598,0.968741
2011-09-26T13:08:32.729505,7760,1.227769,0.917762,1.008847,0.009172,0.057539,0.966064
2011-09-26T13:08:32.739505,7770,1.185602,0.872340,1.018279,0.008889,0.058160,0.966414
2011-09-26T13:08:32.749505,7780,1.138925,0.826576,1.027701,0.008598,0.058770,0.966872
2011-09-26T13:08:32.759505,7790,1.092249,0.780812,1.037122,0.008307,0.059380,0.967330
2011-09-26T13:08:32.769505,7800,1.045572,0.735049,1.046544,0.008016,0.059990,0.967788
2011-09-26T13:08:32.779505,7810,0.998896,0.689285,1.055966,0.007725,0.060599,0.968246
2011-09-26T13:08:32.789505,7820,0.952219,0.643521,1.065387,0.007434,0.061209,0.968704
2011-09-26T13:08:32.799505,7830,0.905543,0.597757,1.074809,0.007143,0.061819,0.969162
2011-09-26T13:08:32.809505,7840,0.858866,0.551994,1.084230,0.006853,0.062429,0.969620
2011-09-26T13:08:32.819505,7850,0.812189,0.506230,1.093652,0.006562,0.063039,0.970078
2011-09-26T13:08:32.829505,7860,0.765513,0.460466,1.103074,0.006271,0.063648,0.970536
2011-09-26T13:08:32.839505,7870,0.718836,0.414703,1.112495,0.005980,0.064258,0.970994
2011-09-26T13:08:32.849505,7880,0.695535,0.346682,1.113675,0.006055,0.065304,0.972549
2011-09-26T13:08:32.859505,7890,0.672919,0.278008,1.114614,0.006141,0.066363,0.974135
2011-09-26T13:08:32.869505,7900,0.650304,0.209334,1.115552,0.006226,0.067422,0.975722
2011-09-26T13:08:32.879505,7910,0.627688,0.140660,1.116491,0.006312,0.068481,0.977309
2011-09-26T13:08:32.889505,7920,0.605072,0.071987,1.117429,0.006398,0.069540,0.978895
2011-09-26T13:08:32.899505,7930,0.582457,0.003313,1.118367,0.006483,0.070599,0.980482
2011-09-26T13:08:32.909505,7940,0.559841,-0.065361,1.119306,0.006569,0.071658,0.982068
2011-09-26T13:08:32.919505,7950,0.537225,-0.134035,1.120244,0.006655,0.072717,0.983655
2011-09-26T13:08:32.929505,7960,0.514609,-0.202708,1.121183,0.006741,0.073776,0.985242
2011-09-26T13:08:32.939505,7970,0.491994,-0.271382,1.122121,0.006826,0.074834,0.986828
2011-09-26T13:08:32.949505,7980,0.428225,-0.312021,1.117720,0.007743,0.074053,0.987497
2011-09-26T13:08:32.959505,7990,0.363100,-0.351737,1.113143,0.008686,0.073210,0.988136
2011-09-26T13:08:32.969505,8000,0.297974,-0.391452,1.108566,0.009630,0.072368,0.988775
2011-09-26T13:08:32.979505,8010,0.232849,-0.431167,1.103989,0.010573,0.071526,0.989414
2011-09-26T13:08:32.989505,8020,0.167724,-0.470882,1.099412,0.011517,0.070683,0.990053
2011-09-26T13:08:32.999505,8030,0.102598,-0.510597,1.094836,0.012460,0.069841,0.990692
2011-09-26T13:08:33.009505,8040,0.037473,-0.550312,1.090259,0.013404,0.068998,0.991331
2011-09-26T13:08:33.019505,8050,-0.027652,-0.590027,1.085682,0.014347,0.068156,0.991970
2011-09-26T13:08:33.029505,8060,-0.092777,-0.629742,1.081105,0.015291,0.067314,0.992609
2011-09-26T13:08:33.039505,8070,-0.157903,-0.669457,1.076528,0.016235,0.066471,0.993248
2011-09-26T13:08:33.049505,8080,-0.176939,-0.631764,1.071538,0.015740,0.066966,0.995793
2011-09-26T13:08:33.059505,8090,-0.194349,-0.591339,1.066535,0.015195,0.067507,0.998406
2011-09-26T13:08:33.069505,8100,-0.211758,-0.550915,1.061531,0.014650,0.068049,1.001018
2011-09-26T13:08:33.079505,8110,-0.229168,-0.510490,1.056527,0.014105,0.068590,1.003630
2011-09-26T13:08:33.089505,8120,-0.246578,-0.470065,1.051523,0.013560,0.069132,1.006242
2011-09-26T13:08:33.099505,8130,-0.263988,-0.429641,1.046519,0.013014,0.069673,1.008855
2011-09-26T13:08:33.109505,8140,-0.281398,-0.389216,1.041515,0.012469,0.070215,1.011467
2011-09-26T13:08:33.119505,8150,-0.298808,-0.348792,1.036511,0.011924,0.070756,1.014079
2011-09-26T13:08:33.129505,8160,-0.316217,-0.308367,1.031507,0.011379,0.071298,1.016691
2011-09-26T13:08:33.139505,8170,-0.333627,-0.267942,1.026503,0.010834,0.071839,1.019304
2011-09-26T13:08:33.149505,8180,-0.351037,-0.227518,1.021499,0.010289,0.072381,1.021916
2011-09-26T13:08:33.159505,8190,-0.365421,-0.181698,0.998358,0.009202,0.071477,1.020968
2011-09-26T13:08:33.169505,8200,-0.379702,-0.135694,0.974600,0.008096,0.070524,1.019898
2011-09-26T13:08:33.179505,8210,-0.393984,-0.089691,0.950842,0.006991,0.069571,1.018828
2011-09-26T13:08:33.189505,8220,-0.408265,-0.043688,0.927084,0.005885,0.068619,1.017759
2011-09-26T13:08:33.199505,8230,-0.422546,0.002316,0.903326,0.004780,0.067666,1.016689
2011-09-26T13:08:33.209505,8240,-0.436827,0.048319,0.879568,0.003674,0.066713,1.015620
2011-09-26T13:08:33.219505,8250,-0.451109,0.094322,0.855810,0.002569,0.065760,1.014550
2011-09-26T13:08:33.229505,8260,-0.465390,0.140326,0.832053,0.001463,0.064807,1.013480
2011-09-26T13:08:33.239505,8270,-0.479671,0.186329,0.808295,0.000358,0.063855,1.012411
2011-09-26T13:08:33.249505,8280,-0.493952,0.232333,0.784537,-0.000748,0.062902,1.011341
2011-09-26T13:08:33.259505,8290,-0.502658,0.188121,0.757604,-0.002419,0.062656,1.009606
2011-09-26T13:08:33.269505,8300,-0.511181,0.140967,0.730568,-0.004110,0.062433,1.007850
2011-09-26T13:08:33.279505,8310,-0.519705,0.093813,0.703532,-0.005800,0.062210,1.006093
2011-09-26T13:08:33.289505,8320,-0.528228,0.046659,0.676496,-0.007491,0.061987,1.004336
2011-09-26T13:08:33.299505,8330,-0.536752,-0.000495,0.649460,-0.009181,0.061765,1.002579
2011-09-26T13:08:33.309505,8340,-0.545275,-0.047649,0.622424,-0.010871,0.061542,1.000823
2011-09-26T13:08:33.319505,8350,-0.553799,-0.094804,0.595388,-0.012562,0.061319,0.999066
2011-09-26T13:08:33.329505,8360,-0.562322,-0.141958,0.568352,-0.014252,0.061096,0.997309
2011-09-26T13:08:33.339505,8370,-0.570846,-0.189112,0.541316,-0.015942,0.060873,0.995553
2011-09-26T13:08:33.349505,8380,-0.579369,-0.236266,0.514280,-0.017633,0.060650,0.993796
2011-09-26T13:08:33.359505,8390,-0.497460,-0.221815,0.485525,-0.017376,0.058448,0.994683
2011-09-26T13:08:33.369505,8400,-0.412591,-0.205348,0.456713,-0.017055,0.056181,0.995656
2011-09-26T13:08:33.379505,8410,-0.327723,-0.188881,0.427902,-0.016735,0.053914,0.996629
2011-09-26T13:08:33.389505,8420,-0.242854,-0.172414,0.399090,-0.016414,0.051647,0.997602
2011-09-26T13:08:33.399505,8430,-0.157985,-0.155947,0.370278,-0.016094,0.049379,0.998576
2011-09-26T13:08:33.409505,8440,-0.073116,-0.139481,0.341467,-0.015773,0.047112,0.999549
2011-09-26T13:08:33.419505,8450,0.011753,-0.123014,0.312655,-0.015453,0.044845,1.000522
2011-09-26T13:08:33.429505,8460,0.096621,-0.106547,0.283843,-0.015132,0.042578,1.001495
2011-09-26T13:08:33.439505,8470,0.181490,-0.090080,0.255032,-0.014812,0.040311,1.002469
2011-09-26T13:08:33.449505,8480,0.266359,-0.073613,0.226220,-0.014491,0.038044,1.003442
2011-09-26T13:08:33.459505,8490,0.351228,-0.057146,0.197409,-0.014171,0.035776,1.004415
2011-09-26T13:08:33.469505,8500,0.402875,0.001877,0.188401,-0.015113,0.036704,1.006311
2011-09-26T13:08:33.479505,8510,0.453500,0.062211,0.180004,-0.016093,0.037730,1.008235
2011-09-26T13:08:33.489505,8520,0.504124,0.122545,0.171606,-0.017073,0.038756,1.010159
2011-09-26T13:08:33.499505,8530,0.554748,0.182879,0.163209,-0.018054,0.039782,1.012083
2011-09-26T13:08:33.509505,8540,0.605373,0.243213,0.154811,-0.019034,0.040808,1.014007
2011-09-26T13:08:33.519505,8550,0.655997,0.303546,0.146414,-0.020015,0.041834,1.015931
2011-09-26T13:08:33.529505,8560,0.706621,0.363880,0.138016,-0.020995,0.042860,1.017855
2011-09-26T13:08:33.539505,8570,0.757246,0.424214,0.129619,-0.021976,0.043886,1.019779
2011-09-26T13:08:33.549505,8580,0.807870,0.484548,0.121221,-0.022956,0.044912,1.021703
2011-09-26T13:08:33.559505,8590,0.858494,0.544882,0.112824,-0.023937,0.045938,1.023628
2011-09-26T13:08:33.569505,8600,0.913799,0.517940,0.093151,-0.025262,0.044252,1.019854
2011-09-26T13:08:33.579505,8610,0.969248,0.488309,0.073131,-0.026599,0.042482,1.015905
2011-09-26T13:08:33.589505,8620,1.024696,0.458679,0.053110,-0.027935,0.040712,1.011955
2011-09-26T13:08:33.599505,8630,1.080145,0.429049,0.033090,-0.029272,0.038942,1.008006
2011-09-26T13:08:33.609505,8640,1.135594,0.399418,0.013069,-0.030608,0.037172,1.004057
2011-09-26T13:08:33.619505,8650,1.191042,0.369788,-0.006951,-0.031945,0.035402,1.000108
2011-09-26T13:08:33.629505,8660,1.246491,0.340158,-0.026971,-0.033281,0.033633,0.996159
2011-09-26T13:08:33.639505,8670,1.301940,0.310527,-0.046992,-0.034618,0.031863,0.992210
2011-09-26T13:08:33.649505,8680,1.357388,0.280897,-0.067012,-0.035954,0.030093,0.988260
2011-09-26T13:08:33.659505,8690,1.412837,0.251266,-0.087032,-0.037290,0.028323,0.984311
2011-09-26T13:08:33.669505,8700,1.399510,0.247546,-0.095995,-0.036952,0.030282,0.983635
2011-09-26T13:08:33.679505,8710,1.383778,0.244731,-0.104570,-0.036556,0.032371,0.983074
2011-09-26T13:08:33.689505,8720,1.368046,0.241917,-0.113146,-0.036159,0.034460,0.982513
2011-09-26T13:08:33.699505,8730,1.352314,0.239102,-0.121722,-0.035762,0.036549,0.981952
2011-09-26T13:08:33.709505,8740,1.336582,0.236288,-0.130297,-0.035366,0.038638,0.981390
2011-09-26T13:08:33.719505,8750,1.320851,0.233473,-0.138873,-0.034969,0.040728,0.980829
2011-09-26T13:08:33.729505,8760,1.305119,0.230659,-0.147448,-0.034572,0.042817,0.980268
2011-09-26T13:08:33.739505,8770,1.289387,0.227844,-0.156024,-0.034176,0.044906,0.979707
2011-09-26T13:08:33.749505,8780,1.273655,0.225029,-0.164599,-0.033779,0.046995,0.979145
2011-09-26T13:08:33.759505,8790,1.257923,0.222215,-0.173175,-0.033382,0.049084,0.978584
2011-09-26T13:08:33.769505,8800,1.242191,0.219400,-0.181751,-0.032986,0.051173,0.978023
2011-09-26T13:08:33.779505,8810,1.247741,0.212961,-0.224247,-0.033276,0.049872,0.980366
2011-09-26T13:08:33.789505,8820,1.254090,0.206385,-0.268016,-0.033591,0.048443,0.982817
2011-09-26T13:08:33.799505,8830,1.260440,0.199809,-0.311785,-0.033907,0.047014,0.985269
2011-09-26T13:08:33.809505,8840,1.266789,0.193233,-0.355555,-0.034222,0.045585,0.987721
2011-09-26T13:08:33.819505,8850,1.273139,0.186657,-0.399324,-0.034538,0.044156,0.990172
2011-09-26T13:08:33.829505,8860,1.279488,0.180081,-0.443094,-0.034853,0.042727,0.992624
2011-09-26T13:08:33.839505,8870,1.285837,0.173505,-0.486863,-0.035169,0.041298,0.995076
2011-09-26T13:08:33.849505,8880,1.292187,0.166929,-0.530632,-0.035484,0.039869,0.997527
2011-09-26T13:08:33.859505,8890,1.298536,0.160353,-0.574402,-0.035800,0.038440,0.999979
2011-09-26T13:08:33.869505,8900,1.304885,0.153777,-0.618171,-0.036115,0.037011,1.002431
2011-09-26T13:08:33.879505,8910,1.259505,0.178585,-0.655597,-0.036477,0.038302,1.001756
2011-09-26T13:08:33.889505,8920,1.212238,0.204538,-0.692792,-0.036840,0.039692,1.000967
2011-09-26T13:08:33.899505,8930,1.164970,0.230490,-0.729987,-0.037203,0.041083,1.000178
2011-09-26T13:08:33.909505,8940,1.117703,0.256443,-0.767182,-0.037566,0.042473,0.999389
2011-09-26T13:08:33.919505,8950,1.070435,0.282396,-0.804376,-0.037928,0.043864,0.998600
2011-09-26T13:08:33.929505,8960,1.023167,0.308349,-0.841571,-0.038291,0.045254,0.997811
2011-09-26T13:08:33.939505,8970,0.975900,0.334302,-0.878766,-0.038654,0.046645,0.997022
2011-09-26T13:08:33.949505,8980,0.928632,0.360254,-0.915961,-0.039017,0.048035,0.996233
2011-09-26T13:08:33.959505,8990,0.881365,0.386207,-0.953156,-0.039380,0.049425,0.995444
2011-09-26T13:08:33.969505,9000,0.834097,0.412160,-0.990350,-0.039743,0.050816,0.994655
2011-09-26T13:08:33.979505,9010,0.768500,0.326442,-1.003618,-0.039856,0.048779,0.994151
2011-09-26T13:08:33.989505,9020,0.702249,0.236735,-1.016031,-0.039959,0.046621,0.993656
2011-09-26T13:08:33.999505,9030,0.635997,0.147027,-1.028444,-0.040063,0.044462,0.993162
2011-09-26T13:08:34.009505,9040,0.569746,0.057320,-1.040856,-0.040167,0.042303,0.992668
2011-09-26T13:08:34.019505,9050,0.503494,-0.032388,-1.053269,-0.040270,0.040144,0.992173
2011-09-26T13:08:34.029505,9060,0.437243,-0.122095,-1.065682,-0.040374,0.037985,0.991679
2011-09-26T13:08:34.039505,9070,0.370991,-0.211803,-1.078095,-0.040478,0.035826,0.991185
2011-09-26T13:08:34.049505,9080,0.304740,-0.301510,-1.090507,-0.040581,0.033667,0.990690
2011-09-26T13:08:34.059505,9090,0.238488,-0.391218,-1.102920,-0.040685,0.031508,0.990196
2011-09-26T13:08:34.069505,9100,0.172237,-0.480925,-1.115333,-0.040789,0.029349,0.989702
2011-09-26T13:08:34.079505,9110,0.105985,-0.570633,-1.127746,-0.040892,0.027190,0.989207
2011-09-26T13:08:34.089505,9120,0.179728,-0.617364,-1.150233,-0.041145,0.025888,0.991080
2011-09-26T13:08:34.099505,9130,0.258848,-0.662445,-1.173107,-0.041404,0.024619,0.993044
2011-09-26T13:08:34.109505,9140,0.337968,-0.707526,-1.195981,-0.041663,0.023350,0.995008
2011-09-26T13:08:34.119505,9150,0.417088,-0.752607,-1.218856,-0.041922,0.022080,0.996972
2011-09-26T13:08:34.129505,9160,0.496208,-0.797688,-1.241730,-0.042181,0.020811,0.998936
2011-09-26T13:08:34.139505,9170,0.575328,-0.842769,-1.264604,-0.042439,0.019542,1.000900
2011-09-26T13:08:34.149505,9180,0.654448,-0.887850,-1.287478,-0.042698,0.018272,1.002864
2011-09-26T13:08:34.159505,9190,0.733567,-0.932931,-1.310352,-0.042957,0.017003,1.004828
2011-09-26T13:08:34.169505,9200,0.812687,-0.978012,-1.333226,-0.043216,0.015734,1.006792
2011-09-26T13:08:34.179505,9210,0.891807,-1.023093,-1.356100,-0.043475,0.014464,1.008756
2011-09-26T13:08:34.189505,9220,0.834803,-1.034973,-1.347146,-0.043957,0.017119,1.008247
2011-09-26T13:08:34.199505,9230,0.772835,-1.045642,-1.337032,-0.044448,0.019916,1.007647
2011-09-26T13:08:34.209505,9240,0.710867,-1.056312,-1.326917,-0.044939,0.022714,1.007048
2011-09-26T13:08:34.219505,9250,0.648900,-1.066981,-1.316802,-0.045430,0.025512,1.006448
2011-09-26T13:08:34.229505,9260,0.586932,-1.077650,-1.306687,-0.045921,0.028309,1.005849
2011-09-26T13:08:34.239505,9270,0.524964,-1.088319,-1.296573,-0.046411,0.031107,1.005250
2011-09-26T13:08:34.249505,9280,0.462996,-1.098988,-1.286458,-0.046902,0.033904,1.004650
2011-09-26T13:08:34.259505,9290,0.401029,-1.109658,-1.276343,-0.047393,0.036702,1.004051
2011-09-26T13:08:34.269505,9300,0.339061,-1.120327,-1.266228,-0.047884,0.039499,1.003451
2011-09-26T13:08:34.279505,9310,0.277093,-1.130996,-1.256114,-0.048375,0.042297,1.002852
2011-09-26T13:08:34.289505,9320,0.215125,-1.141665,-1.245999,-0.048865,0.045094,1.002253
2011-09-26T13:08:34.299505,9330,0.174023,-1.203251,-1.255315,-0.048196,0.042548,1.004428
2011-09-26T13:08:34.309505,9340,0.133792,-1.266963,-1.265442,-0.047479,0.039778,1.006719
2011-09-26T13:08:34.319505,9350,0.093560,-1.330676,-1.275569,-0.046762,0.037008,1.009010
2011-09-26T13:08:34.329505,9360,0.053329,-1.394388,-1.285696,-0.046045,0.034239,1.011301
2011-09-26T13:08:34.339505,9370,0.013098,-1.458100,-1.295823,-0.045327,0.031469,1.013591
2011-09-26T13:08:34.349505,9380,-0.027133,-1.521813,-1.305950,-0.044610,0.028700,1.015882
2011-09-26T13:08:34.359505,9390,-0.067364,-1.585525,-1.316077,-0.043893,0.025930,1.018173
2011-09-26T13:08:34.369505,9400,-0.107596,-1.649237,-1.326204,-0.043176,0.023160,1.020464
2011-09-26T13:08:34.379505,9410,-0.147827,-1.712950,-1.336331,-0.042458,0.020391,1.022755
2011-09-26T13:08:34.389505,9420,-0.188058,-1.776662,-1.346458,-0.041741,0.017621,1.025046
2011-09-26T13:08:34.399505,9430,-0.169326,-1.672512,-1.349458,-0.040578,0.018500,1.026798
2011-09-26T13:08:34.409505,9440,-0.148537,-1.562509,-1.352210,-0.039399,0.019506,1.028531
2011-09-26T13:08:34.419505,9450,-0.127749,-1.452506,-1.354962,-0.038220,0.020512,1.030263
2011-09-26T13:08:34.429505,9460,-0.106961,-1.342503,-1.357713,-0.037041,0.021518,1.031996
2011-09-26T13:08:34.439505,9470,-0.086172,-1.232500,-1.360465,-0.035862,0.022524,1.033729
2011-09-26T13:08:34.449505,9480,-0.065384,-1.122497,-1.363217,-0.034683,0.023531,1.035462
2011-09-26T13:08:34.459505,9490,-0.044596,-1.012494,-1.365969,-0.033504,0.024537,1.037195
2011-09-26T13:08:34.469505,9500,-0.023807,-0.902491,-1.368720,-0.032325,0.025543,1.038928
2011-09-26T13:08:34.479505,9510,-0.003019,-0.792488,-1.371472,-0.031146,0.026549,1.040660
2011-09-26T13:08:34.489505,9520,0.017769,-0.682485,-1.374224,-0.029967,0.027555,1.042393
2011-09-26T13:08:34.499505,9530,-0.004085,-0.512847,-1.364584,-0.029574,0.028789,1.040229
2011-09-26T13:08:34.509505,9540,-0.027590,-0.340900,-1.354465,-0.029211,0.030032,1.037914
2011-09-26T13:08:34.519505,9550,-0.051095,-0.168952,-1.344346,-0.028848,0.031274,1.035600
2011-09-26T13:08:34.529505,9560,-0.074600,0.002995,-1.334227,-0.028485,0.032517,1.033285
2011-09-26T13:08:34.539505,9570,-0.098106,0.174942,-1.324108,-0.028122,0.033760,1.030970
2011-09-26T13:08:34.549505,9580,-0.121611,0.346890,-1.313989,-0.027759,0.035002,1.028655
2011-09-26T13:08:34.559505,9590,-0.145116,0.518837,-1.303870,-0.027396,0.036245,1.026340
2011-09-26T13:08:34.569505,9600,-0.168621,0.690784,-1.293751,-0.027033,0.037488,1.024025
2011-09-26T13:08:34.579505,9610,-0.192127,0.862732,-1.283632,-0.026671,0.038730,1.021711
2011-09-26T13:08:34.589505,9620,-0.215632,1.034679,-1.273513,-0.026308,0.039973,1.019396
2011-09-26T13:08:34.599505,9630,-0.239137,1.206627,-1.263393,-0.025945,0.041216,1.017081
2011-09-26T13:08:34.609505,9640,-0.289427,1.224441,-1.247586,-0.024930,0.039754,1.012303
2011-09-26T13:08:34.619505,9650,-0.340839,1.235802,-1.231539,-0.023889,0.038178,1.007423
2011-09-26T13:08:34.629505,9660,-0.392251,1.247163,-1.215493,-0.022847,0.036603,1.002542
2011-09-26T13:08:34.639505,9670,-0.443663,1.258524,-1.199447,-0.021806,0.035028,0.997662
2011-09-26T13:08:34.649505,9680,-0.495074,1.269885,-1.183401,-0.020764,0.033452,0.992781
2011-09-26T13:08:34.659505,9690,-0.546486,1.281246,-1.167355,-0.019722,0.031877,0.987901
2011-09-26T13:08:34.669505,9700,-0.597898,1.292607,-1.151309,-0.018681,0.030302,0.983020
2011-09-26T13:08:34.679505,9710,-0.649310,1.303968,-1.135263,-0.017639,0.028726,0.978139
2011-09-26T13:08:34.689505,9720,-0.700722,1.315330,-1.119217,-0.016597,0.027151,0.973259
2011-09-26T13:08:34.699505,9730,-0.752133,1.326691,-1.103171,-0.015556,0.025576,0.968378
2011-09-26T13:08:34.709505,9740,-0.647181,1.218674,-1.070790,-0.014894,0.025096,0.968877
2011-09-26T13:08:34.719505,9750,-0.533358,1.103884,-1.037483,-0.014254,0.024679,0.969680
2011-09-26T13:08:34.729505,9760,-0.419535,0.989095,-1.004176,-0.013614,0.024262,0.970484
2011-09-26T13:08:34.739505,9770,-0.305711,0.874306,-0.970868,-0.012974,0.023845,0.971288
2011-09-26T13:08:34.749505,9780,-0.191888,0.759516,-0.937561,-0.012334,0.023428,0.972091
2011-09-26T13:08:34.759505,9790,-0.078065,0.644727,-0.904254,-0.011694,0.023011,0.972895
2011-09-26T13:08:34.769505,9800,0.035758,0.529937,-0.870946,-0.011054,0.022594,0.973699
2011-09-26T13:08:34.779505,9810,0.149581,0.415148,-0.837639,-0.010414,0.022177,0.974502
2011-09-26T13:08:34.789505,9820,0.263405,0.300359,-0.804332,-0.009774,0.021760,0.975306
2011-09-26T13:08:34.799505,9830,0.377228,0.185569,-0.771024,-0.009134,0.021343,0.976110
2011-09-26T13:08:34.809505,9840,0.375101,0.141124,-0.742359,-0.008495,0.023180,0.976460
2011-09-26T13:08:34.819505,9850,0.368206,0.099572,-0.713885,-0.007856,0.025109,0.976791
2011-09-26T13:08:34.829505,9860,0.361311,0.058019,-0.685411,-0.007217,0.027039,0.977122
2011-09-26T13:08:34.839505,9870,0.354416,0.016467,-0.656937,-0.006578,0.028968,0.977454
2011-09-26T13:08:34.849505,9880,0.347520,-0.025085,-0.628463,-0.005939,0.030897,0.977785
2011-09-26T13:08:34.859505,9890,0.340625,-0.066638,-0.599989,-0.005300,0.032827,0.978116
2011-09-26T13:08:34.869505,9900,0.333730,-0.108190,-0.571515,-0.004660,0.034756,0.978447
2011-09-26T13:08:34.879505,9910,0.326835,-0.149742,-0.543041,-0.004021,0.036685,0.978779
2011-09-26T13:08:34.889505,9920,0.319940,-0.191295,-0.514567,-0.003382,0.038615,0.979110
2011-09-26T13:08:34.899505,9930,0.313044,-0.232847,-0.486093,-0.002743,0.040544,0.979441
2011-09-26T13:08:34.909505,9940,0.306149,-0.274399,-0.457619,-0.002104,0.042474,0.979773
2011-09-26T13:08:34.919505,9950,0.349787,-0.295660,-0.415962,-0.001461,0.043265,0.982041
2011-09-26T13:08:34.929505,9960,0.395612,-0.316042,-0.373735,-0.000818,0.044007,0.984394
2011-09-26T13:08:34.939505,9970,0.441437,-0.336425,-0.331507,-0.000175,0.044750,0.986746
2011-09-26T13:08:34.949505,9980,0.487263,-0.356807,-0.289280,0.000468,0.045492,0.989099
2011-09-26T13:08:34.959505,9990,0.533088,-0.377189,-0.247052,0.001111,0.046234,0.991451
2011-09-26T13:08:34.969505,10000,0.578913,-0.397572,-0.204825,0.001754,0.046977,0.993803
2011-09-26T13:08:34.979505,10010,0.624738,-0.417954,-0.162598,0.002397,0.047719,0.996156
2011-09-26T13:08:34.989505,10020,0.670563,-0.438337,-0.120370,0.003040,0.048461,0.998508
2011-09-26T13:08:34.999505,10030,0.716388,-0.458719,-0.078143,0.003683,0.049204,1.000861
2011-09-26T13:08:35.009505,10040,0.762213,-0.479101,-0.035916,0.004326,0.049946,1.003213
2011-09-26T13:08:35.019505,10050,0.688153,-0.429925,-0.002565,0.004704,0.050791,1.003445
2011-09-26T13:08:35.029505,10060,0.609033,-0.377813,0.030411,0.005070,0.051640,1.003587
2011-09-26T13:08:35.039505,10070,0.529912,-0.325701,0.063387,0.005436,0.052490,1.003730
2011-09-26T13:08:35.049505,10080,0.450792,-0.273588,0.096363,0.005803,0.053339,1.003872
2011-09-26T13:08:35.059505,10090,0.371671,-0.221476,0.129339,0.006169,0.054188,1.004015
2011-09-26T13:08:35.069505,10100,0.292551,-0.169364,0.162315,0.006535,0.055037,1.004157
2011-09-26T13:08:35.079505,10110,0.213430,-0.117251,0.195291,0.006901,0.055887,1.004300
2011-09-26T13:08:35.089505,10120,0.134310,-0.065139,0.228267,0.007268,0.056736,1.004443
2011-09-26T13:08:35.099505,10130,0.055189,-0.013026,0.261243,0.007634,0.057585,1.004585
2011-09-26T13:08:35.109505,10140,-0.023931,0.039086,0.294219,0.008000,0.058435,1.004728
2011-09-26T13:08:35.119505,10150,-0.044793,0.048257,0.303531,0.007434,0.059088,1.004122
2011-09-26T13:08:35.129505,10160,-0.063267,0.055667,0.311872,0.006831,0.059734,1.003486
2011-09-26T13:08:35.139505,10170,-0.081740,0.063078,0.320214,0.006227,0.060380,1.002849
2011-09-26T13:08:35.149505,10180,-0.100214,0.070488,0.328555,0.005623,0.061025,1.002213
2011-09-26T13:08:35.159505,10190,-0.118688,0.077898,0.336897,0.005020,0.061671,1.001577
2011-09-26T13:08:35.169505,10200,-0.137162,0.085309,0.345238,0.004416,0.062317,1.000941
2011-09-26T13:08:35.179505,10210,-0.155635,0.092719,0.353580,0.003812,0.062962,1.000304
2011-09-26T13:08:35.189505,10220,-0.174109,0.100130,0.361921,0.003209,0.063608,0.999668
2011-09-26T13:08:35.199505,10230,-0.192583,0.107540,0.370263,0.002605,0.064254,0.999032
2011-09-26T13:08:35.209505,10240,-0.211057,0.114951,0.378604,0.002001,0.064899,0.998396
2011-09-26T13:08:35.219505,10250,-0.229530,0.122361,0.386946,0.001398,0.065545,0.997759
2011-09-26T13:08:35.229505,10260,-0.303429,0.115284,0.387960,0.001723,0.065986,0.996966
2011-09-26T13:08:35.239505,10270,-0.380665,0.107335,0.388534,0.002105,0.066414,0.996164
2011-09-26T13:08:35.249505,10280,-0.457901,0.099386,0.389108,0.002487,0.066842,0.995362
2011-09-26T13:08:35.259505,10290,-0.535137,0.091437,0.389681,0.002868,0.067271,0.994559
2011-09-26T13:08:35.269505,10300,-0.612372,0.083488,0.390255,0.003250,0.067699,0.993757
2011-09-26T13:08:35.279505,10310,-0.689608,0.075538,0.390828,0.003632,0.068128,0.992955
2011-09-26T13:08:35.289505,10320,-0.766844,0.067589,0.391402,0.004013,0.068556,0.992152
2011-09-26T13:08:35.299505,10330,-0.844080,0.059640,0.391976,0.004395,0.068984,0.991350
2011-09-26T13:08:35.309505,10340,-0.921315,0.051691,0.392549,0.004777,0.069413,0.990548
2011-09-26T13:08:35.319505,10350,-0.998551,0.043742,0.393123,0.005158,0.069841,0.989745
2011-09-26T13:08:35.329505,10360,-0.978340,0.033167,0.384598,0.004856,0.069341,0.989725
2011-09-26T13:08:35.339505,10370,-0.953614,0.022471,0.375651,0.004523,0.068798,0.989740
2011-09-26T13:08:35.349505,10380,-0.928888,0.011774,0.366704,0.004189,0.068256,0.989756
2011-09-26T13:08:35.359505,10390,-0.904162,0.001078,0.357757,0.003855,0.067713,0.989771
2011-09-26T13:08:35.369505,10400,-0.879436,-0.009619,0.348811,0.003521,0.067170,0.989787
2011-09-26T13:08:35.379505,10410,-0.854710,-0.020315,0.339864,0.003188,0.066627,0.989803
2011-09-26T13:08:35.389505,10420,-0.829984,-0.031012,0.330917,0.002854,0.066084,0.989818
2011-09-26T13:08:35.399505,10430,-0.805258,-0.041708,0.321970,0.002520,0.065542,0.989834
2011-09-26T13:08:35.409505,10440,-0.780532,-0.052404,0.313024,0.002186,0.064999,0.989849
2011-09-26T13:08:35.419505,10450,-0.755806,-0.063101,0.304077,0.001853,0.064456,0.989865
2011-09-26T13:08:35.429505,10460,-0.823956,-0.061984,0.307237,0.001235,0.064429,0.991852
2011-09-26T13:08:35.439505,10470,-0.895875,-0.060388,0.310888,0.000607,0.064423,0.993919
2011-09-26T13:08:35.449505,10480,-0.967793,-0.058792,0.314539,-0.000022,0.064417,0.995985
2011-09-26T13:08:35.459505,10490,-1.039712,-0.057196,0.318191,-0.000651,0.064411,0.998052
2011-09-26T13:08:35.469505,10500,-1.111631,-0.055600,0.321842,-0.001280,0.064405,1.000119
2011-09-26T13:08:35.479505,10510,-1.183549,-0.054003,0.325493,-0.001908,0.064399,1.002186
2011-09-26T13:08:35.489505,10520,-1.255468,-0.052407,0.329144,-0.002537,0.064393,1.004253
2011-09-26T13:08:35.499505,10530,-1.327386,-0.050811,0.332795,-0.003166,0.064388,1.006319
2011-09-26T13:08:35.509505,10540,-1.399305,-0.049215,0.336447,-0.003794,0.064382,1.008386
2011-09-26T13:08:35.519505,10550,-1.471224,-0.047619,0.340098,-0.004423,0.064376,1.010453
2011-09-26T13:08:35.529505,10560,-1.543142,-0.046023,0.343749,-0.005052,0.064370,1.012520
2011-09-26T13:08:35.539505,10570,-1.490768,-0.052464,0.349166,-0.006425,0.062420,1.010697
2011-09-26T13:08:35.549505,10580,-1.432998,-0.059254,0.354660,-0.007831,0.060387,1.008705
2011-09-26T13:08:35.559505,10590,-1.375228,-0.066045,0.360153,-0.009237,0.058353,1.006713
2011-09-26T13:08:35.569505,10600,-1.317459,-0.072835,0.365647,-0.010643,0.056320,1.004721
2011-09-26T13:08:35.579505,10610,-1.259689,-0.079625,0.371141,-0.012048,0.054286,1.002728
2011-09-26T13:08:35.589505,10620,-1.201919,-0.086415,0.376634,-0.013454,0.052252,1.000736
2011-09-26T13:08:35.599505,10630,-1.144149,-0.093206,0.382128,-0.014860,0.050219,0.998744
2011-09-26T13:08:35.609505,10640,-1.086380,-0.099996,0.387622,-0.016265,0.048185,0.996752
2011-09-26T13:08:35.619505,10650,-1.028610,-0.106786,0.393115,-0.017671,0.046151,0.994760
2011-09-26T13:08:35.629505,10660,-0.970840,-0.113576,0.398609,-0.019077,0.044118,0.992768
2011-09-26T13:08:35.639505,10670,-0.981802,-0.071167,0.390632,-0.019157,0.046041,0.994037
2011-09-26T13:08:35.649505,10680,-0.995806,-0.026580,0.382059,-0.019179,0.048139,0.995450
2011-09-26T13:08:35.659505,10690,-1.009809,0.018007,0.373486,-0.019201,0.050238,0.996863
2011-09-26T13:08:35.669505,10700,-1.023813,0.062594,0.364913,-0.019223,0.052336,0.998276
2011-09-26T13:08:35.679505,10710,-1.037816,0.107181,0.356339,-0.019245,0.054434,0.999689
2011-09-26T13:08:35.689505,10720,-1.051820,0.151768,0.347766,-0.019267,0.056533,1.001103
2011-09-26T13:08:35.699505,10730,-1.065824,0.196355,0.339193,-0.019288,0.058631,1.002516
2011-09-26T13:08:35.709505,10740,-1.079827,0.240942,0.330620,-0.019310,0.060729,1.003929
2011-09-26T13:08:35.719505,10750,-1.093831,0.285528,0.322047,-0.019332,0.062828,1.005342
2011-09-26T13:08:35.729505,10760,-1.107834,0.330115,0.313474,-0.019354,0.064926,1.006755
2011-09-26T13:08:35.739505,10770,-1.138024,0.339346,0.311078,-0.020279,0.063669,1.006529
2011-09-26T13:08:35.749505,10780,-1.168942,0.346986,0.308960,-0.021245,0.062262,1.006230
2011-09-26T13:08:35.759505,10790,-1.199860,0.354625,0.306843,-0.022211,0.060854,1.005931
2011-09-26T13:08:35.769505,10800,-1.230778,0.362265,0.304725,-0.023178,0.059446,1.005631
2011-09-26T13:08:35.779505,10810,-1.261696,0.369905,0.302607,-0.024144,0.058039,1.005332
2011-09-26T13:08:35.789505,10820,-1.292614,0.377544,0.300490,-0.025110,0.056631,1.005033
2011-09-26T13:08:35.799505,10830,-1.323532,0.385184,0.298372,-0.026076,0.055223,1.004733
2011-09-26T13:08:35.809505,10840,-1.354450,0.392823,0.296254,-0.027042,0.053815,1.004434
2011-09-26T13:08:35.819505,10850,-1.385368,0.400463,0.294137,-0.028008,0.052408,1.004135
2011-09-26T13:08:35.829505,10860,-1.416286,0.408103,0.292019,-0.028974,0.051000,1.003836
2011-09-26T13:08:35.839505,10870,-1.447204,0.415742,0.289902,-0.029940,0.049592,1.003536
2011-09-26T13:08:35.849505,10880,-1.433238,0.409911,0.274964,-0.031581,0.049197,1.002312
2011-09-26T13:08:35.859505,10890,-1.417186,0.403454,0.259430,-0.033253,0.048849,1.001045
2011-09-26T13:08:35.869505,10900,-1.401135,0.396997,0.243897,-0.034925,0.048501,0.999778
2011-09-26T13:08:35.879505,10910,-1.385083,0.390540,0.228363,-0.036597,0.048153,0.998511
2011-09-26T13:08:35.889505,10920,-1.369031,0.384083,0.212830,-0.038268,0.047805,0.997244
2011-09-26T13:08:35.899505,10930,-1.352980,0.377627,0.197297,-0.039940,0.047457,0.995977
2011-09-26T13:08:35.909505,10940,-1.336928,0.371170,0.181763,-0.041612,0.047109,0.994710
2011-09-26T13:08:35.919505,10950,-1.320877,0.364713,0.166230,-0.043284,0.046761,0.993442
2011-09-26T13:08:35.929505,10960,-1.304825,0.358256,0.150697,-0.044956,0.046413,0.992175
2011-09-26T13:08:35.939505,10970,-1.288774,0.351799,0.135163,-0.046628,0.046065,0.990908
2011-09-26T13:08:35.949505,10980,-1.244262,0.302091,0.128389,-0.045083,0.045972,0.990688
2011-09-26T13:08:35.959505,10990,-1.198556,0.250568,0.121983,-0.043403,0.045889,0.990512
2011-09-26T13:08:35.969505,11000,-1.152849,0.199046,0.115577,-0.041723,0.045806,0.990336
2011-09-26T13:08:35.979505,11010,-1.107143,0.147523,0.109171,-0.040044,0.045723,0.990159
2011-09-26T13:08:35.989505,11020,-1.061436,0.096000,0.102765,-0.038364,0.045640,0.989983
2011-09-26T13:08:35.999505,11030,-1.015730,0.044477,0.096359,-0.036684,0.045557,0.989807
2011-09-26T13:08:36.009505,11040,-0.970024,-0.007046,0.089953,-0.035004,0.045474,0.989631
2011-09-26T13:08:36.019505,11050,-0.924317,-0.058569,0.083547,-0.033324,0.045391,0.989454
2011-09-26T13:08:36.029505,11060,-0.878611,-0.110092,0.077141,-0.031644,0.045308,0.989278
2011-09-26T13:08:36.039505,11070,-0.832904,-0.161615,0.070735,-0.029964,0.045226,0.989102
2011-09-26T13:08:36.049505,11080,-0.901791,-0.183438,0.064823,-0.030266,0.044953,0.990219
2011-09-26T13:08:36.059505,11090,-0.976302,-0.203803,0.058935,-0.030665,0.044672,0.991399
2011-09-26T13:08:36.069505,11100,-1.050813,-0.224169,0.053047,-0.031064,0.044390,0.992580
2011-09-26T13:08:36.079505,11110,-1.125323,-0.244535,0.047159,-0.031463,0.044108,0.993760
2011-09-26T13:08:36.089505,11120,-1.199834,-0.264900,0.041271,-0.031862,0.043827,0.994941
2011-09-26T13:08:36.099505,11130,-1.274344,-0.285266,0.035383,-0.032261,0.043545,0.996121
2011-09-26T13:08:36.109505,11140,-1.348855,-0.305631,0.029495,-0.032660,0.043263,0.997302
2011-09-26T13:08:36.119505,11150,-1.423366,-0.325997,0.023607,-0.033059,0.042982,0.998482
2011-09-26T13:08:36.129505,11160,-1.497876,-0.346362,0.017718,-0.033458,0.042700,0.999663
2011-09-26T13:08:36.139505,11170,-1.572387,-0.366728,0.011830,-0.033857,0.042418,1.000843
2011-09-26T13:08:36.149505,11180,-1.646897,-0.387094,0.005942,-0.034257,0.042137,1.002024
2011-09-26T13:08:36.159505,11190,-1.599111,-0.389159,0.014681,-0.034438,0.040458,1.002124
2011-09-26T13:08:36.169505,11200,-1.545536,-0.390358,0.024111,-0.034610,0.038714,1.002173
2011-09-26T13:08:36.179505,11210,-1.491962,-0.391557,0.033542,-0.034781,0.036969,1.002222
2011-09-26T13:08:36.189505,11220,-1.438387,-0.392757,0.042972,-0.034952,0.035224,1.002271
2011-09-26T13:08:36.199505,11230,-1.384813,-0.393956,0.052403,-0.035124,0.033480,1.002320
2011-09-26T13:08:36.209505,11240,-1.331238,-0.395155,0.061833,-0.035295,0.031735,1.002369
2011-09-26T13:08:36.219505,11250,-1.277664,-0.396354,0.071264,-0.035467,0.029990,1.002417
2011-09-26T13:08:36.229505,11260,-1.224089,-0.397554,0.080694,-0.035638,0.028246,1.002466
2011-09-26T13:08:36.239505,11270,-1.170514,-0.398753,0.090125,-0.035810,0.026501,1.002515
2011-09-26T13:08:36.249505,11280,-1.116940,-0.399952,0.099555,-0.035981,0.024756,1.002564
2011-09-26T13:08:36.259505,11290,-1.038822,-0.414293,0.093160,-0.036016,0.026417,1.004307
2011-09-26T13:08:36.269505,11300,-0.959237,-0.429420,0.085819,-0.036044,0.028280,1.006151
2011-09-26T13:08:36.279505,11310,-0.879652,-0.444546,0.078479,-0.036071,0.030144,1.007995
2011-09-26T13:08:36.289505,11320,-0.800068,-0.459673,0.071138,-0.036099,0.032008,1.009839
2011-09-26T13:08:36.299505,11330,-0.720483,-0.474799,0.063797,-0.036126,0.033871,1.011683
2011-09-26T13:08:36.309505,11340,-0.640898,-0.489925,0.056456,-0.036153,0.035735,1.013527
2011-09-26T13:08:36.319505,11350,-0.561314,-0.505052,0.049116,-0.036181,0.037598,1.015371
2011-09-26T13:08:36.329505,11360,-0.481729,-0.520178,0.041775,-0.036208,0.039462,1.017215
2011-09-26T13:08:36.339505,11370,-0.402145,-0.535304,0.034434,-0.036235,0.041326,1.019059
2011-09-26T13:08:36.349505,11380,-0.322560,-0.550431,0.027094,-0.036263,0.043189,1.020904
2011-09-26T13:08:36.359505,11390,-0.345291,-0.465160,0.018782,-0.035929,0.041969,1.018658
2011-09-26T13:08:36.369505,11400,-0.374182,-0.373844,0.010413,-0.035574,0.040563,1.016167
2011-09-26T13:08:36.379505,11410,-0.403072,-0.282528,0.002043,-0.035218,0.039156,1.013676
2011-09-26T13:08:36.389505,11420,-0.431963,-0.191213,-0.006327,-0.034863,0.037750,1.011184
2011-09-26T13:08:36.399505,11430,-0.460854,-0.099897,-0.014696,-0.034507,0.036344,1.008693
2011-09-26T13:08:36.409505,11440,-0.489745,-0.008581,-0.023066,-0.034152,0.034938,1.006202
2011-09-26T13:08:36.419505,11450,-0.518635,0.082735,-0.031435,-0.033797,0.033531,1.003710
2011-09-26T13:08:36.429505,11460,-0.547526,0.174050,-0.039805,-0.033441,0.032125,1.001219
2011-09-26T13:08:36.439505,11470,-0.576417,0.265366,-0.048175,-0.033086,0.030719,0.998728
2011-09-26T13:08:36.449505,11480,-0.605308,0.356682,-0.056544,-0.032730,0.029313,0.996237
2011-09-26T13:08:36.459505,11490,-0.634199,0.447997,-0.064914,-0.032375,0.027906,0.993745
2011-09-26T13:08:36.469505,11500,-0.608312,0.490821,-0.057481,-0.033483,0.027835,0.996004
2011-09-26T13:08:36.479505,11510,-0.579593,0.531137,-0.049230,-0.034667,0.027833,0.998509
2011-09-26T13:08:36.489505,11520,-0.550874,0.571453,-0.040980,-0.035850,0.027831,1.001013
2011-09-26T13:08:36.499505,11530,-0.522155,0.611769,-0.032729,-0.037034,0.027829,1.003518
2011-09-26T13:08:36.509505,11540,-0.493436,0.652084,-0.024479,-0.038218,0.027826,1.006022
2011-09-26T13:08:36.519505,11550,-0.464716,0.692400,-0.016229,-0.039402,0.027824,1.008527
2011-09-26T13:08:36.529505,11560,-0.435997,0.732716,-0.007978,-0.040585,0.027822,1.011031
2011-09-26T13:08:36.539505,11570,-0.407278,0.773032,0.000272,-0.041769,0.027820,1.013536
2011-09-26T13:08:36.549505,11580,-0.378559,0.813348,0.008523,-0.042953,0.027818,1.016041
2011-09-26T13:08:36.559505,11590,-0.349840,0.853664,0.016773,-0.044136,0.027816,1.018545
2011-09-26T13:08:36.569505,11600,-0.367657,0.828364,-0.000447,-0.043876,0.028772,1.014530
2011-09-26T13:08:36.579505,11610,-0.387553,0.800133,-0.018804,-0.043550,0.029771,1.010224
2011-09-26T13:08:36.589505,11620,-0.407449,0.771901,-0.037162,-0.043225,0.030770,1.005917
2011-09-26T13:08:36.599505,11630,-0.427345,0.743670,-0.055520,-0.042900,0.031769,1.001611
2011-09-26T13:08:36.609505,11640,-0.447242,0.715439,-0.073878,-0.042575,0.032768,0.997304
2011-09-26T13:08:36.619505,11650,-0.467138,0.687207,-0.092236,-0.042249,0.033767,0.992998
2011-09-26T13:08:36.629505,11660,-0.487034,0.658976,-0.110593,-0.041924,0.034766,0.988692
2011-09-26T13:08:36.639505,11670,-0.506930,0.630744,-0.128951,-0.041599,0.035765,0.984385
2011-09-26T13:08:36.649505,11680,-0.526826,0.602513,-0.147309,-0.041274,0.036764,0.980079
2011-09-26T13:08:36.659505,11690,-0.546723,0.574281,-0.165667,-0.040949,0.037763,0.975772
2011-09-26T13:08:36.669505,11700,-0.579783,0.475805,-0.179280,-0.041039,0.037451,0.976445
2011-09-26T13:08:36.679505,11710,-0.613565,0.373478,-0.192633,-0.041152,0.037066,0.977391
2011-09-26T13:08:36.689505,11720,-0.647348,0.271151,-0.205986,-0.041266,0.036682,0.978337
2011-09-26T13:08:36.699505,11730,-0.681130,0.168824,-0.219339,-0.041379,0.036297,0.979283
2011-09-26T13:08:36.709505,11740,-0.714912,0.066497,-0.232691,-0.041492,0.035913,0.980229
2011-09-26T13:08:36.719505,11750,-0.748695,-0.035830,-0.246044,-0.041606,0.035528,0.981174
2011-09-26T13:08:36.729505,11760,-0.782477,-0.138157,-0.259397,-0.041719,0.035144,0.982120
2011-09-26T13:08:36.739505,11770,-0.816259,-0.240484,-0.272750,-0.041832,0.034759,0.983066
2011-09-26T13:08:36.749505,11780,-0.850041,-0.342811,-0.286103,-0.041946,0.034375,0.984012
2011-09-26T13:08:36.759505,11790,-0.883824,-0.445138,-0.299456,-0.042059,0.033990,0.984958
2011-09-26T13:08:36.769505,11800,-0.917606,-0.547465,-0.312809,-0.042173,0.033606,0.985904
2011-09-26T13:08:36.779505,11810,-0.916355,-0.533237,-0.305086,-0.041851,0.032091,0.988155
2011-09-26T13:08:36.789505,11820,-0.913264,-0.512886,-0.296257,-0.041507,0.030518,0.990474
2011-09-26T13:08:36.799505,11830,-0.910173,-0.492535,-0.287427,-0.041162,0.028944,0.992794
2011-09-26T13:08:36.809505,11840,-0.907082,-0.472184,-0.278597,-0.040818,0.027370,0.995113
2011-09-26T13:08:36.819505,11850,-0.903991,-0.451833,-0.269768,-0.040474,0.025796,0.997432
2011-09-26T13:08:36.829505,11860,-0.900900,-0.431483,-0.260938,-0.040130,0.024222,0.999752
2011-09-26T13:08:36.839505,11870,-0.897809,-0.411132,-0.252108,-0.039785,0.022649,1.002071
2011-09-26T13:08:36.849505,11880,-0.894718,-0.390781,-0.243279,-0.039441,0.021075,1.004391
2011-09-26T13:08:36.859505,11890,-0.891626,-0.370430,-0.234449,-0.039097,0.019501,1.006710
2011-09-26T13:08:36.869505,11900,-0.888535,-0.350079,-0.225620,-0.038752,0.017927,1.009030
2011-09-26T13:08:36.879505,11910,-0.837988,-0.288161,-0.235674,-0.039155,0.017624,1.010039
2011-09-26T13:08:36.889505,11920,-0.785013,-0.224116,-0.246694,-0.039596,0.017385,1.010981
2011-09-26T13:08:36.899505,11930,-0.732038,-0.160071,-0.257714,-0.040037,0.017146,1.011923
2011-09-26T13:08:36.909505,11940,-0.679062,-0.096026,-0.268735,-0.040478,0.016908,1.012865
2011-09-26T13:08:36.919505,11950,-0.626087,-0.031981,-0.279755,-0.040919,0.016669,1.013807
2011-09-26T13:08:36.929505,11960,-0.573111,0.032064,-0.290775,-0.041360,0.016431,1.014749
2011-09-26T13:08:36.939505,11970,-0.520136,0.096109,-0.301796,-0.041801,0.016192,1.015691
2011-09-26T13:08:36.949505,11980,-0.467161,0.160155,-0.312816,-0.042242,0.015954,1.016633
2011-09-26T13:08:36.959505,11990,-0.414185,0.224200,-0.323836,-0.042683,0.015715,1.017575
2011-09-26T13:08:36.969505,12000,-0.361210,0.288245,-0.334857,-0.043124,0.015477,1.018517
2011-09-26T13:08:36.979505,12010,-0.308234,0.352290,-0.345877,-0.043564,0.015238,1.019459
2011-09-26T13:08:36.989505,12020,-0.297214,0.380473,-0.345540,-0.043885,0.015580,1.017175
2011-09-26T13:08:36.999505,12030,-0.288309,0.406849,-0.344630,-0.044198,0.015952,1.014729
2011-09-26T13:08:37.009505,12040,-0.279404,0.433224,-0.343720,-0.044512,0.016323,1.012283
2011-09-26T13:08:37.019505,12050,-0.270499,0.459599,-0.342810,-0.044826,0.016694,1.009837
2011-09-26T13:08:37.029505,12060,-0.261594,0.485975,-0.341900,-0.045140,0.017066,1.007391
2011-09-26T13:08:37.039505,12070,-0.252689,0.512350,-0.340991,-0.045454,0.017437,1.004945
2011-09-26T13:08:37.049505,12080,-0.243784,0.538726,-0.340081,-0.045768,0.017809,1.002499
2011-09-26T13:08:37.059505,12090,-0.234879,0.565101,-0.339171,-0.046082,0.018180,1.000053
2011-09-26T13:08:37.069505,12100,-0.225974,0.591476,-0.338261,-0.046396,0.018551,0.997607
2011-09-26T13:08:37.079505,12110,-0.217069,0.617852,-0.337351,-0.046710,0.018923,0.995161
2011-09-26T13:08:37.089505,12120,-0.138502,0.669798,-0.334431,-0.047130,0.017410,0.994861
2011-09-26T13:08:37.099505,12130,-0.056386,0.723048,-0.331408,-0.047556,0.015800,0.994669
2011-09-26T13:08:37.109505,12140,0.025731,0.776298,-0.328385,-0.047981,0.014191,0.994478
2011-09-26T13:08:37.119505,12150,0.107848,0.829547,-0.325362,-0.048407,0.012581,0.994287
2011-09-26T13:08:37.129505,12160,0.189964,0.882797,-0.322339,-0.048833,0.010972,0.994096
2011-09-26T13:08:37.139505,12170,0.272081,0.936047,-0.319316,-0.049258,0.009362,0.993904
2011-09-26T13:08:37.149505,12180,0.354197,0.989296,-0.316293,-0.049684,0.007753,0.993713
2011-09-26T13:08:37.159505,12190,0.436314,1.042546,-0.313270,-0.050110,0.006144,0.993522
2011-09-26T13:08:37.169505,12200,0.518430,1.095796,-0.310248,-0.050535,0.004534,0.993331
2011-09-26T13:08:37.179505,12210,0.600547,1.149045,-0.307225,-0.050961,0.002925,0.993140
2011-09-26T13:08:37.189505,12220,0.679233,1.156975,-0.291894,-0.051533,0.004291,0.992577
2011-09-26T13:08:37.199505,12230,0.757662,1.161511,-0.275642,-0.052115,0.005880,0.991986
2011-09-26T13:08:37.209505,12240,0.836092,1.166046,-0.259390,-0.052698,0.007470,0.991395
2011-09-26T13:08:37.219505,12250,0.914521,1.170582,-0.243137,-0.053281,0.009059,0.990804
2011-09-26T13:08:37.229505,12260,0.992950,1.175117,-0.226885,-0.053864,0.010648,0.990213
2011-09-26T13:08:37.239505,12270,1.071380,1.179653,-0.210633,-0.054446,0.012237,0.989623
2011-09-26T13:08:37.249505,12280,1.149809,1.184188,-0.194380,-0.055029,0.013826,0.989032
2011-09-26T13:08:37.259505,12290,1.228238,1.188724,-0.178128,-0.055612,0.015416,0.988441
2011-09-26T13:08:37.269505,12300,1.306668,1.193259,-0.161876,-0.056195,0.017005,0.987850
2011-09-26T13:08:37.279505,12310,1.385097,1.197795,-0.145624,-0.056777,0.018594,0.987260
2011-09-26T13:08:37.289505,12320,1.463526,1.202331,-0.129371,-0.057360,0.020183,0.986669
2011-09-26T13:08:37.299505,12330,1.395238,1.071712,-0.130486,-0.058116,0.021477,0.984034
2011-09-26T13:08:37.309505,12340,1.318117,0.932957,-0.132647,-0.058882,0.022752,0.981277
2011-09-26T13:08:37.319505,12350,1.240995,0.794202,-0.134808,-0.059648,0.024028,0.978520
2011-09-26T13:08:37.329505,12360,1.163873,0.655447,-0.136969,-0.060414,0.025303,0.975762
2011-09-26T13:08:37.339505,12370,1.086752,0.516692,-0.139130,-0.061180,0.026578,0.973005
2011-09-26T13:08:37.349505,12380,1.009630,0.377937,-0.141291,-0.061946,0.027854,0.970247
2011-09-26T13:08:37.359505,12390,0.932509,0.239182,-0.143451,-0.062712,0.029129,0.967490
2011-09-26T13:08:37.369505,12400,0.855387,0.100427,-0.145612,-0.063478,0.030405,0.964733
2011-09-26T13:08:37.379505,12410,0.778266,-0.038329,-0.147773,-0.064244,0.031680,0.961975
2011-09-26T13:08:37.389505,12420,0.701144,-0.177084,-0.149934,-0.065010,0.032956,0.959218
2011-09-26T13:08:37.399505,12430,0.731035,-0.242855,-0.143289,-0.064404,0.032355,0.962643
2011-09-26T13:08:37.409505,12440,0.766357,-0.304923,-0.136198,-0.063729,0.031659,0.966383
2011-09-26T13:08:37.419505,12450,0.801678,-0.366991,-0.129106,-0.063053,0.030963,0.970122
2011-09-26T13:08:37.429505,12460,0.837000,-0.429059,-0.122015,-0.062378,0.030266,0.973861
2011-09-26T13:08:37.439505,12470,0.872321,-0.491128,-0.114923,-0.061703,0.029570,0.977600
2011-09-26T13:08:37.449505,12480,0.907643,-0.553196,-0.107832,-0.061027,0.028874,0.981339
2011-09-26T13:08:37.459505,12490,0.942964,-0.615264,-0.100740,-0.060352,0.028178,0.985078
2011-09-26T13:08:37.469505,12500,0.978285,-0.677332,-0.093649,-0.059677,0.027482,0.988817
2011-09-26T13:08:37.479505,12510,1.013607,-0.739400,-0.086558,-0.059001,0.026786,0.992557
2011-09-26T13:08:37.489505,12520,1.048928,-0.801468,-0.079466,-0.058326,0.026090,0.996296
2011-09-26T13:08:37.499505,12530,1.037696,-0.753501,-0.081677,-0.057178,0.026032,0.999249
2011-09-26T13:08:37.509505,12540,1.024019,-0.699754,-0.084376,-0.056005,0.026007,1.002160
2011-09-26T13:08:37.519505,12550,1.010343,-0.646007,-0.087075,-0.054833,0.025983,1.005071
2011-09-26T13:08:37.529505,12560,0.996666,-0.592260,-0.089774,-0.053660,0.025958,1.007983
2011-09-26T13:08:37.539505,12570,0.982989,-0.538513,-0.092473,-0.052487,0.025934,1.010894
2011-09-26T13:08:37.549505,12580,0.969312,-0.484766,-0.095173,-0.051315,0.025909,1.013806
2011-09-26T13:08:37.559505,12590,0.955635,-0.431019,-0.097872,-0.050142,0.025885,1.016717
2011-09-26T13:08:37.569505,12600,0.941958,-0.377272,-0.100571,-0.048969,0.025860,1.019629
2011-09-26T13:08:37.579505,12610,0.928281,-0.323525,-0.103270,-0.047797,0.025836,1.022540
2011-09-26T13:08:37.589505,12620,0.914604,-0.269778,-0.105969,-0.046624,0.025811,1.025452
2011-09-26T13:08:37.599505,12630,0.900927,-0.216031,-0.108669,-0.045452,0.025787,1.028363
2011-09-26T13:08:37.609505,12640,0.913362,-0.048295,-0.131220,-0.046156,0.027657,1.025629
2011-09-26T13:08:37.619505,12650,0.927416,0.126510,-0.155003,-0.046976,0.029646,1.022546
2011-09-26T13:08:37.629505,12660,0.941470,0.301315,-0.178786,-0.047797,0.031634,1.019462
2011-09-26T13:08:37.639505,12670,0.955524,0.476120,-0.202569,-0.048618,0.033622,1.016378
2011-09-26T13:08:37.649505,12680,0.969578,0.650926,-0.226351,-0.049438,0.035610,1.013295
2011-09-26T13:08:37.659505,12690,0.983631,0.825731,-0.250134,-0.050259,0.037598,1.010211
2011-09-26T13:08:37.669505,12700,0.997685,1.000536,-0.273917,-0.051080,0.039587,1.007127
2011-09-26T13:08:37.679505,12710,1.011739,1.175341,-0.297700,-0.051900,0.041575,1.004044
2011-09-26T13:08:37.689505,12720,1.025793,1.350146,-0.321483,-0.052721,0.043563,1.000960
2011-09-26T13:08:37.699505,12730,1.039847,1.524951,-0.345266,-0.053542,0.045551,0.997876
2011-09-26T13:08:37.709505,12740,0.869754,1.538819,-0.335082,-0.055011,0.044938,0.987642
2011-09-26T13:08:37.719505,12750,0.686138,1.540868,-0.322405,-0.056528,0.044133,0.976883
2011-09-26T13:08:37.729505,12760,0.502523,1.542917,-0.309727,-0.058044,0.043328,0.966124
2011-09-26T13:08:37.739505,12770,0.318907,1.544967,-0.297049,-0.059561,0.042524,0.955365
2011-09-26T13:08:37.749505,12780,0.135291,1.547016,-0.284372,-0.061078,0.041719,0.944605
2011-09-26T13:08:37.759505,12790,-0.048324,1.549065,-0.271694,-0.062594,0.040914,0.933846
2011-09-26T13:08:37.769505,12800,-0.231940,1.551115,-0.259017,-0.064111,0.040109,0.923087
2011-09-26T13:08:37.779505,12810,-0.415555,1.553164,-0.246339,-0.065628,0.039305,0.912328
2011-09-26T13:08:37.789505,12820,-0.599171,1.555213,-0.233661,-0.067144,0.038500,0.901569
2011-09-26T13:08:37.799505,12830,-0.782787,1.557262,-0.220984,-0.068661,0.037695,0.890810
2011-09-26T13:08:37.809505,12840,-0.640435,1.413799,-0.199350,-0.069044,0.038269,0.899817
2011-09-26T13:08:37.819505,12850,-0.479546,1.262061,-0.177207,-0.069362,0.038921,0.909948
2011-09-26T13:08:37.829505,12860,-0.318657,1.110322,-0.155064,-0.069681,0.039573,0.920079
2011-09-26T13:08:37.839505,12870,-0.157768,0.958584,-0.132921,-0.069999,0.040226,0.930210
2011-09-26T13:08:37.849505,12880,0.003121,0.806845,-0.110778,-0.070318,0.040878,0.940341
2011-09-26T13:08:37.859505,12890,0.164010,0.655107,-0.088635,-0.070636,0.041530,0.950472
2011-09-26T13:08:37.869505,12900,0.324899,0.503369,-0.066492,-0.070954,0.042182,0.960604
2011-09-26T13:08:37.879505,12910,0.485788,0.351630,-0.044349,-0.071273,0.042835,0.970735
2011-09-26T13:08:37.889505,12920,0.646677,0.199892,-0.022206,-0.071591,0.043487,0.980866
2011-09-26T13:08:37.899505,12930,0.807565,0.048153,-0.000063,-0.071909,0.044139,0.990997
2011-09-26T13:08:37.909505,12940,0.968454,-0.103585,0.022080,-0.072228,0.044792,1.001128
2011-09-26T13:08:37.919505,12950,0.926655,-0.135812,0.037266,-0.070419,0.045167,1.001503
2011-09-26T13:08:37.929505,12960,0.873671,-0.161444,0.052068,-0.068492,0.045527,1.001339
2011-09-26T13:08:37.939505,12970,0.820687,-0.187076,0.066871,-0.066566,0.045886,1.001176
2011-09-26T13:08:37.949505,12980,0.767703,-0.212708,0.081673,-0.064640,0.046246,1.001012
2011-09-26T13:08:37.959505,12990,0.714719,-0.238340,0.096475,-0.062713,0.046606,1.000849
2011-09-26T13:08:37.969505,13000,0.661734,-0.263972,0.111278,-0.060787,0.046966,1.000685
2011-09-26T13:08:37.979505,13010,0.608750,-0.289603,0.126080,-0.058860,0.047326,1.000522
2011-09-26T13:08:37.989505,13020,0.555766,-0.315235,0.140883,-0.056934,0.047686,1.000358
2011-09-26T13:08:37.999505,13030,0.502782,-0.340867,0.155685,-0.055008,0.048046,1.000195
2011-09-26T13:08:38.009505,13040,0.449798,-0.366499,0.170487,-0.053081,0.048405,1.000031
2011-09-26T13:08:38.019505,13050,0.424455,-0.308133,0.146586,-0.053265,0.046475,1.000494
2011-09-26T13:08:38.029505,13060,0.400603,-0.245237,0.120598,-0.053563,0.044421,1.000989
2011-09-26T13:08:38.039505,13070,0.376750,-0.182341,0.094609,-0.053860,0.042367,1.001485
2011-09-26T13:08:38.049505,13080,0.352898,-0.119445,0.068621,-0.054158,0.040313,1.001981
2011-09-26T13:08:38.059505,13090,0.329046,-0.056549,0.042632,-0.054456,0.038259,1.002477
2011-09-26T13:08:38.069505,13100,0.305193,0.006347,0.016644,-0.054753,0.036206,1.002973
2011-09-26T13:08:38.079505,13110,0.281341,0.069243,-0.009344,-0.055051,0.034152,1.003469
2011-09-26T13:08:38.089505,13120,0.257489,0.132139,-0.035333,-0.055349,0.032098,1.003965
2011-09-26T13:08:38.099505,13130,0.233636,0.195035,-0.061321,-0.055646,0.030044,1.004461
2011-09-26T13:08:38.109505,13140,0.209784,0.257931,-0.087310,-0.055944,0.027990,1.004957
2011-09-26T13:08:38.119505,13150,0.218277,0.296656,-0.094052,-0.055995,0.028877,1.004992
2011-09-26T13:08:38.129505,13160,0.228532,0.334064,-0.099746,-0.056032,0.029925,1.005002
2011-09-26T13:08:38.139505,13170,0.238788,0.371472,-0.105439,-0.056070,0.030972,1.005012
2011-09-26T13:08:38.149505,13180,0.249043,0.408880,-0.111133,-0.056108,0.032020,1.005022
2011-09-26T13:08:38.159505,13190,0.259298,0.446288,-0.116826,-0.056145,0.033067,1.005032
2011-09-26T13:08:38.169505,13200,0.269554,0.483696,-0.122520,-0.056183,0.034115,1.005042
2011-09-26T13:08:38.179505,13210,0.279809,0.521104,-0.128214,-0.056220,0.035163,1.005052
2011-09-26T13:08:38.189505,13220,0.290065,0.558512,-0.133907,-0.056258,0.036210,1.005062
2011-09-26T13:08:38.199505,13230,0.300320,0.595920,-0.139601,-0.056295,0.037258,1.005072
2011-09-26T13:08:38.209505,13240,0.310576,0.633328,-0.145294,-0.056333,0.038305,1.005083
2011-09-26T13:08:38.219505,13250,0.320831,0.670736,-0.150988,-0.056370,0.039353,1.005093
2011-09-26T13:08:38.229505,13260,0.286372,0.678702,-0.156774,-0.057183,0.038928,1.002516
2011-09-26T13:08:38.239505,13270,0.248806,0.684622,-0.162567,-0.058050,0.038401,0.999759
2011-09-26T13:08:38.249505,13280,0.211239,0.690541,-0.168360,-0.058916,0.037874,0.997002
2011-09-26T13:08:38.259505,13290,0.173672,0.696461,-0.174153,-0.059783,0.037346,0.994245
2011-09-26T13:08:38.269505,13300,0.136106,0.702380,-0.179945,-0.060649,0.036819,0.991488
2011-09-26T13:08:38.279505,13310,0.098539,0.708300,-0.185738,-0.061516,0.036292,0.988732
2011-09-26T13:08:38.289505,13320,0.060972,0.714219,-0.191531,-0.062382,0.035765,0.985975
2011-09-26T13:08:38.299505,13330,0.023406,0.720139,-0.197324,-0.063249,0.035238,0.983218
2011-09-26T13:08:38.309505,13340,-0.014161,0.726058,-0.203117,-0.064116,0.034710,0.980461
2011-09-26T13:08:38.319505,13350,-0.051728,0.731978,-0.208910,-0.064982,0.034183,0.977705
2011-09-26T13:08:38.329505,13360,0.009407,0.674215,-0.207480,-0.065199,0.033340,0.978465
2011-09-26T13:08:38.339505,13370,0.076463,0.612632,-0.205617,-0.065377,0.032477,0.979437
2011-09-26T13:08:38.349505,13380,0.143519,0.551049,-0.203753,-0.065556,0.031615,0.980409
2011-09-26T13:08:38.359505,13390,0.210575,0.489466,-0.201890,-0.065734,0.030752,0.981381
2011-09-26T13:08:38.369505,13400,0.277631,0.427883,-0.200027,-0.065912,0.029890,0.982352
2011-09-26T13:08:38.379505,13410,0.344687,0.366300,-0.198164,-0.066090,0.029027,0.983324
2011-09-26T13:08:38.389505,13420,0.411743,0.304717,-0.196301,-0.066268,0.028165,0.984296
2011-09-26T13:08:38.399505,13430,0.478799,0.243134,-0.194438,-0.066447,0.027302,0.985268
2011-09-26T13:08:38.409505,13440,0.545855,0.181551,-0.192575,-0.066625,0.026440,0.986240
2011-09-26T13:08:38.419505,13450,0.612910,0.119968,-0.190712,-0.066803,0.025577,0.987211
2011-09-26T13:08:38.429505,13460,0.677654,0.055414,-0.190784,-0.066985,0.026294,0.988579
2011-09-26T13:08:38.439505,13470,0.742262,-0.009313,-0.190968,-0.067167,0.027103,0.989970
2011-09-26T13:08:38.449505,13480,0.806871,-0.074040,-0.191152,-0.067349,0.027912,0.991361
2011-09-26T13:08:38.459505,13490,0.871480,-0.138767,-0.191336,-0.067531,0.028721,0.992752
2011-09-26T13:08:38.469505,13500,0.936089,-0.203494,-0.191521,-0.067713,0.029530,0.994143
2011-09-26T13:08:38.479505,13510,1.000698,-0.268221,-0.191705,-0.067895,0.030339,0.995534
2011-09-26T13:08:38.489505,13520,1.065307,-0.332948,-0.191889,-0.068077,0.031147,0.996925
2011-09-26T13:08:38.499505,13530,1.129916,-0.397675,-0.192073,-0.068259,0.031956,0.998316
2011-09-26T13:08:38.509505,13540,1.194524,-0.462402,-0.192258,-0.068441,0.032765,0.999707
2011-09-26T13:08:38.519505,13550,1.259133,-0.527129,-0.192442,-0.068623,0.033574,1.001098
2011-09-26T13:08:38.529505,13560,1.323742,-0.591856,-0.192626,-0.068805,0.034383,1.002489
2011-09-26T13:08:38.539505,13570,1.347330,-0.682009,-0.195322,-0.068613,0.034382,1.002065
2011-09-26T13:08:38.549505,13580,1.368498,-0.773662,-0.198166,-0.068399,0.034334,1.001533
