pc_time,ts_ms,gyroX,gyroY,gyroZ,accelX,accelY,accelZ
2011-10-03T14:34:18.654292,0,1.082080,-0.790136,-23.628500,-0.052449,-0.417488,1.011942
2011-10-03T14:34:18.664292,10,1.022227,-0.870263,-23.670406,-0.053297,-0.412931,1.009758
2011-10-03T14:34:18.674292,20,0.962374,-0.950390,-23.712312,-0.054145,-0.408375,1.007574
2011-10-03T14:34:18.684292,30,0.902522,-1.030517,-23.754218,-0.054994,-0.403818,1.005389
2011-10-03T14:34:18.694292,40,0.842669,-1.110644,-23.796124,-0.055842,-0.399262,1.003205
2011-10-03T14:34:18.704292,50,0.782817,-1.190771,-23.838031,-0.056690,-0.394705,1.001021
2011-10-03T14:34:18.714292,60,0.722964,-1.270898,-23.879937,-0.057538,-0.390149,0.998837
2011-10-03T14:34:18.724292,70,0.663112,-1.351025,-23.921843,-0.058386,-0.385592,0.996653
2011-10-03T14:34:18.734292,80,0.603259,-1.431152,-23.963749,-0.059234,-0.381036,0.994468
2011-10-03T14:34:18.744292,90,0.543406,-1.511279,-24.005655,-0.060082,-0.376479,0.992284
2011-10-03T14:34:18.754292,100,0.483554,-1.591406,-24.047561,-0.060930,-0.371923,0.990100
2011-10-03T14:34:18.764292,110,0.637922,-1.667028,-24.118933,-0.059652,-0.376132,0.992958
2011-10-03T14:34:18.774292,120,0.794847,-1.742597,-24.190656,-0.058349,-0.380445,0.995876
2011-10-03T14:34:18.784292,130,0.951771,-1.818165,-24.262379,-0.057045,-0.384759,0.998793
2011-10-03T14:34:18.794292,140,1.108696,-1.893734,-24.334102,-0.055742,-0.389073,1.001711
2011-10-03T14:34:18.804292,150,1.265620,-1.969302,-24.405826,-0.054438,-0.393386,1.004629
2011-10-03T14:34:18.814292,160,1.422545,-2.044870,-24.477549,-0.053134,-0.397700,1.007547
2011-10-03T14:34:18.824292,170,1.579469,-2.120439,-24.549272,-0.051831,-0.402013,1.010465
2011-10-03T14:34:18.834292,180,1.736394,-2.196007,-24.620995,-0.050527,-0.406327,1.013383
2011-10-03T14:34:18.844292,190,1.893319,-2.271576,-24.692718,-0.049224,-0.410640,1.016301
2011-10-03T14:34:18.854292,200,2.050243,-2.347144,-24.764442,-0.047920,-0.414954,1.019219
2011-10-03T14:34:18.864292,210,2.207168,-2.422713,-24.836165,-0.046616,-0.419268,1.022136
2011-10-03T14:34:18.874292,220,2.009462,-2.428356,-24.870167,-0.046717,-0.418609,1.021665
2011-10-03T14:34:18.884292,230,1.808568,-2.433370,-24.903830,-0.046830,-0.417906,1.021163
2011-10-03T14:34:18.894292,240,1.607674,-2.438385,-24.937493,-0.046942,-0.417203,1.020661
2011-10-03T14:34:18.904292,250,1.406780,-2.443399,-24.971157,-0.047055,-0.416500,1.020159
2011-10-03T14:34:18.914292,260,1.205886,-2.448414,-25.004820,-0.047168,-0.415797,1.019657
2011-10-03T14:34:18.924292,270,1.004991,-2.453428,-25.038483,-0.047281,-0.415094,1.019155
2011-10-03T14:34:18.934292,280,0.804097,-2.458442,-25.072146,-0.047394,-0.414391,1.018653
2011-10-03T14:34:18.944292,290,0.603203,-2.463457,-25.105810,-0.047507,-0.413688,1.018151
2011-10-03T14:34:18.954292,300,0.402309,-2.468471,-25.139473,-0.047619,-0.412985,1.017649
2011-10-03T14:34:18.964292,310,0.201479,-2.473440,-25.173143,-0.047731,-0.412283,1.017150
2011-10-03T14:34:18.974292,320,0.109286,-2.399793,-25.219506,-0.046399,-0.412886,1.022908
2011-10-03T14:34:18.984292,330,0.017093,-2.326147,-25.265868,-0.045066,-0.413490,1.028666
2011-10-03T14:34:18.994292,340,-0.075100,-2.252500,-25.312231,-0.043733,-0.414093,1.034424
2011-10-03T14:34:19.004292,350,-0.167293,-2.178854,-25.358593,-0.042401,-0.414696,1.040182
2011-10-03T14:34:19.014292,360,-0.259486,-2.105207,-25.404956,-0.041068,-0.415300,1.045939
2011-10-03T14:34:19.024292,370,-0.351679,-2.031561,-25.451319,-0.039736,-0.415903,1.051697
2011-10-03T14:34:19.034292,380,-0.443872,-1.957915,-25.497681,-0.038403,-0.416506,1.057455
2011-10-03T14:34:19.044292,390,-0.536065,-1.884268,-25.544044,-0.037070,-0.417109,1.063213
2011-10-03T14:34:19.054292,400,-0.628258,-1.810622,-25.590406,-0.035738,-0.417713,1.068971
2011-10-03T14:34:19.064292,410,-0.720450,-1.736975,-25.636769,-0.034405,-0.418316,1.074729
2011-10-03T14:34:19.074292,420,-0.812120,-1.663253,-25.683080,-0.033079,-0.418926,1.080465
2011-10-03T14:34:19.084292,430,-0.642785,-1.551990,-25.703931,-0.035193,-0.423073,1.075662
2011-10-03T14:34:19.094292,440,-0.473450,-1.440727,-25.724782,-0.037306,-0.427220,1.070860
2011-10-03T14:34:19.104292,450,-0.304115,-1.329463,-25.745633,-0.039420,-0.431367,1.066057
2011-10-03T14:34:19.114292,460,-0.134781,-1.218200,-25.766484,-0.041533,-0.435514,1.061254
2011-10-03T14:34:19.124292,470,0.034554,-1.106937,-25.787335,-0.043646,-0.439661,1.056451
2011-10-03T14:34:19.134292,480,0.203889,-0.995673,-25.808186,-0.045760,-0.443808,1.051648
2011-10-03T14:34:19.144292,490,0.373223,-0.884410,-25.829037,-0.047873,-0.447954,1.046845
2011-10-03T14:34:19.154292,500,0.542558,-0.773147,-25.849888,-0.049986,-0.452101,1.042042
2011-10-03T14:34:19.164292,510,0.711893,-0.661883,-25.870739,-0.052100,-0.456248,1.037240
2011-10-03T14:34:19.174292,520,0.879159,-0.551719,-25.891360,-0.054193,-0.460321,1.032466
2011-10-03T14:34:19.184292,530,0.843791,-0.549241,-25.889489,-0.054362,-0.457137,1.030584
2011-10-03T14:34:19.194292,540,0.808423,-0.546762,-25.887619,-0.054530,-0.453952,1.028703
2011-10-03T14:34:19.204292,550,0.773054,-0.544283,-25.885748,-0.054699,-0.450768,1.026821
2011-10-03T14:34:19.214292,560,0.737686,-0.541804,-25.883878,-0.054867,-0.447584,1.024939
2011-10-03T14:34:19.224292,570,0.702318,-0.539326,-25.882007,-0.055036,-0.444399,1.023057
2011-10-03T14:34:19.234292,580,0.666950,-0.536847,-25.880137,-0.055204,-0.441215,1.021175
2011-10-03T14:34:19.244292,590,0.631582,-0.534368,-25.878266,-0.055372,-0.438031,1.019293
2011-10-03T14:34:19.254292,600,0.596214,-0.531889,-25.876396,-0.055541,-0.434846,1.017412
2011-10-03T14:34:19.264292,610,0.560846,-0.529411,-25.874525,-0.055709,-0.431662,1.015530
2011-10-03T14:34:19.274292,620,0.525478,-0.526932,-25.872655,-0.055878,-0.428478,1.013648
2011-10-03T14:34:19.284292,630,0.656261,-0.648929,-25.823073,-0.054619,-0.432202,1.015127
2011-10-03T14:34:19.294292,640,0.789317,-0.772630,-25.772839,-0.053342,-0.436021,1.016652
2011-10-03T14:34:19.304292,650,0.922374,-0.896330,-25.722604,-0.052064,-0.439840,1.018177
2011-10-03T14:34:19.314292,660,1.055430,-1.020031,-25.672369,-0.050786,-0.443659,1.019702
2011-10-03T14:34:19.324292,670,1.188486,-1.143731,-25.622135,-0.049508,-0.447478,1.021227
2011-10-03T14:34:19.334292,680,1.321543,-1.267432,-25.571900,-0.048230,-0.451297,1.022752
2011-10-03T14:34:19.344292,690,1.454599,-1.391133,-25.521665,-0.046952,-0.455117,1.024277
2011-10-03T14:34:19.354292,700,1.587656,-1.514833,-25.471431,-0.045674,-0.458936,1.025802
2011-10-03T14:34:19.364292,710,1.720712,-1.638534,-25.421196,-0.044396,-0.462755,1.027326
2011-10-03T14:34:19.374292,720,1.853769,-1.762234,-25.370962,-0.043119,-0.466574,1.028851
2011-10-03T14:34:19.384292,730,1.985050,-1.884810,-25.320804,-0.041849,-0.470306,1.030359
2011-10-03T14:34:19.394292,740,1.927300,-1.887549,-25.278883,-0.041460,-0.464769,1.030006
2011-10-03T14:34:19.404292,750,1.869550,-1.890289,-25.236963,-0.041071,-0.459231,1.029653
2011-10-03T14:34:19.414292,760,1.811800,-1.893028,-25.195042,-0.040682,-0.453694,1.029300
2011-10-03T14:34:19.424292,770,1.754050,-1.895768,-25.153121,-0.040293,-0.448157,1.028948
2011-10-03T14:34:19.434292,780,1.696300,-1.898507,-25.111200,-0.039904,-0.442620,1.028595
2011-10-03T14:34:19.444292,790,1.638550,-1.901247,-25.069279,-0.039515,-0.437082,1.028242
2011-10-03T14:34:19.454292,800,1.580800,-1.903986,-25.027359,-0.039126,-0.431545,1.027889
2011-10-03T14:34:19.464292,810,1.523050,-1.906726,-24.985438,-0.038737,-0.426008,1.027536
2011-10-03T14:34:19.474292,820,1.465300,-1.909465,-24.943517,-0.038348,-0.420471,1.027184
2011-10-03T14:34:19.484292,830,1.407176,-1.911373,-24.902356,-0.037956,-0.414973,1.026850
2011-10-03T14:34:19.494292,840,1.309232,-1.824727,-24.942131,-0.037166,-0.413667,1.028531
2011-10-03T14:34:19.504292,850,1.211289,-1.738080,-24.981907,-0.036377,-0.412361,1.030213
2011-10-03T14:34:19.514292,860,1.113345,-1.651433,-25.021682,-0.035587,-0.411055,1.031894
2011-10-03T14:34:19.524292,870,1.015402,-1.564786,-25.061457,-0.034798,-0.409750,1.033576
2011-10-03T14:34:19.534292,880,0.917458,-1.478139,-25.101232,-0.034008,-0.408444,1.035257
2011-10-03T14:34:19.544292,890,0.819514,-1.391492,-25.141007,-0.033218,-0.407138,1.036939
2011-10-03T14:34:19.554292,900,0.721571,-1.304845,-25.180782,-0.032429,-0.405832,1.038620
2011-10-03T14:34:19.564292,910,0.623627,-1.218199,-25.220557,-0.031639,-0.404526,1.040302
2011-10-03T14:34:19.574292,920,0.525684,-1.131552,-25.260333,-0.030850,-0.403220,1.041983
2011-10-03T14:34:19.584292,930,0.428569,-1.045129,-25.300042,-0.030074,-0.401962,1.043598
2011-10-03T14:34:19.594292,940,0.397446,-0.976530,-25.334522,-0.030416,-0.404474,1.039906
2011-10-03T14:34:19.604292,950,0.366323,-0.907931,-25.369002,-0.030758,-0.406987,1.036213
2011-10-03T14:34:19.614292,960,0.335201,-0.839333,-25.403482,-0.031100,-0.409499,1.032521
2011-10-03T14:34:19.624292,970,0.304078,-0.770734,-25.437961,-0.031442,-0.412011,1.028828
2011-10-03T14:34:19.634292,980,0.272955,-0.702135,-25.472441,-0.031785,-0.414524,1.025136
2011-10-03T14:34:19.644292,990,0.241833,-0.633536,-25.506921,-0.032127,-0.417036,1.021443
2011-10-03T14:34:19.654292,1000,0.210710,-0.564938,-25.541401,-0.032469,-0.419548,1.017751
2011-10-03T14:34:19.664292,1010,0.179587,-0.496339,-25.575881,-0.032811,-0.422061,1.014058
2011-10-03T14:34:19.674292,1020,0.148465,-0.427740,-25.610360,-0.033153,-0.424573,1.010366
2011-10-03T14:34:19.684292,1030,0.117342,-0.359142,-25.644840,-0.033495,-0.427086,1.006673
2011-10-03T14:34:19.694292,1040,0.086151,-0.290877,-25.679425,-0.033844,-0.429550,1.003031
2011-10-03T14:34:19.704292,1050,0.048414,-0.254524,-25.724027,-0.034880,-0.427424,1.004223
2011-10-03T14:34:19.714292,1060,0.010677,-0.218170,-25.768628,-0.035915,-0.425297,1.005414
2011-10-03T14:34:19.724292,1070,-0.027060,-0.181816,-25.813230,-0.036951,-0.423171,1.006605
2011-10-03T14:34:19.734292,1080,-0.064797,-0.145462,-25.857831,-0.037986,-0.421045,1.007797
2011-10-03T14:34:19.744292,1090,-0.102534,-0.109108,-25.902433,-0.039022,-0.418919,1.008988
2011-10-03T14:34:19.754292,1100,-0.140271,-0.072754,-25.947034,-0.040058,-0.416792,1.010179
2011-10-03T14:34:19.764292,1110,-0.178008,-0.036400,-25.991636,-0.041093,-0.414666,1.011371
2011-10-03T14:34:19.774292,1120,-0.215745,-0.000046,-26.036238,-0.042129,-0.412540,1.012562
2011-10-03T14:34:19.784292,1130,-0.253482,0.036308,-26.080839,-0.043164,-0.410414,1.013753
2011-10-03T14:34:19.794292,1140,-0.291220,0.072662,-26.125441,-0.044200,-0.408288,1.014945
2011-10-03T14:34:19.804292,1150,-0.274227,0.068082,-26.142591,-0.043901,-0.411706,1.013038
2011-10-03T14:34:19.814292,1160,-0.256905,0.063256,-26.159576,-0.043594,-0.415158,1.011112
2011-10-03T14:34:19.824292,1170,-0.239582,0.058429,-26.176560,-0.043287,-0.418610,1.009187
2011-10-03T14:34:19.834292,1180,-0.222259,0.053603,-26.193545,-0.042980,-0.422063,1.007261
2011-10-03T14:34:19.844292,1190,-0.204936,0.048776,-26.210529,-0.042673,-0.425515,1.005336
2011-10-03T14:34:19.854292,1200,-0.187614,0.043950,-26.227514,-0.042366,-0.428967,1.003410
2011-10-03T14:34:19.864292,1210,-0.170291,0.039124,-26.244499,-0.042059,-0.432419,1.001485
2011-10-03T14:34:19.874292,1220,-0.152968,0.034297,-26.261483,-0.041752,-0.435871,0.999559
2011-10-03T14:34:19.884292,1230,-0.135645,0.029471,-26.278468,-0.041445,-0.439323,0.997634
2011-10-03T14:34:19.894292,1240,-0.118323,0.024644,-26.295452,-0.041138,-0.442775,0.995708
2011-10-03T14:34:19.904292,1250,-0.100564,0.019511,-26.311908,-0.040832,-0.446203,0.993826
2011-10-03T14:34:19.914292,1260,-0.048916,-0.009462,-26.287216,-0.040607,-0.447751,0.995320
2011-10-03T14:34:19.924292,1270,0.002732,-0.038435,-26.262525,-0.040382,-0.449299,0.996814
2011-10-03T14:34:19.934292,1280,0.054380,-0.067408,-26.237834,-0.040158,-0.450848,0.998308
2011-10-03T14:34:19.944292,1290,0.106028,-0.096381,-26.213143,-0.039933,-0.452396,0.999801
2011-10-03T14:34:19.954292,1300,0.157676,-0.125354,-26.188451,-0.039708,-0.453944,1.001295
2011-10-03T14:34:19.964292,1310,0.209324,-0.154327,-26.163760,-0.039483,-0.455492,1.002789
2011-10-03T14:34:19.974292,1320,0.260971,-0.183300,-26.139069,-0.039258,-0.457040,1.004283
2011-10-03T14:34:19.984292,1330,0.312619,-0.212273,-26.114377,-0.039033,-0.458588,1.005777
2011-10-03T14:34:19.994292,1340,0.364267,-0.241246,-26.089686,-0.038809,-0.460137,1.007270
2011-10-03T14:34:20.004292,1350,0.416697,-0.270479,-26.065110,-0.038605,-0.461607,1.008730
2011-10-03T14:34:20.014292,1360,0.523382,-0.317726,-26.048544,-0.039888,-0.457675,1.007845
2011-10-03T14:34:20.024292,1370,0.630067,-0.364973,-26.031978,-0.041171,-0.453742,1.006960
2011-10-03T14:34:20.034292,1380,0.736752,-0.412221,-26.015411,-0.042454,-0.449810,1.006075
2011-10-03T14:34:20.044292,1390,0.843437,-0.459468,-25.998845,-0.043737,-0.445878,1.005190
2011-10-03T14:34:20.054292,1400,0.950121,-0.506715,-25.982279,-0.045020,-0.441946,1.004304
2011-10-03T14:34:20.064292,1410,1.056806,-0.553963,-25.965712,-0.046303,-0.438013,1.003419
2011-10-03T14:34:20.074292,1420,1.163491,-0.601210,-25.949146,-0.047586,-0.434081,1.002534
2011-10-03T14:34:20.084292,1430,1.270176,-0.648458,-25.932579,-0.048869,-0.430149,1.001649
2011-10-03T14:34:20.094292,1440,1.376861,-0.695705,-25.916013,-0.050152,-0.426216,1.000764
2011-10-03T14:34:20.104292,1450,1.479527,-0.742646,-25.899302,-0.051383,-0.422404,0.999944
2011-10-03T14:34:20.114292,1460,1.385488,-0.774616,-25.875496,-0.050028,-0.424480,1.002335
2011-10-03T14:34:20.124292,1470,1.291449,-0.806585,-25.851689,-0.048674,-0.426557,1.004727
2011-10-03T14:34:20.134292,1480,1.197410,-0.838555,-25.827883,-0.047320,-0.428633,1.007118
2011-10-03T14:34:20.144292,1490,1.103371,-0.870525,-25.804077,-0.045966,-0.430709,1.009509
2011-10-03T14:34:20.154292,1500,1.009332,-0.902494,-25.780271,-0.044612,-0.432785,1.011900
2011-10-03T14:34:20.164292,1510,0.915293,-0.934464,-25.756465,-0.043258,-0.434861,1.014291
2011-10-03T14:34:20.174292,1520,0.821254,-0.966433,-25.732659,-0.041904,-0.436937,1.016682
2011-10-03T14:34:20.184292,1530,0.727215,-0.998403,-25.708853,-0.040550,-0.439013,1.019074
2011-10-03T14:34:20.194292,1540,0.633175,-1.030372,-25.685046,-0.039196,-0.441089,1.021465
2011-10-03T14:34:20.204292,1550,0.539136,-1.062342,-25.661240,-0.037842,-0.443165,1.023856
2011-10-03T14:34:20.214292,1560,0.449237,-1.092881,-25.637880,-0.036503,-0.445200,1.026219
2011-10-03T14:34:20.224292,1570,0.606009,-1.038166,-25.641095,-0.036034,-0.444787,1.026912
2011-10-03T14:34:20.234292,1580,0.762781,-0.983450,-25.644310,-0.035566,-0.444373,1.027605
2011-10-03T14:34:20.244292,1590,0.919553,-0.928735,-25.647525,-0.035098,-0.443960,1.028298
2011-10-03T14:34:20.254292,1600,1.076326,-0.874020,-25.650740,-0.034630,-0.443547,1.028990
2011-10-03T14:34:20.264292,1610,1.233098,-0.819305,-25.653955,-0.034162,-0.443134,1.029683
2011-10-03T14:34:20.274292,1620,1.389870,-0.764590,-25.657170,-0.033694,-0.442720,1.030376
2011-10-03T14:34:20.284292,1630,1.546642,-0.709875,-25.660385,-0.033225,-0.442307,1.031069
2011-10-03T14:34:20.294292,1640,1.703415,-0.655159,-25.663600,-0.032757,-0.441894,1.031762
2011-10-03T14:34:20.304292,1650,1.860187,-0.600444,-25.666815,-0.032289,-0.441481,1.032454
2011-10-03T14:34:20.314292,1660,2.011946,-0.546875,-25.669979,-0.031846,-0.441012,1.033102
2011-10-03T14:34:20.324292,1670,1.845347,-0.566040,-25.669903,-0.033006,-0.437044,1.030879
2011-10-03T14:34:20.334292,1680,1.678748,-0.585205,-25.669827,-0.034166,-0.433076,1.028657
2011-10-03T14:34:20.344292,1690,1.512149,-0.604371,-25.669751,-0.035326,-0.429108,1.026434
2011-10-03T14:34:20.354292,1700,1.345550,-0.623536,-25.669676,-0.036486,-0.425140,1.024211
2011-10-03T14:34:20.364292,1710,1.178951,-0.642701,-25.669600,-0.037646,-0.421172,1.021989
2011-10-03T14:34:20.374292,1720,1.012351,-0.661867,-25.669524,-0.038806,-0.417204,1.019766
2011-10-03T14:34:20.384292,1730,0.845752,-0.681032,-25.669448,-0.039966,-0.413236,1.017543
2011-10-03T14:34:20.394292,1740,0.679153,-0.700197,-25.669372,-0.041126,-0.409268,1.015321
2011-10-03T14:34:20.404292,1750,0.512554,-0.719363,-25.669296,-0.042286,-0.405300,1.013098
2011-10-03T14:34:20.414292,1760,0.348813,-0.738611,-25.670082,-0.043415,-0.401451,1.010867
2011-10-03T14:34:20.424292,1770,0.326544,-0.761985,-25.713527,-0.042974,-0.403468,1.008232
2011-10-03T14:34:20.434292,1780,0.304276,-0.785358,-25.756972,-0.042534,-0.405486,1.005597
2011-10-03T14:34:20.444292,1790,0.282007,-0.808732,-25.800416,-0.042094,-0.407503,1.002962
2011-10-03T14:34:20.454292,1800,0.259739,-0.832105,-25.843861,-0.041653,-0.409521,1.000327
2011-10-03T14:34:20.464292,1810,0.237470,-0.855478,-25.887306,-0.041213,-0.411538,0.997692
2011-10-03T14:34:20.474292,1820,0.215202,-0.878852,-25.930751,-0.040773,-0.413555,0.995057
2011-10-03T14:34:20.484292,1830,0.192933,-0.902225,-25.974195,-0.040332,-0.415573,0.992422
2011-10-03T14:34:20.494292,1840,0.170664,-0.925599,-26.017640,-0.039892,-0.417590,0.989787
2011-10-03T14:34:20.504292,1850,0.148396,-0.948972,-26.061085,-0.039452,-0.419608,0.987151
2011-10-03T14:34:20.514292,1860,0.126127,-0.972346,-26.104530,-0.039012,-0.421625,0.984516
2011-10-03T14:34:20.524292,1870,0.107728,-0.995577,-26.146671,-0.038555,-0.423651,0.981972
2011-10-03T14:34:20.534292,1880,0.272330,-1.012093,-26.127160,-0.037345,-0.426093,0.983733
2011-10-03T14:34:20.544292,1890,0.436932,-1.028610,-26.107649,-0.036134,-0.428534,0.985495
2011-10-03T14:34:20.554292,1900,0.601534,-1.045126,-26.088138,-0.034923,-0.430975,0.987256
2011-10-03T14:34:20.564292,1910,0.766136,-1.061642,-26.068628,-0.033713,-0.433416,0.989017
2011-10-03T14:34:20.574292,1920,0.930738,-1.078158,-26.049117,-0.032502,-0.435857,0.990778
2011-10-03T14:34:20.584292,1930,1.095341,-1.094675,-26.029606,-0.031292,-0.438298,0.992539
2011-10-03T14:34:20.594292,1940,1.259943,-1.111191,-26.010095,-0.030081,-0.440739,0.994300
2011-10-03T14:34:20.604292,1950,1.424545,-1.127707,-25.990584,-0.028870,-0.443181,0.996061
2011-10-03T14:34:20.614292,1960,1.589147,-1.144224,-25.971073,-0.027660,-0.445622,0.997822
2011-10-03T14:34:20.624292,1970,1.747632,-1.160663,-25.951588,-0.026491,-0.447991,0.999625
2011-10-03T14:34:20.634292,1980,1.577722,-1.172976,-25.933465,-0.027550,-0.446523,1.003644
2011-10-03T14:34:20.644292,1990,1.407812,-1.185289,-25.915342,-0.028609,-0.445054,1.007663
2011-10-03T14:34:20.654292,2000,1.237902,-1.197602,-25.897219,-0.029669,-0.443586,1.011682
2011-10-03T14:34:20.664292,2010,1.067991,-1.209915,-25.879096,-0.030728,-0.442117,1.015701
2011-10-03T14:34:20.674292,2020,0.898081,-1.222229,-25.860972,-0.031788,-0.440649,1.019719
2011-10-03T14:34:20.684292,2030,0.728171,-1.234542,-25.842849,-0.032847,-0.439180,1.023738
2011-10-03T14:34:20.694292,2040,0.558260,-1.246855,-25.824726,-0.033906,-0.437712,1.027757
2011-10-03T14:34:20.704292,2050,0.388350,-1.259168,-25.806603,-0.034966,-0.436244,1.031776
2011-10-03T14:34:20.714292,2060,0.218440,-1.271481,-25.788480,-0.036025,-0.434775,1.035795
2011-10-03T14:34:20.724292,2070,0.048530,-1.283794,-25.770357,-0.037084,-0.433307,1.039814
2011-10-03T14:34:20.734292,2080,-0.115620,-1.296721,-25.752271,-0.038039,-0.431886,1.043622
2011-10-03T14:34:20.744292,2090,-0.039491,-1.335243,-25.735750,-0.034610,-0.432464,1.038645
2011-10-03T14:34:20.754292,2100,0.036638,-1.373766,-25.719229,-0.031182,-0.433042,1.033668
2011-10-03T14:34:20.764292,2110,0.112766,-1.412289,-25.702708,-0.027753,-0.433621,1.028691
2011-10-03T14:34:20.774292,2120,0.188895,-1.450811,-25.686186,-0.024325,-0.434199,1.023714
2011-10-03T14:34:20.784292,2130,0.265024,-1.489334,-25.669665,-0.020896,-0.434777,1.018737
2011-10-03T14:34:20.794292,2140,0.341153,-1.527857,-25.653144,-0.017468,-0.435355,1.013760
2011-10-03T14:34:20.804292,2150,0.417282,-1.566379,-25.636623,-0.014039,-0.435934,1.008783
2011-10-03T14:34:20.814292,2160,0.493411,-1.604902,-25.620102,-0.010611,-0.436512,1.003806
2011-10-03T14:34:20.824292,2170,0.569540,-1.643424,-25.603580,-0.007182,-0.437090,0.998829
2011-10-03T14:34:20.834292,2180,0.647708,-1.683198,-25.587131,-0.003785,-0.437619,0.993961
2011-10-03T14:34:20.844292,2190,0.867602,-1.809911,-25.575674,-0.002553,-0.434713,0.996677
2011-10-03T14:34:20.854292,2200,1.087497,-1.936625,-25.564217,-0.001321,-0.431807,0.999392
2011-10-03T14:34:20.864292,2210,1.307391,-2.063339,-25.552760,-0.000090,-0.428901,1.002108
2011-10-03T14:34:20.874292,2220,1.527286,-2.190052,-25.541303,0.001142,-0.425995,1.004823
2011-10-03T14:34:20.884292,2230,1.747180,-2.316766,-25.529846,0.002374,-0.423089,1.007539
2011-10-03T14:34:20.894292,2240,1.967075,-2.443479,-25.518390,0.003606,-0.420183,1.010254
2011-10-03T14:34:20.904292,2250,2.186969,-2.570193,-25.506933,0.004837,-0.417277,1.012970
2011-10-03T14:34:20.914292,2260,2.406864,-2.696906,-25.495476,0.006069,-0.414371,1.015685
2011-10-03T14:34:20.924292,2270,2.626758,-2.823620,-25.484019,0.007301,-0.411465,1.018400
2011-10-03T14:34:20.934292,2280,2.836454,-2.942924,-25.471901,0.008536,-0.408636,1.021084
2011-10-03T14:34:20.944292,2290,2.660767,-2.782240,-25.434820,0.009916,-0.408727,1.022554
2011-10-03T14:34:20.954292,2300,2.485080,-2.621555,-25.397739,0.011295,-0.408818,1.024024
2011-10-03T14:34:20.964292,2310,2.309392,-2.460871,-25.360657,0.012675,-0.408909,1.025494
2011-10-03T14:34:20.974292,2320,2.133705,-2.300187,-25.323576,0.014054,-0.409000,1.026964
2011-10-03T14:34:20.984292,2330,1.958018,-2.139503,-25.286495,0.015434,-0.409090,1.028433
2011-10-03T14:34:20.994292,2340,1.782331,-1.978818,-25.249414,0.016813,-0.409181,1.029903
2011-10-03T14:34:21.004292,2350,1.606643,-1.818134,-25.212332,0.018192,-0.409272,1.031373
2011-10-03T14:34:21.014292,2360,1.430956,-1.657450,-25.175251,0.019572,-0.409363,1.032843
2011-10-03T14:34:21.024292,2370,1.255269,-1.496766,-25.138170,0.020951,-0.409454,1.034313
2011-10-03T14:34:21.034292,2380,1.079582,-1.336082,-25.101088,0.022331,-0.409545,1.035783
2011-10-03T14:34:21.044292,2390,0.908833,-1.176634,-25.063163,0.023686,-0.409645,1.037294
2011-10-03T14:34:21.054292,2400,1.043891,-1.093724,-24.972966,0.023545,-0.410310,1.041331
2011-10-03T14:34:21.064292,2410,1.178949,-1.010814,-24.882770,0.023404,-0.410975,1.045367
2011-10-03T14:34:21.074292,2420,1.314007,-0.927904,-24.792573,0.023263,-0.411640,1.049404
2011-10-03T14:34:21.084292,2430,1.449065,-0.844994,-24.702376,0.023122,-0.412304,1.053441
2011-10-03T14:34:21.094292,2440,1.584124,-0.762084,-24.612180,0.022981,-0.412969,1.057477
2011-10-03T14:34:21.104292,2450,1.719182,-0.679174,-24.521983,0.022841,-0.413634,1.061514
2011-10-03T14:34:21.114292,2460,1.854240,-0.596264,-24.431786,0.022700,-0.414299,1.065551
2011-10-03T14:34:21.124292,2470,1.989298,-0.513355,-24.341590,0.022559,-0.414964,1.069587
2011-10-03T14:34:21.134292,2480,2.124356,-0.430445,-24.251393,0.022418,-0.415629,1.073624
2011-10-03T14:34:21.144292,2490,2.254671,-0.350173,-24.160491,0.022283,-0.416208,1.077286
2011-10-03T14:34:21.154292,2500,2.179721,-0.384082,-24.039038,0.022405,-0.413081,1.064727
2011-10-03T14:34:21.164292,2510,2.104770,-0.417991,-23.917585,0.022528,-0.409954,1.052168
2011-10-03T14:34:21.174292,2520,2.029820,-0.451900,-23.796132,0.022650,-0.406826,1.039609
2011-10-03T14:34:21.184292,2530,1.954870,-0.485809,-23.674679,0.022773,-0.403699,1.027049
2011-10-03T14:34:21.194292,2540,1.879919,-0.519718,-23.553226,0.022895,-0.400572,1.014490
2011-10-03T14:34:21.204292,2550,1.804969,-0.553627,-23.431773,0.023018,-0.397445,1.001931
2011-10-03T14:34:21.214292,2560,1.730018,-0.587536,-23.310320,0.023140,-0.394318,0.989372
2011-10-03T14:34:21.224292,2570,1.655068,-0.621445,-23.188867,0.023262,-0.391191,0.976813
2011-10-03T14:34:21.234292,2580,1.580118,-0.655354,-23.067413,0.023385,-0.388063,0.964254
2011-10-03T14:34:21.244292,2590,1.505164,-0.690129,-22.945572,0.023559,-0.384948,0.952009
2011-10-03T14:34:21.254292,2600,1.430046,-0.773212,-22.802059,0.026605,-0.382517,0.957273
2011-10-03T14:34:21.264292,2610,1.354928,-0.856296,-22.658546,0.029651,-0.380085,0.962538
2011-10-03T14:34:21.274292,2620,1.279809,-0.939379,-22.515034,0.032698,-0.377653,0.967803
2011-10-03T14:34:21.284292,2630,1.204691,-1.022462,-22.371521,0.035744,-0.375221,0.973068
2011-10-03T14:34:21.294292,2640,1.129573,-1.105546,-22.228008,0.038790,-0.372789,0.978333
2011-10-03T14:34:21.304292,2650,1.054454,-1.188629,-22.084495,0.041837,-0.370358,0.983598
2011-10-03T14:34:21.314292,2660,0.979336,-1.271712,-21.940982,0.044883,-0.367926,0.988863
2011-10-03T14:34:21.324292,2670,0.904218,-1.354795,-21.797469,0.047929,-0.365494,0.994128
2011-10-03T14:34:21.334292,2680,0.829100,-1.437879,-21.653956,0.050976,-0.363062,0.999392
2011-10-03T14:34:21.344292,2690,0.753981,-1.520962,-21.510443,0.054022,-0.360630,1.004657
2011-10-03T14:34:21.354292,2700,0.680037,-1.598083,-21.367496,0.057065,-0.358185,1.009886
2011-10-03T14:34:21.364292,2710,0.648703,-1.458741,-21.245079,0.059997,-0.355251,1.013806
2011-10-03T14:34:21.374292,2720,0.617370,-1.319398,-21.122661,0.062928,-0.352317,1.017725
2011-10-03T14:34:21.384292,2730,0.586036,-1.180056,-21.000244,0.065860,-0.349383,1.021645
2011-10-03T14:34:21.394292,2740,0.554703,-1.040714,-20.877827,0.068792,-0.346450,1.025564
2011-10-03T14:34:21.404292,2750,0.523369,-0.901371,-20.755409,0.071723,-0.343516,1.029484
2011-10-03T14:34:21.414292,2760,0.492036,-0.762029,-20.632992,0.074655,-0.340582,1.033403
2011-10-03T14:34:21.424292,2770,0.460703,-0.622687,-20.510575,0.077586,-0.337648,1.037323
2011-10-03T14:34:21.434292,2780,0.429369,-0.483344,-20.388158,0.080518,-0.334714,1.041242
2011-10-03T14:34:21.444292,2790,0.398036,-0.344002,-20.265740,0.083450,-0.331780,1.045162
2011-10-03T14:34:21.454292,2800,0.369659,-0.206216,-20.145724,0.086221,-0.328892,1.048842
2011-10-03T14:34:21.464292,2810,0.428692,-0.114430,-20.096690,0.084246,-0.327339,1.045449
2011-10-03T14:34:21.474292,2820,0.487726,-0.022645,-20.047657,0.082272,-0.325787,1.042055
2011-10-03T14:34:21.484292,2830,0.546760,0.069141,-19.998624,0.080297,-0.324234,1.038662
2011-10-03T14:34:21.494292,2840,0.605794,0.160926,-19.949591,0.078323,-0.322682,1.035269
2011-10-03T14:34:21.504292,2850,0.664827,0.252712,-19.900557,0.076349,-0.321129,1.031876
2011-10-03T14:34:21.514292,2860,0.723861,0.344497,-19.851524,0.074374,-0.319576,1.028482
2011-10-03T14:34:21.524292,2870,0.782895,0.436283,-19.802491,0.072400,-0.318024,1.025089
2011-10-03T14:34:21.534292,2880,0.841929,0.528068,-19.753458,0.070425,-0.316471,1.021696
2011-10-03T14:34:21.544292,2890,0.900962,0.619853,-19.704424,0.068451,-0.314919,1.018303
2011-10-03T14:34:21.554292,2900,0.959996,0.711639,-19.655391,0.066476,-0.313366,1.014909
2011-10-03T14:34:21.564292,2910,1.013680,0.797162,-19.606362,0.064504,-0.311839,1.011444
2011-10-03T14:34:21.574292,2920,0.910645,0.699210,-19.557471,0.062595,-0.311057,1.005883
2011-10-03T14:34:21.584292,2930,0.807610,0.601259,-19.508580,0.060685,-0.310274,1.000322
2011-10-03T14:34:21.594292,2940,0.704575,0.503308,-19.459689,0.058776,-0.309492,0.994760
2011-10-03T14:34:21.604292,2950,0.601540,0.405357,-19.410798,0.056866,-0.308709,0.989199
2011-10-03T14:34:21.614292,2960,0.498505,0.307406,-19.361907,0.054957,-0.307927,0.983638
2011-10-03T14:34:21.624292,2970,0.395470,0.209455,-19.313016,0.053047,-0.307145,0.978077
2011-10-03T14:34:21.634292,2980,0.292435,0.111504,-19.264125,0.051138,-0.306362,0.972515
2011-10-03T14:34:21.644292,2990,0.189400,0.013553,-19.215234,0.049228,-0.305580,0.966954
2011-10-03T14:34:21.654292,3000,0.086365,-0.084398,-19.166343,0.047319,-0.304797,0.961393
2011-10-03T14:34:21.664292,3010,-0.018508,-0.182549,-19.117654,0.045461,-0.304018,0.956042
2011-10-03T14:34:21.674292,3020,-0.170958,-0.285866,-19.074193,0.044956,-0.303308,0.956157
2011-10-03T14:34:21.684292,3030,-0.323408,-0.389184,-19.030733,0.044450,-0.302598,0.956272
2011-10-03T14:34:21.694292,3040,-0.475858,-0.492501,-18.987272,0.043945,-0.301888,0.956387
2011-10-03T14:34:21.704292,3050,-0.628308,-0.595818,-18.943811,0.043439,-0.301178,0.956502
2011-10-03T14:34:21.714292,3060,-0.780758,-0.699135,-18.900350,0.042934,-0.300469,0.956616
2011-10-03T14:34:21.724292,3070,-0.933208,-0.802453,-18.856890,0.042428,-0.299759,0.956731
2011-10-03T14:34:21.734292,3080,-1.085658,-0.905770,-18.813429,0.041923,-0.299049,0.956846
2011-10-03T14:34:21.744292,3090,-1.238107,-1.009087,-18.769968,0.041417,-0.298339,0.956961
2011-10-03T14:34:21.754292,3100,-1.390557,-1.112405,-18.726507,0.040912,-0.297629,0.957076
2011-10-03T14:34:21.764292,3110,-1.538627,-1.213984,-18.682551,0.040444,-0.296935,0.957307
2011-10-03T14:34:21.774292,3120,-1.400762,-1.202137,-18.606259,0.042448,-0.297249,0.965126
2011-10-03T14:34:21.784292,3130,-1.262897,-1.190290,-18.529967,0.044451,-0.297563,0.972946
2011-10-03T14:34:21.794292,3140,-1.125032,-1.178443,-18.453674,0.046455,-0.297876,0.980765
2011-10-03T14:34:21.804292,3150,-0.987167,-1.166596,-18.377382,0.048458,-0.298190,0.988585
2011-10-03T14:34:21.814292,3160,-0.849302,-1.154749,-18.301090,0.050462,-0.298504,0.996405
2011-10-03T14:34:21.824292,3170,-0.711437,-1.142901,-18.224798,0.052465,-0.298818,1.004224
2011-10-03T14:34:21.834292,3180,-0.573572,-1.131054,-18.148505,0.054469,-0.299132,1.012044
2011-10-03T14:34:21.844292,3190,-0.435707,-1.119207,-18.072213,0.056472,-0.299446,1.019863
2011-10-03T14:34:21.854292,3200,-0.297842,-1.107360,-17.995921,0.058476,-0.299759,1.027683
2011-10-03T14:34:21.864292,3210,-0.159977,-1.095513,-17.919629,0.060479,-0.300073,1.035503
2011-10-03T14:34:21.874292,3220,-0.023629,-1.082055,-17.844297,0.062557,-0.300402,1.043034
2011-10-03T14:34:21.884292,3230,0.062622,-1.015417,-17.800694,0.067083,-0.301219,1.041050
2011-10-03T14:34:21.894292,3240,0.148873,-0.948778,-17.757090,0.071609,-0.302036,1.039066
2011-10-03T14:34:21.904292,3250,0.235124,-0.882140,-17.713487,0.076135,-0.302854,1.037082
2011-10-03T14:34:21.914292,3260,0.321375,-0.815501,-17.669884,0.080661,-0.303671,1.035098
2011-10-03T14:34:21.924292,3270,0.407626,-0.748863,-17.626281,0.085187,-0.304489,1.033114
2011-10-03T14:34:21.934292,3280,0.493877,-0.682224,-17.582677,0.089713,-0.305306,1.031130
2011-10-03T14:34:21.944292,3290,0.580128,-0.615586,-17.539074,0.094239,-0.306123,1.029145
2011-10-03T14:34:21.954292,3300,0.666379,-0.548947,-17.495471,0.098765,-0.306941,1.027161
2011-10-03T14:34:21.964292,3310,0.752630,-0.482309,-17.451867,0.103291,-0.307758,1.025177
2011-10-03T14:34:21.974292,3320,0.835558,-0.416894,-17.409296,0.107686,-0.308408,1.023213
2011-10-03T14:34:21.984292,3330,0.834326,-0.382459,-17.392871,0.108787,-0.304816,1.021736
2011-10-03T14:34:21.994292,3340,0.833095,-0.348024,-17.376446,0.109888,-0.301225,1.020259
2011-10-03T14:34:22.004292,3350,0.831863,-0.313589,-17.360021,0.110989,-0.297633,1.018782
2011-10-03T14:34:22.014292,3360,0.830632,-0.279155,-17.343596,0.112090,-0.294042,1.017306
2011-10-03T14:34:22.024292,3370,0.829401,-0.244720,-17.327171,0.113190,-0.290451,1.015829
2011-10-03T14:34:22.034292,3380,0.828169,-0.210285,-17.310746,0.114291,-0.286859,1.014352
2011-10-03T14:34:22.044292,3390,0.826938,-0.175850,-17.294320,0.115392,-0.283268,1.012875
2011-10-03T14:34:22.054292,3400,0.825706,-0.141415,-17.277895,0.116493,-0.279676,1.011399
2011-10-03T14:34:22.064292,3410,0.824475,-0.106981,-17.261470,0.117593,-0.276085,1.009922
2011-10-03T14:34:22.074292,3420,0.816574,-0.071042,-17.245076,0.118691,-0.272584,1.008418
2011-10-03T14:34:22.084292,3430,0.651467,0.000335,-17.229425,0.119706,-0.271234,1.006285
2011-10-03T14:34:22.094292,3440,0.486360,0.071712,-17.213773,0.120721,-0.269884,1.004152
2011-10-03T14:34:22.104292,3450,0.321254,0.143090,-17.198121,0.121737,-0.268533,1.002019
2011-10-03T14:34:22.114292,3460,0.156147,0.214467,-17.182469,0.122752,-0.267183,0.999886
2011-10-03T14:34:22.124292,3470,-0.008960,0.285844,-17.166817,0.123767,-0.265833,0.997753
2011-10-03T14:34:22.134292,3480,-0.174067,0.357222,-17.151166,0.124783,-0.264482,0.995620
2011-10-03T14:34:22.144292,3490,-0.339174,0.428599,-17.135514,0.125798,-0.263132,0.993487
2011-10-03T14:34:22.154292,3500,-0.504281,0.499976,-17.119862,0.126813,-0.261782,0.991354
2011-10-03T14:34:22.164292,3510,-0.669388,0.571354,-17.104210,0.127829,-0.260431,0.989221
2011-10-03T14:34:22.174292,3520,-0.834495,0.642731,-17.088558,0.128844,-0.259081,0.987088
2011-10-03T14:34:22.184292,3530,-0.988193,0.708333,-17.071191,0.129763,-0.257929,0.984897
2011-10-03T14:34:22.194292,3540,-0.862153,0.632324,-17.011755,0.128318,-0.261652,0.981298
2011-10-03T14:34:22.204292,3550,-0.736112,0.556314,-16.952319,0.126873,-0.265375,0.977700
2011-10-03T14:34:22.214292,3560,-0.610071,0.480305,-16.892884,0.125428,-0.269098,0.974101
2011-10-03T14:34:22.224292,3570,-0.484031,0.404296,-16.833448,0.123983,-0.272821,0.970502
2011-10-03T14:34:22.234292,3580,-0.357990,0.328286,-16.774012,0.122539,-0.276544,0.966904
2011-10-03T14:34:22.244292,3590,-0.231950,0.252277,-16.714576,0.121094,-0.280267,0.963305
2011-10-03T14:34:22.254292,3600,-0.105909,0.176268,-16.655141,0.119649,-0.283989,0.959707
2011-10-03T14:34:22.264292,3610,0.020132,0.100258,-16.595705,0.118204,-0.287712,0.956108
2011-10-03T14:34:22.274292,3620,0.146172,0.024249,-16.536269,0.116759,-0.291435,0.952509
2011-10-03T14:34:22.284292,3630,0.271346,-0.050046,-16.475185,0.115361,-0.295040,0.949270
2011-10-03T14:34:22.294292,3640,0.373299,-0.078453,-16.369966,0.115226,-0.295491,0.955639
2011-10-03T14:34:22.304292,3650,0.475253,-0.106860,-16.264747,0.115090,-0.295941,0.962008
2011-10-03T14:34:22.314292,3660,0.577206,-0.135268,-16.159529,0.114954,-0.296392,0.968377
2011-10-03T14:34:22.324292,3670,0.679160,-0.163675,-16.054310,0.114818,-0.296842,0.974746
2011-10-03T14:34:22.334292,3680,0.781113,-0.192082,-15.949091,0.114683,-0.297293,0.981115
2011-10-03T14:34:22.344292,3690,0.883067,-0.220489,-15.843872,0.114547,-0.297743,0.987484
2011-10-03T14:34:22.354292,3700,0.985020,-0.248896,-15.738654,0.114411,-0.298194,0.993853
2011-10-03T14:34:22.364292,3710,1.086974,-0.277303,-15.633435,0.114275,-0.298645,1.000222
2011-10-03T14:34:22.374292,3720,1.188927,-0.305710,-15.528216,0.114140,-0.299095,1.006591
2011-10-03T14:34:22.384292,3730,1.290881,-0.334117,-15.422998,0.114004,-0.299546,1.012961
2011-10-03T14:34:22.394292,3740,1.391893,-0.362543,-15.317584,0.113892,-0.299827,1.019025
2011-10-03T14:34:22.404292,3750,1.472258,-0.391378,-15.207895,0.114289,-0.296398,1.018401
2011-10-03T14:34:22.414292,3760,1.552623,-0.420214,-15.098205,0.114686,-0.292968,1.017778
2011-10-03T14:34:22.424292,3770,1.632989,-0.449050,-14.988516,0.115084,-0.289539,1.017155
2011-10-03T14:34:22.434292,3780,1.713354,-0.477886,-14.878827,0.115481,-0.286110,1.016531
2011-10-03T14:34:22.444292,3790,1.793719,-0.506722,-14.769137,0.115879,-0.282680,1.015908
2011-10-03T14:34:22.454292,3800,1.874084,-0.535557,-14.659448,0.116276,-0.279251,1.015284
2011-10-03T14:34:22.464292,3810,1.954450,-0.564393,-14.549758,0.116674,-0.275821,1.014661
2011-10-03T14:34:22.474292,3820,2.034815,-0.593229,-14.440069,0.117071,-0.272392,1.014038
2011-10-03T14:34:22.484292,3830,2.115180,-0.622065,-14.330380,0.117469,-0.268963,1.013414
2011-10-03T14:34:22.494292,3840,2.193025,-0.648497,-14.219813,0.117847,-0.265555,1.012842
2011-10-03T14:34:22.504292,3850,2.215590,-0.622201,-14.090002,0.117814,-0.262620,1.013392
2011-10-03T14:34:22.514292,3860,2.238155,-0.595905,-13.960191,0.117781,-0.259685,1.013942
2011-10-03T14:34:22.524292,3870,2.260720,-0.569609,-13.830380,0.117747,-0.256750,1.014492
2011-10-03T14:34:22.534292,3880,2.283285,-0.543314,-13.700569,0.117714,-0.253815,1.015042
2011-10-03T14:34:22.544292,3890,2.305851,-0.517018,-13.570759,0.117681,-0.250880,1.015592
2011-10-03T14:34:22.554292,3900,2.328416,-0.490722,-13.440948,0.117647,-0.247946,1.016142
2011-10-03T14:34:22.564292,3910,2.350981,-0.464426,-13.311137,0.117614,-0.245011,1.016692
2011-10-03T14:34:22.574292,3920,2.373546,-0.438130,-13.181326,0.117581,-0.242076,1.017242
2011-10-03T14:34:22.584292,3930,2.396111,-0.411835,-13.051515,0.117547,-0.239141,1.017792
2011-10-03T14:34:22.594292,3940,2.419994,-0.385632,-12.921472,0.117475,-0.236208,1.018315
2011-10-03T14:34:22.604292,3950,2.477799,-0.361835,-12.785452,0.116402,-0.233322,1.018158
2011-10-03T14:34:22.614292,3960,2.535603,-0.338039,-12.649432,0.115328,-0.230436,1.018000
2011-10-03T14:34:22.624292,3970,2.593407,-0.314242,-12.513412,0.114254,-0.227550,1.017842
2011-10-03T14:34:22.634292,3980,2.651211,-0.290445,-12.377392,0.113180,-0.224664,1.017684
2011-10-03T14:34:22.644292,3990,2.709015,-0.266649,-12.241372,0.112106,-0.221778,1.017527
2011-10-03T14:34:22.654292,4000,2.766819,-0.242852,-12.105352,0.111033,-0.218893,1.017369
2011-10-03T14:34:22.664292,4010,2.824623,-0.219055,-11.969332,0.109959,-0.216007,1.017211
2011-10-03T14:34:22.674292,4020,2.882427,-0.195259,-11.833312,0.108885,-0.213121,1.017053
2011-10-03T14:34:22.684292,4030,2.940231,-0.171462,-11.697292,0.107811,-0.210235,1.016895
2011-10-03T14:34:22.694292,4040,2.998036,-0.147665,-11.561272,0.106738,-0.207349,1.016738
2011-10-03T14:34:22.704292,4050,3.051099,-0.123181,-11.425346,0.105723,-0.204391,1.016471
2011-10-03T14:34:22.714292,4060,3.006695,-0.084562,-11.291344,0.105929,-0.199954,1.013973
2011-10-03T14:34:22.724292,4070,2.962292,-0.045943,-11.157343,0.106135,-0.195517,1.011475
2011-10-03T14:34:22.734292,4080,2.917889,-0.007324,-11.023341,0.106341,-0.191080,1.008977
2011-10-03T14:34:22.744292,4090,2.873486,0.031295,-10.889340,0.106547,-0.186643,1.006479
2011-10-03T14:34:22.754292,4100,2.829083,0.069914,-10.755338,0.106753,-0.182205,1.003981
2011-10-03T14:34:22.764292,4110,2.784680,0.108533,-10.621337,0.106959,-0.177768,1.001483
2011-10-03T14:34:22.774292,4120,2.740277,0.147151,-10.487335,0.107165,-0.173331,0.998985
2011-10-03T14:34:22.784292,4130,2.695873,0.185770,-10.353334,0.107371,-0.168894,0.996487
2011-10-03T14:34:22.794292,4140,2.651470,0.224389,-10.219332,0.107577,-0.164457,0.993989
2011-10-03T14:34:22.804292,4150,2.606448,0.260410,-10.085913,0.107709,-0.160088,0.991615
2011-10-03T14:34:22.814292,4160,2.543961,0.223080,-9.968926,0.105738,-0.157650,0.992752
2011-10-03T14:34:22.824292,4170,2.481474,0.185750,-9.851940,0.103766,-0.155212,0.993890
2011-10-03T14:34:22.834292,4180,2.418987,0.148419,-9.734954,0.101795,-0.152774,0.995028
2011-10-03T14:34:22.844292,4190,2.356500,0.111089,-9.617967,0.099823,-0.150336,0.996165
2011-10-03T14:34:22.854292,4200,2.294013,0.073758,-9.500981,0.097852,-0.147898,0.997303
2011-10-03T14:34:22.864292,4210,2.231526,0.036428,-9.383994,0.095880,-0.145460,0.998441
2011-10-03T14:34:22.874292,4220,2.169039,-0.000902,-9.267008,0.093909,-0.143022,0.999578
2011-10-03T14:34:22.884292,4230,2.106552,-0.038233,-9.150021,0.091938,-0.140584,1.000716
2011-10-03T14:34:22.894292,4240,2.044065,-0.075563,-9.033035,0.089966,-0.138146,1.001853
2011-10-03T14:34:22.904292,4250,1.981995,-0.108846,-8.918077,0.087962,-0.135694,1.002918
2011-10-03T14:34:22.914292,4260,1.927859,-0.065033,-8.841762,0.085343,-0.132976,1.002599
2011-10-03T14:34:22.924292,4270,1.873723,-0.021221,-8.765446,0.082723,-0.130258,1.002279
2011-10-03T14:34:22.934292,4280,1.819588,0.022592,-8.689131,0.080104,-0.127540,1.001960
2011-10-03T14:34:22.944292,4290,1.765452,0.066405,-8.612816,0.077485,-0.124822,1.001640
2011-10-03T14:34:22.954292,4300,1.711317,0.110218,-8.536500,0.074865,-0.122103,1.001321
2011-10-03T14:34:22.964292,4310,1.657181,0.154031,-8.460185,0.072246,-0.119385,1.001001
2011-10-03T14:34:22.974292,4320,1.603046,0.197844,-8.383870,0.069626,-0.116667,1.000682
2011-10-03T14:34:22.984292,4330,1.548910,0.241657,-8.307554,0.067007,-0.113949,1.000362
2011-10-03T14:34:22.994292,4340,1.494775,0.285470,-8.231239,0.064387,-0.111231,1.000043
2011-10-03T14:34:23.004292,4350,1.440639,0.329283,-8.154924,0.061768,-0.108512,0.999723
2011-10-03T14:34:23.014292,4360,1.384170,0.372053,-8.079364,0.059179,-0.105906,0.999483
2011-10-03T14:34:23.024292,4370,1.279081,0.393101,-8.019546,0.057229,-0.105637,1.000909
2011-10-03T14:34:23.034292,4380,1.173992,0.414149,-7.959727,0.055278,-0.105368,1.002335
2011-10-03T14:34:23.044292,4390,1.068903,0.435197,-7.899909,0.053328,-0.105098,1.003760
2011-10-03T14:34:23.054292,4400,0.963814,0.456246,-7.840091,0.051377,-0.104829,1.005186
2011-10-03T14:34:23.064292,4410,0.858725,0.477294,-7.780273,0.049427,-0.104560,1.006612
2011-10-03T14:34:23.074292,4420,0.753636,0.498342,-7.720454,0.047477,-0.104290,1.008037
2011-10-03T14:34:23.084292,4430,0.648547,0.519390,-7.660636,0.045526,-0.104021,1.009463
2011-10-03T14:34:23.094292,4440,0.543458,0.540438,-7.600818,0.043576,-0.103752,1.010889
2011-10-03T14:34:23.104292,4450,0.438369,0.561486,-7.540999,0.041626,-0.103482,1.012314
2011-10-03T14:34:23.114292,4460,0.336019,0.579352,-7.481411,0.039944,-0.103201,1.013490
2011-10-03T14:34:23.124292,4470,0.295274,0.525652,-7.426980,0.044319,-0.102655,1.009039
2011-10-03T14:34:23.134292,4480,0.254529,0.471952,-7.372550,0.048694,-0.102109,1.004588
2011-10-03T14:34:23.144292,4490,0.213785,0.418252,-7.318119,0.053068,-0.101563,1.000137
2011-10-03T14:34:23.154292,4500,0.173040,0.364552,-7.263689,0.057443,-0.101017,0.995686
2011-10-03T14:34:23.164292,4510,0.132295,0.310852,-7.209258,0.061818,-0.100471,0.991235
2011-10-03T14:34:23.174292,4520,0.091550,0.257152,-7.154828,0.066192,-0.099925,0.986784
2011-10-03T14:34:23.184292,4530,0.050805,0.203451,-7.100397,0.070567,-0.099379,0.982333
2011-10-03T14:34:23.194292,4540,0.010060,0.149751,-7.045967,0.074941,-0.098833,0.977881
2011-10-03T14:34:23.204292,4550,-0.030685,0.096051,-6.991536,0.079316,-0.098287,0.973430
2011-10-03T14:34:23.214292,4560,-0.068482,0.039058,-6.937041,0.083729,-0.097759,0.969227
2011-10-03T14:34:23.224292,4570,-0.042372,-0.089339,-6.881128,0.088978,-0.097610,0.970404
2011-10-03T14:34:23.234292,4580,-0.016262,-0.217737,-6.825216,0.094227,-0.097461,0.971580
2011-10-03T14:34:23.244292,4590,0.009848,-0.346134,-6.769303,0.099477,-0.097312,0.972756
2011-10-03T14:34:23.254292,4600,0.035958,-0.474531,-6.713391,0.104726,-0.097163,0.973932
2011-10-03T14:34:23.264292,4610,0.062068,-0.602928,-6.657478,0.109975,-0.097014,0.975108
2011-10-03T14:34:23.274292,4620,0.088178,-0.731325,-6.601566,0.115224,-0.096865,0.976284
2011-10-03T14:34:23.284292,4630,0.114288,-0.859722,-6.545654,0.120473,-0.096716,0.977460
2011-10-03T14:34:23.294292,4640,0.140398,-0.988119,-6.489741,0.125722,-0.096567,0.978637
2011-10-03T14:34:23.304292,4650,0.166508,-1.116517,-6.433829,0.130971,-0.096418,0.979813
2011-10-03T14:34:23.314292,4660,0.192618,-1.244914,-6.377916,0.136220,-0.096269,0.980989
2011-10-03T14:34:23.324292,4670,0.217975,-1.369762,-6.321871,0.141437,-0.096066,0.982215
2011-10-03T14:34:23.334292,4680,0.227779,-1.421364,-6.263079,0.145982,-0.094765,0.984466
2011-10-03T14:34:23.344292,4690,0.237583,-1.472966,-6.204288,0.150527,-0.093464,0.986716
2011-10-03T14:34:23.354292,4700,0.247388,-1.524568,-6.145496,0.155072,-0.092162,0.988967
2011-10-03T14:34:23.364292,4710,0.257192,-1.576170,-6.086705,0.159616,-0.090861,0.991218
2011-10-03T14:34:23.374292,4720,0.266997,-1.627772,-6.027913,0.164161,-0.089560,0.993469
2011-10-03T14:34:23.384292,4730,0.276801,-1.679374,-5.969121,0.168706,-0.088259,0.995720
2011-10-03T14:34:23.394292,4740,0.286605,-1.730976,-5.910330,0.173251,-0.086957,0.997971
2011-10-03T14:34:23.404292,4750,0.296410,-1.782578,-5.851538,0.177796,-0.085656,1.000222
2011-10-03T14:34:23.414292,4760,0.306214,-1.834180,-5.792747,0.182341,-0.084355,1.002473
2011-10-03T14:34:23.424292,4770,0.316854,-1.880822,-5.734893,0.186738,-0.083080,1.004686
2011-10-03T14:34:23.434292,4780,0.342190,-1.840242,-5.693538,0.188547,-0.082264,1.006222
2011-10-03T14:34:23.444292,4790,0.367526,-1.799662,-5.652183,0.190356,-0.081449,1.007758
2011-10-03T14:34:23.454292,4800,0.392862,-1.759082,-5.610827,0.192165,-0.080634,1.009294
2011-10-03T14:34:23.464292,4810,0.418198,-1.718502,-5.569472,0.193973,-0.079818,1.010830
2011-10-03T14:34:23.474292,4820,0.443534,-1.677922,-5.528117,0.195782,-0.079003,1.012366
2011-10-03T14:34:23.484292,4830,0.468869,-1.637342,-5.486762,0.197591,-0.078188,1.013902
2011-10-03T14:34:23.494292,4840,0.494205,-1.596762,-5.445407,0.199399,-0.077372,1.015438
2011-10-03T14:34:23.504292,4850,0.519541,-1.556183,-5.404051,0.201208,-0.076557,1.016974
2011-10-03T14:34:23.514292,4860,0.544877,-1.515603,-5.362696,0.203017,-0.075742,1.018510
2011-10-03T14:34:23.524292,4870,0.570213,-1.475023,-5.321341,0.204826,-0.074927,1.020047
2011-10-03T14:34:23.534292,4880,0.591091,-1.433220,-5.277168,0.206564,-0.074013,1.021504
2011-10-03T14:34:23.544292,4890,0.536084,-1.370611,-5.185046,0.207098,-0.071424,1.021627
2011-10-03T14:34:23.554292,4900,0.481078,-1.308003,-5.092924,0.207633,-0.068834,1.021750
2011-10-03T14:34:23.564292,4910,0.426072,-1.245394,-5.000802,0.208168,-0.066245,1.021873
2011-10-03T14:34:23.574292,4920,0.371065,-1.182785,-4.908679,0.208702,-0.063656,1.021996
2011-10-03T14:34:23.584292,4930,0.316059,-1.120176,-4.816557,0.209237,-0.061067,1.022119
2011-10-03T14:34:23.594292,4940,0.261053,-1.057567,-4.724435,0.209772,-0.058477,1.022242
2011-10-03T14:34:23.604292,4950,0.206047,-0.994958,-4.632313,0.210306,-0.055888,1.022366
2011-10-03T14:34:23.614292,4960,0.151040,-0.932349,-4.540190,0.210841,-0.053299,1.022489
2011-10-03T14:34:23.624292,4970,0.096034,-0.869740,-4.448068,0.211376,-0.050709,1.022612
2011-10-03T14:34:23.634292,4980,0.042997,-0.808724,-4.355768,0.211827,-0.048270,1.022659
2011-10-03T14:34:23.644292,4990,0.021608,-0.773292,-4.260620,0.210943,-0.048232,1.021483
2011-10-03T14:34:23.654292,5000,0.000219,-0.737860,-4.165472,0.210059,-0.048195,1.020308
2011-10-03T14:34:23.664292,5010,-0.021171,-0.702428,-4.070325,0.209175,-0.048158,1.019133
2011-10-03T14:34:23.674292,5020,-0.042560,-0.666997,-3.975177,0.208291,-0.048120,1.017957
2011-10-03T14:34:23.684292,5030,-0.063949,-0.631565,-3.880029,0.207407,-0.048083,1.016782
2011-10-03T14:34:23.694292,5040,-0.085339,-0.596133,-3.784881,0.206522,-0.048045,1.015607
2011-10-03T14:34:23.704292,5050,-0.106728,-0.560702,-3.689733,0.205638,-0.048008,1.014431
2011-10-03T14:34:23.714292,5060,-0.128117,-0.525270,-3.594585,0.204754,-0.047971,1.013256
2011-10-03T14:34:23.724292,5070,-0.149507,-0.489838,-3.499437,0.203870,-0.047933,1.012081
2011-10-03T14:34:23.734292,5080,-0.166169,-0.458278,-3.407309,0.203020,-0.047817,1.010961
2011-10-03T14:34:23.744292,5090,-0.109932,-0.486428,-3.361760,0.202703,-0.046484,1.010695
2011-10-03T14:34:23.754292,5100,-0.053694,-0.514579,-3.316212,0.202385,-0.045151,1.010430
2011-10-03T14:34:23.764292,5110,0.002544,-0.542729,-3.270664,0.202067,-0.043818,1.010165
2011-10-03T14:34:23.774292,5120,0.058781,-0.570880,-3.225115,0.201749,-0.042484,1.009900
2011-10-03T14:34:23.784292,5130,0.115019,-0.599030,-3.179567,0.201431,-0.041151,1.009634
2011-10-03T14:34:23.794292,5140,0.171257,-0.627181,-3.134019,0.201113,-0.039818,1.009369
2011-10-03T14:34:23.804292,5150,0.227494,-0.655331,-3.088470,0.200795,-0.038485,1.009104
2011-10-03T14:34:23.814292,5160,0.283732,-0.683481,-3.042922,0.200477,-0.037152,1.008839
2011-10-03T14:34:23.824292,5170,0.339970,-0.711632,-2.997374,0.200159,-0.035819,1.008573
2011-10-03T14:34:23.834292,5180,0.396207,-0.739782,-2.951825,0.199841,-0.034486,1.008308
2011-10-03T14:34:23.844292,5190,0.446448,-0.768395,-2.906789,0.199592,-0.033110,1.008037
2011-10-03T14:34:23.854292,5200,0.386047,-0.805530,-2.871195,0.200609,-0.030949,1.007663
2011-10-03T14:34:23.864292,5210,0.325646,-0.842666,-2.835602,0.201625,-0.028788,1.007289
2011-10-03T14:34:23.874292,5220,0.265244,-0.879801,-2.800008,0.202642,-0.026626,1.006915
2011-10-03T14:34:23.884292,5230,0.204843,-0.916937,-2.764414,0.203659,-0.024465,1.006541
2011-10-03T14:34:23.894292,5240,0.144442,-0.954072,-2.728821,0.204675,-0.022304,1.006167
2011-10-03T14:34:23.904292,5250,0.084041,-0.991207,-2.693227,0.205692,-0.020143,1.005793
2011-10-03T14:34:23.914292,5260,0.023640,-1.028343,-2.657634,0.206708,-0.017982,1.005418
2011-10-03T14:34:23.924292,5270,-0.036762,-1.065478,-2.622040,0.207725,-0.015820,1.005044
2011-10-03T14:34:23.934292,5280,-0.097163,-1.102614,-2.586447,0.208742,-0.013659,1.004670
2011-10-03T14:34:23.944292,5290,-0.152406,-1.135207,-2.551365,0.209725,-0.011753,1.004436
2011-10-03T14:34:23.954292,5300,-0.130289,-1.099663,-2.523970,0.210206,-0.013671,1.006304
2011-10-03T14:34:23.964292,5310,-0.108172,-1.064119,-2.496576,0.210687,-0.015590,1.008173
2011-10-03T14:34:23.974292,5320,-0.086054,-1.028575,-2.469181,0.211168,-0.017508,1.010041
2011-10-03T14:34:23.984292,5330,-0.063937,-0.993031,-2.441786,0.211649,-0.019427,1.011909
2011-10-03T14:34:23.994292,5340,-0.041820,-0.957487,-2.414391,0.212130,-0.021345,1.013777
2011-10-03T14:34:24.004292,5350,-0.019702,-0.921943,-2.386996,0.212611,-0.023264,1.015646
2011-10-03T14:34:24.014292,5360,0.002415,-0.886399,-2.359601,0.213093,-0.025182,1.017514
2011-10-03T14:34:24.024292,5370,0.024533,-0.850855,-2.332206,0.213574,-0.027101,1.019382
2011-10-03T14:34:24.034292,5380,0.046650,-0.815311,-2.304811,0.214055,-0.029019,1.021250
2011-10-03T14:34:24.044292,5390,0.066676,-0.776670,-2.276383,0.214514,-0.030700,1.023001
2011-10-03T14:34:24.054292,5400,0.046394,-0.678318,-2.228045,0.214554,-0.027792,1.022493
2011-10-03T14:34:24.064292,5410,0.026111,-0.579966,-2.179707,0.214595,-0.024885,1.021985
2011-10-03T14:34:24.074292,5420,0.005828,-0.481615,-2.131369,0.214635,-0.021978,1.021477
2011-10-03T14:34:24.084292,5430,-0.014454,-0.383263,-2.083030,0.214675,-0.019070,1.020969
2011-10-03T14:34:24.094292,5440,-0.034737,-0.284911,-2.034692,0.214715,-0.016163,1.020461
2011-10-03T14:34:24.104292,5450,-0.055020,-0.186560,-1.986354,0.214755,-0.013255,1.019953
2011-10-03T14:34:24.114292,5460,-0.075303,-0.088208,-1.938016,0.214796,-0.010348,1.019445
2011-10-03T14:34:24.124292,5470,-0.095585,0.010144,-1.889678,0.214836,-0.007441,1.018936
2011-10-03T14:34:24.134292,5480,-0.115868,0.108496,-1.841339,0.214876,-0.004533,1.018428
2011-10-03T14:34:24.144292,5490,-0.136151,0.206847,-1.793001,0.214916,-0.001626,1.017920
2011-10-03T14:34:24.154292,5500,-0.152346,0.305141,-1.745369,0.214934,0.001203,1.017292
2011-10-03T14:34:24.164292,5510,-0.104716,0.402532,-1.708758,0.214598,0.002812,1.014795
2011-10-03T14:34:24.174292,5520,-0.057086,0.499922,-1.672147,0.214261,0.004420,1.012298
2011-10-03T14:34:24.184292,5530,-0.009456,0.597312,-1.635536,0.213925,0.006028,1.009801
2011-10-03T14:34:24.194292,5540,0.038174,0.694703,-1.598925,0.213589,0.007636,1.007304
2011-10-03T14:34:24.204292,5550,0.085804,0.792093,-1.562314,0.213253,0.009244,1.004807
2011-10-03T14:34:24.214292,5560,0.133434,0.889484,-1.525703,0.212916,0.010853,1.002310
2011-10-03T14:34:24.224292,5570,0.181064,0.986874,-1.489092,0.212580,0.012461,0.999813
2011-10-03T14:34:24.234292,5580,0.228694,1.084265,-1.452481,0.212244,0.014069,0.997316
2011-10-03T14:34:24.244292,5590,0.276324,1.181655,-1.415870,0.211908,0.015677,0.994819
2011-10-03T14:34:24.254292,5600,0.319398,1.270379,-1.380933,0.211518,0.017247,0.992312
2011-10-03T14:34:24.264292,5610,0.285679,1.213037,-1.374204,0.210224,0.018176,0.989623
2011-10-03T14:34:24.274292,5620,0.251960,1.155694,-1.367476,0.208930,0.019105,0.986935
2011-10-03T14:34:24.284292,5630,0.218241,1.098351,-1.360748,0.207637,0.020033,0.984246
2011-10-03T14:34:24.294292,5640,0.184521,1.041009,-1.354020,0.206343,0.020962,0.981557
2011-10-03T14:34:24.304292,5650,0.150802,0.983666,-1.347291,0.205049,0.021891,0.978869
2011-10-03T14:34:24.314292,5660,0.117083,0.926323,-1.340563,0.203756,0.022820,0.976180
2011-10-03T14:34:24.324292,5670,0.083364,0.868981,-1.333835,0.202462,0.023748,0.973492
2011-10-03T14:34:24.334292,5680,0.049645,0.811638,-1.327107,0.201168,0.024677,0.970803
2011-10-03T14:34:24.344292,5690,0.015926,0.754295,-1.320378,0.199874,0.025606,0.968115
2011-10-03T14:34:24.354292,5700,-0.009327,0.696247,-1.313112,0.198649,0.026383,0.965640
2011-10-03T14:34:24.364292,5710,0.098101,0.627140,-1.297417,0.198492,0.024790,0.966520
2011-10-03T14:34:24.374292,5720,0.205529,0.558034,-1.281721,0.198335,0.023197,0.967400
2011-10-03T14:34:24.384292,5730,0.312957,0.488927,-1.266025,0.198178,0.021604,0.968280
2011-10-03T14:34:24.394292,5740,0.420385,0.419821,-1.250329,0.198020,0.020011,0.969160
2011-10-03T14:34:24.404292,5750,0.527813,0.350714,-1.234634,0.197863,0.018418,0.970041
2011-10-03T14:34:24.414292,5760,0.635241,0.281607,-1.218938,0.197706,0.016825,0.970921
2011-10-03T14:34:24.424292,5770,0.742669,0.212501,-1.203242,0.197549,0.015232,0.971801
2011-10-03T14:34:24.434292,5780,0.850097,0.143394,-1.187546,0.197392,0.013639,0.972681
2011-10-03T14:34:24.444292,5790,0.957525,0.074288,-1.171851,0.197235,0.012046,0.973561
2011-10-03T14:34:24.454292,5800,1.064953,0.005181,-1.156155,0.197078,0.010453,0.974441
2011-10-03T14:34:24.464292,5810,1.157928,-0.061310,-1.138362,0.197012,0.009048,0.975585
2011-10-03T14:34:24.474292,5820,1.047404,-0.090976,-1.091033,0.198235,0.010275,0.980443
2011-10-03T14:34:24.484292,5830,0.936879,-0.120641,-1.043704,0.199457,0.011502,0.985302
2011-10-03T14:34:24.494292,5840,0.826355,-0.150307,-0.996375,0.200679,0.012730,0.990160
2011-10-03T14:34:24.504292,5850,0.715830,-0.179972,-0.949046,0.201902,0.013957,0.995019
2011-10-03T14:34:24.514292,5860,0.605306,-0.209638,-0.901717,0.203124,0.015185,0.999877
2011-10-03T14:34:24.524292,5870,0.494781,-0.239303,-0.854389,0.204347,0.016412,1.004736
2011-10-03T14:34:24.534292,5880,0.384257,-0.268969,-0.807060,0.205569,0.017639,1.009594
2011-10-03T14:34:24.544292,5890,0.273732,-0.298634,-0.759731,0.206792,0.018867,1.014453
2011-10-03T14:34:24.554292,5900,0.163207,-0.328300,-0.712402,0.208014,0.020094,1.019312
2011-10-03T14:34:24.564292,5910,0.064993,-0.356407,-0.665670,0.209060,0.021249,1.023707
2011-10-03T14:34:24.574292,5920,0.137681,-0.362878,-0.627232,0.207646,0.021392,1.021672
2011-10-03T14:34:24.584292,5930,0.210370,-0.369348,-0.588793,0.206233,0.021536,1.019638
2011-10-03T14:34:24.594292,5940,0.283058,-0.375819,-0.550354,0.204820,0.021680,1.017603
2011-10-03T14:34:24.604292,5950,0.355747,-0.382290,-0.511915,0.203407,0.021823,1.015568
2011-10-03T14:34:24.614292,5960,0.428435,-0.388760,-0.473477,0.201994,0.021967,1.013533
2011-10-03T14:34:24.624292,5970,0.501124,-0.395231,-0.435038,0.200581,0.022111,1.011499
2011-10-03T14:34:24.634292,5980,0.573812,-0.401702,-0.396599,0.199167,0.022254,1.009464
2011-10-03T14:34:24.644292,5990,0.646501,-0.408172,-0.358160,0.197754,0.022398,1.007429
2011-10-03T14:34:24.654292,6000,0.719189,-0.414643,-0.319722,0.196341,0.022542,1.005395
2011-10-03T14:34:24.664292,6010,0.791877,-0.421114,-0.281283,0.194928,0.022685,1.003360
2011-10-03T14:34:24.674292,6020,0.852814,-0.426744,-0.243973,0.193558,0.022963,1.001540
2011-10-03T14:34:24.684292,6030,0.759294,-0.421324,-0.221500,0.192755,0.025000,1.002539
2011-10-03T14:34:24.694292,6040,0.665774,-0.415904,-0.199027,0.191952,0.027037,1.003538
2011-10-03T14:34:24.704292,6050,0.572253,-0.410484,-0.176553,0.191149,0.029074,1.004538
2011-10-03T14:34:24.714292,6060,0.478733,-0.405064,-0.154080,0.190346,0.031111,1.005537
2011-10-03T14:34:24.724292,6070,0.385212,-0.399644,-0.131607,0.189543,0.033148,1.006536
2011-10-03T14:34:24.734292,6080,0.291692,-0.394224,-0.109134,0.188740,0.035185,1.007536
2011-10-03T14:34:24.744292,6090,0.198171,-0.388805,-0.086660,0.187937,0.037222,1.008535
2011-10-03T14:34:24.754292,6100,0.104651,-0.383385,-0.064187,0.187134,0.039259,1.009534
2011-10-03T14:34:24.764292,6110,0.011131,-0.377965,-0.041714,0.186331,0.041296,1.010533
2011-10-03T14:34:24.774292,6120,-0.078354,-0.374017,-0.019096,0.185600,0.043280,1.011489
2011-10-03T14:34:24.784292,6130,-0.081401,-0.401593,0.006619,0.186419,0.044141,1.011513
2011-10-03T14:34:24.794292,6140,-0.084448,-0.429170,0.032335,0.187237,0.045002,1.011537
2011-10-03T14:34:24.804292,6150,-0.087495,-0.456746,0.058050,0.188056,0.045863,1.011561
2011-10-03T14:34:24.814292,6160,-0.090542,-0.484323,0.083766,0.188875,0.046723,1.011585
2011-10-03T14:34:24.824292,6170,-0.093588,-0.511900,0.109481,0.189693,0.047584,1.011610
2011-10-03T14:34:24.834292,6180,-0.096635,-0.539476,0.135197,0.190512,0.048445,1.011634
2011-10-03T14:34:24.844292,6190,-0.099682,-0.567053,0.160912,0.191331,0.049305,1.011658
2011-10-03T14:34:24.854292,6200,-0.102729,-0.594629,0.186627,0.192150,0.050166,1.011682
2011-10-03T14:34:24.864292,6210,-0.105775,-0.622206,0.212343,0.192968,0.051027,1.011706
2011-10-03T14:34:24.874292,6220,-0.107109,-0.643786,0.238074,0.193751,0.051964,1.011842
2011-10-03T14:34:24.884292,6230,-0.082963,-0.576173,0.264036,0.193999,0.054036,1.013641
2011-10-03T14:34:24.894292,6240,-0.058816,-0.508559,0.289999,0.194246,0.056107,1.015440
2011-10-03T14:34:24.904292,6250,-0.034670,-0.440946,0.315961,0.194494,0.058179,1.017239
2011-10-03T14:34:24.914292,6260,-0.010523,-0.373332,0.341924,0.194742,0.060250,1.019039
2011-10-03T14:34:24.924292,6270,0.013623,-0.305719,0.367887,0.194989,0.062322,1.020838
2011-10-03T14:34:24.934292,6280,0.037770,-0.238106,0.393849,0.195237,0.064393,1.022637
2011-10-03T14:34:24.944292,6290,0.061916,-0.170492,0.419812,0.195485,0.066465,1.024437
2011-10-03T14:34:24.954292,6300,0.086063,-0.102879,0.445774,0.195732,0.068537,1.026236
2011-10-03T14:34:24.964292,6310,0.110209,-0.035265,0.471737,0.195980,0.070608,1.028035
2011-10-03T14:34:24.974292,6320,0.134356,0.032348,0.497699,0.196228,0.072680,1.029834
2011-10-03T14:34:24.984292,6330,0.153020,0.097410,0.523724,0.196471,0.074538,1.031129
2011-10-03T14:34:24.994292,6340,0.102583,0.130314,0.550523,0.196656,0.073707,1.026061
2011-10-03T14:34:25.004292,6350,0.052146,0.163217,0.577323,0.196842,0.072875,1.020993
2011-10-03T14:34:25.014292,6360,0.001710,0.196121,0.604123,0.197027,0.072044,1.015925
2011-10-03T14:34:25.024292,6370,-0.048727,0.229024,0.630923,0.197212,0.071213,1.010857
2011-10-03T14:34:25.034292,6380,-0.099164,0.261928,0.657723,0.197398,0.070381,1.005789
2011-10-03T14:34:25.044292,6390,-0.149600,0.294831,0.684523,0.197583,0.069550,1.000721
2011-10-03T14:34:25.054292,6400,-0.200037,0.327735,0.711323,0.197768,0.068719,0.995653
2011-10-03T14:34:25.064292,6410,-0.250474,0.360638,0.738123,0.197954,0.067887,0.990585
2011-10-03T14:34:25.074292,6420,-0.300910,0.393541,0.764923,0.198139,0.067056,0.985517
2011-10-03T14:34:25.084292,6430,-0.342176,0.418570,0.788862,0.198312,0.066277,0.980821
2011-10-03T14:34:25.094292,6440,-0.270173,0.346341,0.777462,0.198328,0.066144,0.980716
2011-10-03T14:34:25.104292,6450,-0.198171,0.274112,0.766063,0.198344,0.066011,0.980611
2011-10-03T14:34:25.114292,6460,-0.126169,0.201882,0.754663,0.198360,0.065878,0.980506
2011-10-03T14:34:25.124292,6470,-0.054166,0.129653,0.743264,0.198377,0.065745,0.980401
2011-10-03T14:34:25.134292,6480,0.017836,0.057423,0.731865,0.198393,0.065612,0.980296
2011-10-03T14:34:25.144292,6490,0.089838,-0.014806,0.720465,0.198409,0.065479,0.980191
2011-10-03T14:34:25.154292,6500,0.161841,-0.087035,0.709066,0.198426,0.065346,0.980086
2011-10-03T14:34:25.164292,6510,0.233843,-0.159265,0.697667,0.198442,0.065213,0.979981
2011-10-03T14:34:25.174292,6520,0.305845,-0.231494,0.686267,0.198458,0.065080,0.979877
2011-10-03T14:34:25.184292,6530,0.370535,-0.299035,0.675264,0.198534,0.065078,0.979986
2011-10-03T14:34:25.194292,6540,0.345158,-0.308834,0.669136,0.199346,0.066687,0.982741
2011-10-03T14:34:25.204292,6550,0.319781,-0.318634,0.663009,0.200157,0.068295,0.985495
2011-10-03T14:34:25.214292,6560,0.294404,-0.328433,0.656881,0.200968,0.069904,0.988249
2011-10-03T14:34:25.224292,6570,0.269027,-0.338233,0.650754,0.201780,0.071513,0.991004
2011-10-03T14:34:25.234292,6580,0.243650,-0.348032,0.644626,0.202591,0.073122,0.993758
2011-10-03T14:34:25.244292,6590,0.218273,-0.357831,0.638499,0.203403,0.074731,0.996512
2011-10-03T14:34:25.254292,6600,0.192896,-0.367631,0.632371,0.204214,0.076340,0.999266
2011-10-03T14:34:25.264292,6610,0.167519,-0.377430,0.626244,0.205026,0.077949,1.002021
2011-10-03T14:34:25.274292,6620,0.142142,-0.387230,0.620116,0.205837,0.079557,1.004775
2011-10-03T14:34:25.284292,6630,0.116765,-0.397029,0.613989,0.206649,0.081166,1.007529
2011-10-03T14:34:25.294292,6640,0.095764,-0.405798,0.607744,0.207412,0.082577,1.010089
2011-10-03T14:34:25.304292,6650,0.141769,-0.398795,0.599700,0.207443,0.080953,1.009665
2011-10-03T14:34:25.314292,6660,0.187775,-0.391791,0.591657,0.207473,0.079330,1.009241
2011-10-03T14:34:25.324292,6670,0.233780,-0.384787,0.583613,0.207503,0.077706,1.008817
2011-10-03T14:34:25.334292,6680,0.279786,-0.377783,0.575569,0.207534,0.076083,1.008393
2011-10-03T14:34:25.344292,6690,0.325791,-0.370780,0.567526,0.207564,0.074459,1.007969
2011-10-03T14:34:25.354292,6700,0.371796,-0.363776,0.559482,0.207595,0.072836,1.007545
2011-10-03T14:34:25.364292,6710,0.417802,-0.356772,0.551438,0.207625,0.071212,1.007121
2011-10-03T14:34:25.374292,6720,0.463807,-0.349769,0.543395,0.207655,0.069589,1.006697
2011-10-03T14:34:25.384292,6730,0.509813,-0.342765,0.535351,0.207686,0.067965,1.006273
2011-10-03T14:34:25.394292,6740,0.548509,-0.333130,0.527922,0.207558,0.066454,1.005977
2011-10-03T14:34:25.404292,6750,0.497181,-0.291089,0.528068,0.205483,0.066322,1.007249
2011-10-03T14:34:25.414292,6760,0.445854,-0.249047,0.528214,0.203407,0.066190,1.008520
2011-10-03T14:34:25.424292,6770,0.394526,-0.207006,0.528359,0.201332,0.066058,1.009792
2011-10-03T14:34:25.434292,6780,0.343199,-0.164965,0.528505,0.199257,0.065926,1.011064
2011-10-03T14:34:25.444292,6790,0.291871,-0.122924,0.528651,0.197182,0.065795,1.012336
2011-10-03T14:34:25.454292,6800,0.240544,-0.080882,0.528796,0.195106,0.065663,1.013607
2011-10-03T14:34:25.464292,6810,0.189216,-0.038841,0.528942,0.193031,0.065531,1.014879
2011-10-03T14:34:25.474292,6820,0.137889,0.003200,0.529088,0.190956,0.065399,1.016151
2011-10-03T14:34:25.484292,6830,0.086562,0.045241,0.529233,0.188881,0.065267,1.017423
2011-10-03T14:34:25.494292,6840,0.035234,0.087282,0.529379,0.186805,0.065136,1.018694
2011-10-03T14:34:25.504292,6850,-0.004248,0.133248,0.529052,0.184685,0.065018,1.019823
2011-10-03T14:34:25.514292,6860,0.095709,0.225411,0.523164,0.182033,0.065072,1.019262
2011-10-03T14:34:25.524292,6870,0.195667,0.317575,0.517276,0.179381,0.065126,1.018701
2011-10-03T14:34:25.534292,6880,0.295625,0.409738,0.511388,0.176729,0.065180,1.018141
2011-10-03T14:34:25.544292,6890,0.395583,0.501901,0.505499,0.174077,0.065233,1.017580
2011-10-03T14:34:25.554292,6900,0.495541,0.594065,0.499611,0.171425,0.065287,1.017020
2011-10-03T14:34:25.564292,6910,0.595499,0.686228,0.493723,0.168773,0.065341,1.016459
2011-10-03T14:34:25.574292,6920,0.695456,0.778391,0.487835,0.166121,0.065395,1.015898
2011-10-03T14:34:25.584292,6930,0.795414,0.870554,0.481947,0.163468,0.065448,1.015338
2011-10-03T14:34:25.594292,6940,0.895372,0.962718,0.476058,0.160816,0.065502,1.014777
2011-10-03T14:34:25.604292,6950,0.986842,1.046868,0.469740,0.158199,0.065447,1.014073
2011-10-03T14:34:25.614292,6960,0.978970,1.037229,0.458387,0.155984,0.064122,1.011689
2011-10-03T14:34:25.624292,6970,0.971097,1.027591,0.447034,0.153770,0.062797,1.009305
2011-10-03T14:34:25.634292,6980,0.963224,1.017952,0.435681,0.151555,0.061471,1.006921
2011-10-03T14:34:25.644292,6990,0.955351,1.008314,0.424328,0.149340,0.060146,1.004537
2011-10-03T14:34:25.654292,7000,0.947478,0.998675,0.412974,0.147126,0.058820,1.002154
2011-10-03T14:34:25.664292,7010,0.939606,0.989036,0.401621,0.144911,0.057495,0.999770
2011-10-03T14:34:25.674292,7020,0.931733,0.979398,0.390268,0.142696,0.056170,0.997386
2011-10-03T14:34:25.684292,7030,0.923860,0.969759,0.378915,0.140482,0.054844,0.995002
2011-10-03T14:34:25.694292,7040,0.915987,0.960120,0.367562,0.138267,0.053519,0.992618
2011-10-03T14:34:25.704292,7050,0.907642,0.942272,0.357539,0.136120,0.052345,0.990165
2011-10-03T14:34:25.714292,7060,0.893660,0.826421,0.363404,0.134776,0.052976,0.986888
2011-10-03T14:34:25.724292,7070,0.879678,0.710569,0.369269,0.133433,0.053607,0.983611
2011-10-03T14:34:25.734292,7080,0.865696,0.594718,0.375133,0.132089,0.054238,0.980335
2011-10-03T14:34:25.744292,7090,0.851714,0.478866,0.380998,0.130746,0.054869,0.977058
2011-10-03T14:34:25.754292,7100,0.837732,0.363015,0.386862,0.129402,0.055500,0.973781
2011-10-03T14:34:25.764292,7110,0.823750,0.247163,0.392727,0.128059,0.056131,0.970504
2011-10-03T14:34:25.774292,7120,0.809768,0.131312,0.398592,0.126715,0.056762,0.967228
2011-10-03T14:34:25.784292,7130,0.795786,0.015460,0.404456,0.125372,0.057393,0.963951
2011-10-03T14:34:25.794292,7140,0.781803,-0.100391,0.410321,0.124028,0.058024,0.960674
2011-10-03T14:34:25.804292,7150,0.767821,-0.216243,0.416185,0.122684,0.058655,0.957397
2011-10-03T14:34:25.814292,7160,0.756963,-0.327256,0.422349,0.121534,0.059349,0.954837
2011-10-03T14:34:25.824292,7170,0.791865,-0.367382,0.432890,0.123221,0.060965,0.962768
2011-10-03T14:34:25.834292,7180,0.826767,-0.407509,0.443432,0.124907,0.062582,0.970700
2011-10-03T14:34:25.844292,7190,0.861670,-0.447635,0.453974,0.126594,0.064198,0.978631
2011-10-03T14:34:25.854292,7200,0.896572,-0.487761,0.464516,0.128280,0.065815,0.986563
2011-10-03T14:34:25.864292,7210,0.931474,-0.527888,0.475058,0.129967,0.067432,0.994494
2011-10-03T14:34:25.874292,7220,0.966377,-0.568014,0.485599,0.131653,0.069048,1.002426
2011-10-03T14:34:25.884292,7230,1.001279,-0.608140,0.496141,0.133340,0.070665,1.010357
2011-10-03T14:34:25.894292,7240,1.036182,-0.648266,0.506683,0.135026,0.072281,1.018289
2011-10-03T14:34:25.904292,7250,1.071084,-0.688393,0.517225,0.136712,0.073898,1.026220
2011-10-03T14:34:25.914292,7260,1.092406,-0.719940,0.525416,0.138319,0.075390,1.033398
2011-10-03T14:34:25.924292,7270,0.961902,-0.655575,0.507334,0.139032,0.075485,1.032145
2011-10-03T14:34:25.934292,7280,0.831399,-0.591211,0.489252,0.139746,0.075581,1.030893
2011-10-03T14:34:25.944292,7290,0.700895,-0.526846,0.471170,0.140459,0.075677,1.029641
2011-10-03T14:34:25.954292,7300,0.570392,-0.462481,0.453088,0.141172,0.075773,1.028388
2011-10-03T14:34:25.964292,7310,0.439888,-0.398117,0.435006,0.141885,0.075869,1.027136
2011-10-03T14:34:25.974292,7320,0.309385,-0.333752,0.416925,0.142599,0.075964,1.025884
2011-10-03T14:34:25.984292,7330,0.178881,-0.269388,0.398843,0.143312,0.076060,1.024631
2011-10-03T14:34:25.994292,7340,0.048378,-0.205023,0.380761,0.144025,0.076156,1.023379
2011-10-03T14:34:26.004292,7350,-0.082126,-0.140659,0.362679,0.144739,0.076252,1.022127
2011-10-03T14:34:26.014292,7360,-0.199639,-0.080461,0.344296,0.145500,0.076250,1.020705
2011-10-03T14:34:26.024292,7370,-0.177462,-0.065066,0.322675,0.146775,0.075206,1.017461
2011-10-03T14:34:26.034292,7380,-0.155285,-0.049671,0.301054,0.148050,0.074162,1.014217
2011-10-03T14:34:26.044292,7390,-0.133109,-0.034276,0.279433,0.149325,0.073118,1.010972
2011-10-03T14:34:26.054292,7400,-0.110932,-0.018881,0.257812,0.150600,0.072073,1.007728
2011-10-03T14:34:26.064292,7410,-0.088756,-0.003486,0.236192,0.151875,0.071029,1.004484
2011-10-03T14:34:26.074292,7420,-0.066579,0.011909,0.214571,0.153150,0.069985,1.001240
2011-10-03T14:34:26.084292,7430,-0.044402,0.027303,0.192950,0.154425,0.068941,0.997996
2011-10-03T14:34:26.094292,7440,-0.022226,0.042698,0.171329,0.155700,0.067897,0.994751
2011-10-03T14:34:26.104292,7450,-0.000049,0.058093,0.149708,0.156975,0.066852,0.991507
2011-10-03T14:34:26.114292,7460,0.022127,0.073488,0.128087,0.158250,0.065808,0.988263
2011-10-03T14:34:26.124292,7470,0.041171,0.093605,0.108081,0.159399,0.064831,0.985154
2011-10-03T14:34:26.134292,7480,0.026574,0.164422,0.105411,0.159202,0.064570,0.983493
2011-10-03T14:34:26.144292,7490,0.011977,0.235238,0.102741,0.159005,0.064310,0.981832
2011-10-03T14:34:26.154292,7500,-0.002620,0.306054,0.100071,0.158808,0.064050,0.980171
2011-10-03T14:34:26.164292,7510,-0.017217,0.376871,0.097401,0.158611,0.063790,0.978511
2011-10-03T14:34:26.174292,7520,-0.031814,0.447687,0.094731,0.158413,0.063530,0.976850
2011-10-03T14:34:26.184292,7530,-0.046411,0.518503,0.092061,0.158216,0.063269,0.975189
2011-10-03T14:34:26.194292,7540,-0.061008,0.589320,0.089391,0.158019,0.063009,0.973528
2011-10-03T14:34:26.204292,7550,-0.075605,0.660136,0.086721,0.157822,0.062749,0.971868
2011-10-03T14:34:26.214292,7560,-0.090202,0.730953,0.084051,0.157625,0.062489,0.970207
2011-10-03T14:34:26.224292,7570,-0.096422,0.791887,0.082431,0.157394,0.062336,0.968684
2011-10-03T14:34:26.234292,7580,-0.016369,0.751042,0.091630,0.156822,0.063285,0.968588
2011-10-03T14:34:26.244292,7590,0.063685,0.710197,0.100828,0.156249,0.064234,0.968492
2011-10-03T14:34:26.254292,7600,0.143739,0.669351,0.110027,0.155676,0.065183,0.968395
2011-10-03T14:34:26.264292,7610,0.223792,0.628506,0.119225,0.155104,0.066132,0.968299
2011-10-03T14:34:26.274292,7620,0.303846,0.587661,0.128424,0.154531,0.067081,0.968203
2011-10-03T14:34:26.284292,7630,0.383899,0.546816,0.137622,0.153958,0.068030,0.968106
2011-10-03T14:34:26.294292,7640,0.463953,0.505971,0.146821,0.153386,0.068979,0.968010
2011-10-03T14:34:26.304292,7650,0.544006,0.465126,0.156020,0.152813,0.069929,0.967913
2011-10-03T14:34:26.314292,7660,0.624060,0.424281,0.165218,0.152241,0.070878,0.967817
2011-10-03T14:34:26.324292,7670,0.704114,0.383436,0.174417,0.151668,0.071827,0.967721
2011-10-03T14:34:26.334292,7680,0.775921,0.344395,0.181350,0.150979,0.072479,0.967948
2011-10-03T14:34:26.344292,7690,0.756986,0.325208,0.163350,0.149009,0.069861,0.971736
2011-10-03T14:34:26.354292,7700,0.738050,0.306022,0.145350,0.147038,0.067243,0.975524
2011-10-03T14:34:26.364292,7710,0.719114,0.286836,0.127350,0.145068,0.064626,0.979311
2011-10-03T14:34:26.374292,7720,0.700178,0.267649,0.109350,0.143097,0.062008,0.983099
2011-10-03T14:34:26.384292,7730,0.681242,0.248463,0.091350,0.141127,0.059390,0.986887
2011-10-03T14:34:26.394292,7740,0.662307,0.229277,0.073350,0.139157,0.056772,0.990675
2011-10-03T14:34:26.404292,7750,0.643371,0.210090,0.055350,0.137186,0.054155,0.994463
2011-10-03T14:34:26.414292,7760,0.624435,0.190904,0.037350,0.135216,0.051537,0.998251
2011-10-03T14:34:26.424292,7770,0.605499,0.171718,0.019350,0.133246,0.048919,1.002039
2011-10-03T14:34:26.434292,7780,0.585043,0.148490,0.002881,0.131447,0.046589,1.005496
2011-10-03T14:34:26.444292,7790,0.546886,0.078210,0.004240,0.131640,0.047601,1.005104
2011-10-03T14:34:26.454292,7800,0.508729,0.007931,0.005599,0.131833,0.048613,1.004712
2011-10-03T14:34:26.464292,7810,0.470571,-0.062349,0.006958,0.132026,0.049625,1.004320
2011-10-03T14:34:26.474292,7820,0.432414,-0.132629,0.008316,0.132219,0.050638,1.003928
2011-10-03T14:34:26.484292,7830,0.394257,-0.202908,0.009675,0.132412,0.051650,1.003537
2011-10-03T14:34:26.494292,7840,0.356100,-0.273188,0.011034,0.132605,0.052662,1.003145
2011-10-03T14:34:26.504292,7850,0.317943,-0.343468,0.012393,0.132798,0.053674,1.002753
2011-10-03T14:34:26.514292,7860,0.279786,-0.413747,0.013751,0.132991,0.054686,1.002361
2011-10-03T14:34:26.524292,7870,0.241628,-0.484027,0.015110,0.133184,0.055698,1.001969
2011-10-03T14:34:26.534292,7880,0.203891,-0.545954,0.014259,0.133403,0.056644,1.001788
2011-10-03T14:34:26.544292,7890,0.170320,-0.524949,-0.008538,0.133878,0.056923,1.003708
2011-10-03T14:34:26.554292,7900,0.136749,-0.503944,-0.031334,0.134353,0.057202,1.005627
2011-10-03T14:34:26.564292,7910,0.103178,-0.482939,-0.054130,0.134828,0.057481,1.007547
2011-10-03T14:34:26.574292,7920,0.069607,-0.461935,-0.076926,0.135303,0.057760,1.009466
2011-10-03T14:34:26.584292,7930,0.036036,-0.440930,-0.099723,0.135778,0.058039,1.011386
2011-10-03T14:34:26.594292,7940,0.002465,-0.419925,-0.122519,0.136253,0.058318,1.013305
2011-10-03T14:34:26.604292,7950,-0.031106,-0.398921,-0.145315,0.136728,0.058597,1.015225
2011-10-03T14:34:26.614292,7960,-0.064677,-0.377916,-0.168111,0.137203,0.058876,1.017144
2011-10-03T14:34:26.624292,7970,-0.098248,-0.356911,-0.190907,0.137678,0.059155,1.019064
2011-10-03T14:34:26.634292,7980,-0.131819,-0.335906,-0.213704,0.138153,0.059434,1.020983
2011-10-03T14:34:26.644292,7990,-0.165899,-0.315516,-0.237525,0.138511,0.059508,1.022526
2011-10-03T14:34:26.654292,8000,-0.205115,-0.301338,-0.271713,0.137686,0.057515,1.020266
2011-10-03T14:34:26.664292,8010,-0.244332,-0.287161,-0.305901,0.136861,0.055522,1.018006
2011-10-03T14:34:26.674292,8020,-0.283549,-0.272983,-0.340090,0.136037,0.053529,1.015747
2011-10-03T14:34:26.684292,8030,-0.322766,-0.258805,-0.374278,0.135212,0.051536,1.013487
2011-10-03T14:34:26.694292,8040,-0.361983,-0.244628,-0.408466,0.134387,0.049543,1.011227
2011-10-03T14:34:26.704292,8050,-0.401200,-0.230450,-0.442654,0.133562,0.047550,1.008967
2011-10-03T14:34:26.714292,8060,-0.440417,-0.216273,-0.476843,0.132737,0.045557,1.006707
2011-10-03T14:34:26.724292,8070,-0.479634,-0.202095,-0.511031,0.131913,0.043564,1.004447
2011-10-03T14:34:26.734292,8080,-0.518851,-0.187917,-0.545219,0.131088,0.041571,1.002187
2011-10-03T14:34:26.744292,8090,-0.554355,-0.176129,-0.577331,0.130417,0.039807,1.000314
2011-10-03T14:34:26.754292,8100,-0.547849,-0.191380,-0.585955,0.131488,0.040636,1.002830
2011-10-03T14:34:26.764292,8110,-0.541343,-0.206630,-0.594578,0.132559,0.041465,1.005345
2011-10-03T14:34:26.774292,8120,-0.534836,-0.221881,-0.603201,0.133630,0.042294,1.007860
2011-10-03T14:34:26.784292,8130,-0.528330,-0.237131,-0.611825,0.134701,0.043123,1.010376
2011-10-03T14:34:26.794292,8140,-0.521824,-0.252382,-0.620448,0.135773,0.043952,1.012891
2011-10-03T14:34:26.804292,8150,-0.515318,-0.267632,-0.629071,0.136844,0.044781,1.015407
2011-10-03T14:34:26.814292,8160,-0.508811,-0.282883,-0.637695,0.137915,0.045610,1.017922
2011-10-03T14:34:26.824292,8170,-0.502305,-0.298133,-0.646318,0.138986,0.046439,1.020437
2011-10-03T14:34:26.834292,8180,-0.495799,-0.313384,-0.654942,0.140057,0.047268,1.022953
2011-10-03T14:34:26.844292,8190,-0.491136,-0.324280,-0.662537,0.141102,0.047946,1.025062
2011-10-03T14:34:26.854292,8200,-0.509598,-0.280530,-0.657237,0.141816,0.046721,1.022070
2011-10-03T14:34:26.864292,8210,-0.528060,-0.236781,-0.651936,0.142530,0.045496,1.019079
2011-10-03T14:34:26.874292,8220,-0.546522,-0.193031,-0.646636,0.143244,0.044271,1.016088
2011-10-03T14:34:26.884292,8230,-0.564984,-0.149282,-0.641335,0.143958,0.043047,1.013097
2011-10-03T14:34:26.894292,8240,-0.583446,-0.105532,-0.636035,0.144672,0.041822,1.010105
2011-10-03T14:34:26.904292,8250,-0.601908,-0.061782,-0.630734,0.145386,0.040597,1.007114
2011-10-03T14:34:26.914292,8260,-0.620370,-0.018033,-0.625434,0.146100,0.039373,1.004123
2011-10-03T14:34:26.924292,8270,-0.638832,0.025717,-0.620133,0.146814,0.038148,1.001132
2011-10-03T14:34:26.934292,8280,-0.657294,0.069466,-0.614832,0.147528,0.036923,0.998141
2011-10-03T14:34:26.944292,8290,-0.675756,0.113216,-0.609532,0.148242,0.035699,0.995149
2011-10-03T14:34:26.954292,8300,-0.687079,0.154249,-0.604776,0.148961,0.034628,0.992565
2011-10-03T14:34:26.964292,8310,-0.630233,0.169342,-0.605220,0.149721,0.035027,0.993866
2011-10-03T14:34:26.974292,8320,-0.573388,0.184435,-0.605664,0.150482,0.035425,0.995167
2011-10-03T14:34:26.984292,8330,-0.516543,0.199528,-0.606109,0.151243,0.035824,0.996467
2011-10-03T14:34:26.994292,8340,-0.459698,0.214621,-0.606553,0.152004,0.036223,0.997768
2011-10-03T14:34:27.004292,8350,-0.402853,0.229715,-0.606997,0.152765,0.036622,0.999069
2011-10-03T14:34:27.014292,8360,-0.346008,0.244808,-0.607441,0.153526,0.037021,1.000370
2011-10-03T14:34:27.024292,8370,-0.289163,0.259901,-0.607885,0.154287,0.037420,1.001671
2011-10-03T14:34:27.034292,8380,-0.232318,0.274994,-0.608330,0.155048,0.037818,1.002971
2011-10-03T14:34:27.044292,8390,-0.175473,0.290087,-0.608774,0.155808,0.038217,1.004272
2011-10-03T14:34:27.054292,8400,-0.134175,0.303243,-0.606073,0.156392,0.038455,1.005057
2011-10-03T14:34:27.064292,8410,-0.242050,0.297816,-0.573191,0.155278,0.037149,1.000886
2011-10-03T14:34:27.074292,8420,-0.349926,0.292388,-0.540310,0.154163,0.035843,0.996716
2011-10-03T14:34:27.084292,8430,-0.457801,0.286960,-0.507428,0.153048,0.034536,0.992545
2011-10-03T14:34:27.094292,8440,-0.565676,0.281532,-0.474546,0.151934,0.033230,0.988375
2011-10-03T14:34:27.104292,8450,-0.673552,0.276105,-0.441665,0.150819,0.031924,0.984205
2011-10-03T14:34:27.114292,8460,-0.781427,0.270677,-0.408783,0.149704,0.030618,0.980034
2011-10-03T14:34:27.124292,8470,-0.889303,0.265249,-0.375902,0.148590,0.029311,0.975864
2011-10-03T14:34:27.134292,8480,-0.997178,0.259821,-0.343020,0.147475,0.028005,0.971694
2011-10-03T14:34:27.144292,8490,-1.105054,0.254393,-0.310139,0.146360,0.026699,0.967523
2011-10-03T14:34:27.154292,8500,-1.195176,0.240692,-0.285257,0.145328,0.025455,0.963965
2011-10-03T14:34:27.164292,8510,-1.114814,0.147538,-0.337200,0.145085,0.024813,0.966287
2011-10-03T14:34:27.174292,8520,-1.034452,0.054384,-0.389142,0.144842,0.024171,0.968609
2011-10-03T14:34:27.184292,8530,-0.954089,-0.038770,-0.441085,0.144598,0.023529,0.970930
2011-10-03T14:34:27.194292,8540,-0.873727,-0.131924,-0.493027,0.144355,0.022887,0.973252
2011-10-03T14:34:27.204292,8550,-0.793364,-0.225078,-0.544970,0.144112,0.022245,0.975574
2011-10-03T14:34:27.214292,8560,-0.713002,-0.318231,-0.596912,0.143869,0.021604,0.977895
2011-10-03T14:34:27.224292,8570,-0.632640,-0.411385,-0.648855,0.143626,0.020962,0.980217
2011-10-03T14:34:27.234292,8580,-0.552277,-0.504539,-0.700797,0.143382,0.020320,0.982539
2011-10-03T14:34:27.244292,8590,-0.471915,-0.597693,-0.752740,0.143139,0.019678,0.984860
2011-10-03T14:34:27.254292,8600,-0.391552,-0.690847,-0.804682,0.142896,0.019036,0.987182
2011-10-03T14:34:27.264292,8610,-0.319771,-0.779162,-0.856828,0.142693,0.018437,0.989713
2011-10-03T14:34:27.274292,8620,-0.342536,-0.814154,-0.911210,0.142936,0.018312,0.994552
2011-10-03T14:34:27.284292,8630,-0.365302,-0.849146,-0.965593,0.143179,0.018188,0.999391
2011-10-03T14:34:27.294292,8640,-0.388067,-0.884138,-1.019975,0.143421,0.018064,1.004230
2011-10-03T14:34:27.304292,8650,-0.410833,-0.919130,-1.074357,0.143664,0.017939,1.009069
2011-10-03T14:34:27.314292,8660,-0.433599,-0.954122,-1.128740,0.143907,0.017815,1.013908
2011-10-03T14:34:27.324292,8670,-0.456364,-0.989114,-1.183122,0.144150,0.017691,1.018747
2011-10-03T14:34:27.334292,8680,-0.479130,-1.024106,-1.237505,0.144392,0.017566,1.023586
2011-10-03T14:34:27.344292,8690,-0.501896,-1.059098,-1.291887,0.144635,0.017442,1.028425
2011-10-03T14:34:27.354292,8700,-0.524661,-1.094090,-1.346270,0.144878,0.017318,1.033264
2011-10-03T14:34:27.364292,8710,-0.537161,-1.117032,-1.401438,0.144866,0.017149,1.037455
2011-10-03T14:34:27.374292,8720,-0.451188,-1.024391,-1.464139,0.142413,0.016553,1.035432
2011-10-03T14:34:27.384292,8730,-0.365214,-0.931750,-1.526841,0.139960,0.015958,1.033409
2011-10-03T14:34:27.394292,8740,-0.279240,-0.839109,-1.589543,0.137508,0.015362,1.031386
2011-10-03T14:34:27.404292,8750,-0.193267,-0.746468,-1.652245,0.135055,0.014767,1.029362
2011-10-03T14:34:27.414292,8760,-0.107293,-0.653827,-1.714947,0.132602,0.014171,1.027339
2011-10-03T14:34:27.424292,8770,-0.021320,-0.561186,-1.777649,0.130149,0.013575,1.025316
2011-10-03T14:34:27.434292,8780,0.064654,-0.468545,-1.840351,0.127696,0.012980,1.023292
2011-10-03T14:34:27.444292,8790,0.150627,-0.375904,-1.903053,0.125244,0.012384,1.021269
2011-10-03T14:34:27.454292,8800,0.236601,-0.283263,-1.965755,0.122791,0.011789,1.019246
2011-10-03T14:34:27.464292,8810,0.322574,-0.190623,-2.028456,0.120338,0.011193,1.017222
2011-10-03T14:34:27.474292,8820,0.385196,-0.104029,-2.089399,0.117943,0.010339,1.015473
2011-10-03T14:34:27.484292,8830,0.239742,-0.071322,-2.134669,0.116069,0.007185,1.016163
2011-10-03T14:34:27.494292,8840,0.094288,-0.038616,-2.179938,0.114194,0.004032,1.016853
2011-10-03T14:34:27.504292,8850,-0.051166,-0.005909,-2.225208,0.112319,0.000878,1.017542
2011-10-03T14:34:27.514292,8860,-0.196619,0.026798,-2.270478,0.110444,-0.002276,1.018232
2011-10-03T14:34:27.524292,8870,-0.342073,0.059505,-2.315747,0.108569,-0.005430,1.018922
2011-10-03T14:34:27.534292,8880,-0.487527,0.092212,-2.361017,0.106694,-0.008583,1.019612
2011-10-03T14:34:27.544292,8890,-0.632981,0.124918,-2.406286,0.104820,-0.011737,1.020301
2011-10-03T14:34:27.554292,8900,-0.778435,0.157625,-2.451556,0.102945,-0.014891,1.020991
2011-10-03T14:34:27.564292,8910,-0.923888,0.190332,-2.496825,0.101070,-0.018045,1.021681
2011-10-03T14:34:27.574292,8920,-1.053809,0.221483,-2.539415,0.099354,-0.021283,1.021977
2011-10-03T14:34:27.584292,8930,-1.050890,0.239326,-2.559083,0.098992,-0.025247,1.018910
2011-10-03T14:34:27.594292,8940,-1.047970,0.257169,-2.578751,0.098631,-0.029210,1.015843
2011-10-03T14:34:27.604292,8950,-1.045051,0.275012,-2.598419,0.098269,-0.033173,1.012775
2011-10-03T14:34:27.614292,8960,-1.042131,0.292855,-2.618087,0.097908,-0.037137,1.009708
2011-10-03T14:34:27.624292,8970,-1.039212,0.310698,-2.637755,0.097546,-0.041100,1.006640
2011-10-03T14:34:27.634292,8980,-1.036292,0.328541,-2.657423,0.097185,-0.045063,1.003573
2011-10-03T14:34:27.644292,8990,-1.033372,0.346384,-2.677092,0.096824,-0.049026,1.000505
2011-10-03T14:34:27.654292,9000,-1.030453,0.364227,-2.696760,0.096462,-0.052990,0.997438
2011-10-03T14:34:27.664292,9010,-1.027533,0.382070,-2.716428,0.096101,-0.056953,0.994371
2011-10-03T14:34:27.674292,9020,-1.022849,0.387278,-2.733197,0.095850,-0.060489,0.991812
2011-10-03T14:34:27.684292,9030,-1.002351,0.279268,-2.723989,0.096586,-0.060198,0.993813
2011-10-03T14:34:27.694292,9040,-0.981852,0.171257,-2.714781,0.097323,-0.059906,0.995815
2011-10-03T14:34:27.704292,9050,-0.961354,0.063247,-2.705574,0.098060,-0.059615,0.997816
2011-10-03T14:34:27.714292,9060,-0.940856,-0.044763,-2.696366,0.098797,-0.059324,0.999817
2011-10-03T14:34:27.724292,9070,-0.920357,-0.152774,-2.687158,0.099534,-0.059032,1.001818
2011-10-03T14:34:27.734292,9080,-0.899859,-0.260784,-2.677950,0.100271,-0.058741,1.003820
2011-10-03T14:34:27.744292,9090,-0.879361,-0.368794,-2.668742,0.101008,-0.058450,1.005821
2011-10-03T14:34:27.754292,9100,-0.858862,-0.476805,-2.659534,0.101745,-0.058158,1.007822
2011-10-03T14:34:27.764292,9110,-0.838364,-0.584815,-2.650327,0.102482,-0.057867,1.009824
2011-10-03T14:34:27.774292,9120,-0.817866,-0.692825,-2.641119,0.103219,-0.057576,1.011825
2011-10-03T14:34:27.784292,9130,-0.791642,-0.791217,-2.633179,0.103913,-0.057113,1.013823
2011-10-03T14:34:27.794292,9140,-0.709839,-0.796223,-2.637551,0.104199,-0.054985,1.015790
2011-10-03T14:34:27.804292,9150,-0.628036,-0.801229,-2.641924,0.104485,-0.052858,1.017757
2011-10-03T14:34:27.814292,9160,-0.546233,-0.806236,-2.646296,0.104772,-0.050730,1.019723
2011-10-03T14:34:27.824292,9170,-0.464430,-0.811242,-2.650668,0.105058,-0.048602,1.021690
2011-10-03T14:34:27.834292,9180,-0.382627,-0.816249,-2.655041,0.105344,-0.046475,1.023657
2011-10-03T14:34:27.844292,9190,-0.300824,-0.821255,-2.659413,0.105630,-0.044347,1.025624
2011-10-03T14:34:27.854292,9200,-0.219021,-0.826262,-2.663785,0.105916,-0.042219,1.027590
2011-10-03T14:34:27.864292,9210,-0.137218,-0.831268,-2.668157,0.106202,-0.040092,1.029557
2011-10-03T14:34:27.874292,9220,-0.055415,-0.836275,-2.672530,0.106488,-0.037964,1.031524
2011-10-03T14:34:27.884292,9230,0.016209,-0.843119,-2.675748,0.106884,-0.036161,1.033137
2011-10-03T14:34:27.894292,9240,0.002785,-0.865319,-2.669330,0.108202,-0.037071,1.031796
2011-10-03T14:34:27.904292,9250,-0.010640,-0.887519,-2.662911,0.109520,-0.037981,1.030455
2011-10-03T14:34:27.914292,9260,-0.024064,-0.909719,-2.656493,0.110838,-0.038891,1.029114
2011-10-03T14:34:27.924292,9270,-0.037489,-0.931918,-2.650074,0.112157,-0.039802,1.027772
2011-10-03T14:34:27.934292,9280,-0.050913,-0.954118,-2.643656,0.113475,-0.040712,1.026431
2011-10-03T14:34:27.944292,9290,-0.064338,-0.976318,-2.637237,0.114793,-0.041622,1.025090
2011-10-03T14:34:27.954292,9300,-0.077762,-0.998518,-2.630818,0.116111,-0.042532,1.023749
2011-10-03T14:34:27.964292,9310,-0.091187,-1.020718,-2.624400,0.117429,-0.043442,1.022408
2011-10-03T14:34:27.974292,9320,-0.104611,-1.042918,-2.617981,0.118747,-0.044352,1.021067
2011-10-03T14:34:27.984292,9330,-0.121232,-1.057517,-2.613302,0.119886,-0.045056,1.020112
2011-10-03T14:34:27.994292,9340,-0.164227,-1.009403,-2.622978,0.119550,-0.044063,1.022348
2011-10-03T14:34:28.004292,9350,-0.207221,-0.961289,-2.632653,0.119213,-0.043069,1.024584
2011-10-03T14:34:28.014292,9360,-0.250215,-0.913176,-2.642329,0.118877,-0.042075,1.026819
2011-10-03T14:34:28.024292,9370,-0.293210,-0.865062,-2.652004,0.118541,-0.041081,1.029055
2011-10-03T14:34:28.034292,9380,-0.336204,-0.816948,-2.661680,0.118205,-0.040088,1.031291
2011-10-03T14:34:28.044292,9390,-0.379199,-0.768834,-2.671355,0.117868,-0.039094,1.033527
2011-10-03T14:34:28.054292,9400,-0.422193,-0.720721,-2.681031,0.117532,-0.038100,1.035763
2011-10-03T14:34:28.064292,9410,-0.465187,-0.672607,-2.690706,0.117196,-0.037106,1.037998
2011-10-03T14:34:28.074292,9420,-0.508182,-0.624493,-2.700382,0.116860,-0.036113,1.040234
2011-10-03T14:34:28.084292,9430,-0.551176,-0.576379,-2.710057,0.116523,-0.035119,1.042470
2011-10-03T14:34:28.094292,9440,-0.594481,-0.525786,-2.719789,0.116108,-0.034296,1.043875
2011-10-03T14:34:28.104292,9450,-0.640358,-0.454672,-2.729983,0.115038,-0.034883,1.038407
2011-10-03T14:34:28.114292,9460,-0.686236,-0.383557,-2.740178,0.113968,-0.035471,1.032939
2011-10-03T14:34:28.124292,9470,-0.732113,-0.312443,-2.750373,0.112898,-0.036059,1.027471
2011-10-03T14:34:28.134292,9480,-0.777990,-0.241329,-2.760568,0.111828,-0.036647,1.022003
2011-10-03T14:34:28.144292,9490,-0.823867,-0.170214,-2.770763,0.110758,-0.037235,1.016535
2011-10-03T14:34:28.154292,9500,-0.869745,-0.099100,-2.780958,0.109688,-0.037823,1.011067
2011-10-03T14:34:28.164292,9510,-0.915622,-0.027985,-2.791152,0.108618,-0.038410,1.005599
2011-10-03T14:34:28.174292,9520,-0.961499,0.043129,-2.801347,0.107548,-0.038998,1.000131
2011-10-03T14:34:28.184292,9530,-1.007376,0.114244,-2.811542,0.106478,-0.039586,0.994663
2011-10-03T14:34:28.194292,9540,-1.046335,0.175653,-2.822738,0.105477,-0.040235,0.990004
2011-10-03T14:34:28.204292,9550,-1.029933,0.159404,-2.841948,0.105031,-0.041373,0.991819
2011-10-03T14:34:28.214292,9560,-1.013530,0.143154,-2.861158,0.104585,-0.042512,0.993633
2011-10-03T14:34:28.224292,9570,-0.997127,0.126905,-2.880367,0.104139,-0.043650,0.995448
2011-10-03T14:34:28.234292,9580,-0.980725,0.110655,-2.899577,0.103693,-0.044788,0.997263
2011-10-03T14:34:28.244292,9590,-0.964322,0.094405,-2.918786,0.103248,-0.045926,0.999077
2011-10-03T14:34:28.254292,9600,-0.947919,0.078156,-2.937996,0.102802,-0.047065,1.000892
2011-10-03T14:34:28.264292,9610,-0.931517,0.061906,-2.957205,0.102356,-0.048203,1.002707
2011-10-03T14:34:28.274292,9620,-0.915114,0.045657,-2.976415,0.101910,-0.049341,1.004521
2011-10-03T14:34:28.284292,9630,-0.898711,0.029407,-2.995625,0.101464,-0.050479,1.006336
2011-10-03T14:34:28.294292,9640,-0.882309,0.013157,-3.014834,0.101018,-0.051617,1.008151
2011-10-03T14:34:28.304292,9650,-0.863721,0.001640,-3.033227,0.100581,-0.052800,1.009573
2011-10-03T14:34:28.314292,9660,-0.827306,0.028726,-3.044960,0.100219,-0.054348,1.007797
2011-10-03T14:34:28.324292,9670,-0.790891,0.055812,-3.056693,0.099856,-0.055895,1.006021
2011-10-03T14:34:28.334292,9680,-0.754476,0.082897,-3.068426,0.099494,-0.057443,1.004245
2011-10-03T14:34:28.344292,9690,-0.718062,0.109983,-3.080160,0.099131,-0.058990,1.002469
2011-10-03T14:34:28.354292,9700,-0.681647,0.137069,-3.091893,0.098769,-0.060537,1.000692
2011-10-03T14:34:28.364292,9710,-0.645232,0.164155,-3.103626,0.098406,-0.062085,0.998916
2011-10-03T14:34:28.374292,9720,-0.608818,0.191240,-3.115359,0.098044,-0.063632,0.997140
2011-10-03T14:34:28.384292,9730,-0.572403,0.218326,-3.127092,0.097681,-0.065180,0.995364
2011-10-03T14:34:28.394292,9740,-0.535988,0.245412,-3.138825,0.097318,-0.066727,0.993588
2011-10-03T14:34:28.404292,9750,-0.497829,0.266998,-3.149240,0.096905,-0.068253,0.992086
2011-10-03T14:34:28.414292,9760,-0.445991,0.245451,-3.149322,0.096094,-0.069608,0.992741
2011-10-03T14:34:28.424292,9770,-0.394154,0.223905,-3.149403,0.095283,-0.070964,0.993396
2011-10-03T14:34:28.434292,9780,-0.342316,0.202358,-3.149484,0.094472,-0.072320,0.994051
2011-10-03T14:34:28.444292,9790,-0.290478,0.180812,-3.149566,0.093660,-0.073675,0.994706
2011-10-03T14:34:28.454292,9800,-0.238641,0.159265,-3.149647,0.092849,-0.075031,0.995361
2011-10-03T14:34:28.464292,9810,-0.186803,0.137719,-3.149728,0.092038,-0.076387,0.996017
2011-10-03T14:34:28.474292,9820,-0.134965,0.116172,-3.149810,0.091227,-0.077742,0.996672
2011-10-03T14:34:28.484292,9830,-0.083127,0.094625,-3.149891,0.090416,-0.079098,0.997327
2011-10-03T14:34:28.494292,9840,-0.031290,0.073079,-3.149973,0.089605,-0.080453,0.997982
2011-10-03T14:34:28.504292,9850,0.015973,0.046218,-3.149106,0.088955,-0.081599,0.998542
2011-10-03T14:34:28.514292,9860,0.027854,-0.021741,-3.140905,0.089558,-0.081119,0.998371
2011-10-03T14:34:28.524292,9870,0.039734,-0.089699,-3.132704,0.090162,-0.080640,0.998201
2011-10-03T14:34:28.534292,9880,0.051615,-0.157658,-3.124503,0.090765,-0.080160,0.998030
2011-10-03T14:34:28.544292,9890,0.063496,-0.225617,-3.116302,0.091368,-0.079681,0.997859
2011-10-03T14:34:28.554292,9900,0.075376,-0.293576,-3.108102,0.091971,-0.079201,0.997689
2011-10-03T14:34:28.564292,9910,0.087257,-0.361534,-3.099901,0.092574,-0.078722,0.997518
2011-10-03T14:34:28.574292,9920,0.099138,-0.429493,-3.091700,0.093177,-0.078242,0.997347
2011-10-03T14:34:28.584292,9930,0.111018,-0.497452,-3.083499,0.093780,-0.077763,0.997176
2011-10-03T14:34:28.594292,9940,0.122899,-0.565410,-3.075298,0.094383,-0.077283,0.997006
2011-10-03T14:34:28.604292,9950,0.134779,-0.633369,-3.067098,0.094986,-0.076804,0.996835
2011-10-03T14:34:28.614292,9960,0.142372,-0.690318,-3.061292,0.095549,-0.076225,0.997076
2011-10-03T14:34:28.624292,9970,0.116669,-0.661769,-3.074088,0.095801,-0.074880,1.000519
2011-10-03T14:34:28.634292,9980,0.090966,-0.633221,-3.086885,0.096053,-0.073534,1.003962
2011-10-03T14:34:28.644292,9990,0.065262,-0.604673,-3.099681,0.096305,-0.072189,1.007404
2011-10-03T14:34:28.654292,10000,0.039559,-0.576125,-3.112477,0.096557,-0.070843,1.010847
2011-10-03T14:34:28.664292,10010,0.013856,-0.547577,-3.125273,0.096809,-0.069497,1.014290
2011-10-03T14:34:28.674292,10020,-0.011847,-0.519029,-3.138069,0.097061,-0.068152,1.017732
2011-10-03T14:34:28.684292,10030,-0.037551,-0.490481,-3.150866,0.097313,-0.066806,1.021175
2011-10-03T14:34:28.694292,10040,-0.063254,-0.461933,-3.163662,0.097565,-0.065461,1.024618
2011-10-03T14:34:28.704292,10050,-0.088957,-0.433384,-3.176458,0.097817,-0.064115,1.028060
2011-10-03T14:34:28.714292,10060,-0.109069,-0.402400,-3.189464,0.097991,-0.063082,1.030896
2011-10-03T14:34:28.724292,10070,-0.084362,-0.351891,-3.204158,0.097546,-0.064558,1.028861
2011-10-03T14:34:28.734292,10080,-0.059654,-0.301381,-3.218852,0.097100,-0.066033,1.026826
2011-10-03T14:34:28.744292,10090,-0.034946,-0.250871,-3.233546,0.096654,-0.067509,1.024791
2011-10-03T14:34:28.754292,10100,-0.010239,-0.200361,-3.248239,0.096208,-0.068984,1.022756
2011-10-03T14:34:28.764292,10110,0.014469,-0.149851,-3.262933,0.095763,-0.070459,1.020721
2011-10-03T14:34:28.774292,10120,0.039176,-0.099341,-3.277627,0.095317,-0.071935,1.018686
2011-10-03T14:34:28.784292,10130,0.063884,-0.048832,-3.292320,0.094871,-0.073410,1.016651
2011-10-03T14:34:28.794292,10140,0.088592,0.001678,-3.307014,0.094426,-0.074886,1.014616
2011-10-03T14:34:28.804292,10150,0.113299,0.052188,-3.321708,0.093980,-0.076361,1.012581
2011-10-03T14:34:28.814292,10160,0.129440,0.090825,-3.332810,0.093547,-0.077827,1.010671
2011-10-03T14:34:28.824292,10170,0.074447,0.030886,-3.314089,0.093221,-0.079217,1.009799
2011-10-03T14:34:28.834292,10180,0.019454,-0.029053,-3.295368,0.092895,-0.080607,1.008927
2011-10-03T14:34:28.844292,10190,-0.035539,-0.088993,-3.276646,0.092570,-0.081997,1.008056
2011-10-03T14:34:28.854292,10200,-0.090531,-0.148932,-3.257925,0.092244,-0.083387,1.007184
2011-10-03T14:34:28.864292,10210,-0.145524,-0.208871,-3.239204,0.091918,-0.084777,1.006312
2011-10-03T14:34:28.874292,10220,-0.200517,-0.268811,-3.220483,0.091592,-0.086167,1.005440
2011-10-03T14:34:28.884292,10230,-0.255510,-0.328750,-3.201762,0.091267,-0.087557,1.004568
2011-10-03T14:34:28.894292,10240,-0.310502,-0.388689,-3.183041,0.090941,-0.088947,1.003696
2011-10-03T14:34:28.904292,10250,-0.365495,-0.448629,-3.164320,0.090615,-0.090337,1.002825
2011-10-03T14:34:28.914292,10260,-0.420488,-0.508568,-3.145599,0.090289,-0.091727,1.001953
2011-10-03T14:34:28.924292,10270,-0.467324,-0.559241,-3.126670,0.089995,-0.092473,1.001245
2011-10-03T14:34:28.934292,10280,-0.453842,-0.541386,-3.106203,0.089932,-0.088452,1.001747
2011-10-03T14:34:28.944292,10290,-0.440360,-0.523531,-3.085736,0.089868,-0.084432,1.002249
2011-10-03T14:34:28.954292,10300,-0.426878,-0.505677,-3.065269,0.089805,-0.080411,1.002752
2011-10-03T14:34:28.964292,10310,-0.413396,-0.487822,-3.044801,0.089742,-0.076391,1.003254
2011-10-03T14:34:28.974292,10320,-0.399914,-0.469967,-3.024334,0.089679,-0.072370,1.003757
2011-10-03T14:34:28.984292,10330,-0.386433,-0.452112,-3.003867,0.089616,-0.068349,1.004259
2011-10-03T14:34:28.994292,10340,-0.372951,-0.434258,-2.983400,0.089553,-0.064329,1.004762
2011-10-03T14:34:29.004292,10350,-0.359469,-0.416403,-2.962932,0.089489,-0.060308,1.005264
2011-10-03T14:34:29.014292,10360,-0.345987,-0.398548,-2.942465,0.089426,-0.056288,1.005767
2011-10-03T14:34:29.024292,10370,-0.335579,-0.381088,-2.923700,0.089371,-0.053120,1.006342
2011-10-03T14:34:29.034292,10380,-0.348509,-0.366629,-2.917856,0.089375,-0.056423,1.007467
2011-10-03T14:34:29.044292,10390,-0.361439,-0.352169,-2.912011,0.089379,-0.059727,1.008592
2011-10-03T14:34:29.054292,10400,-0.374369,-0.337709,-2.906167,0.089384,-0.063030,1.009717
2011-10-03T14:34:29.064292,10410,-0.387299,-0.323249,-2.900323,0.089388,-0.066334,1.010842
2011-10-03T14:34:29.074292,10420,-0.400228,-0.308789,-2.894478,0.089392,-0.069637,1.011967
2011-10-03T14:34:29.084292,10430,-0.413158,-0.294329,-2.888634,0.089396,-0.072941,1.013092
2011-10-03T14:34:29.094292,10440,-0.426088,-0.279869,-2.882789,0.089400,-0.076244,1.014217
2011-10-03T14:34:29.104292,10450,-0.439018,-0.265409,-2.876945,0.089405,-0.079547,1.015342
2011-10-03T14:34:29.114292,10460,-0.451947,-0.250949,-2.871101,0.089409,-0.082851,1.016467
2011-10-03T14:34:29.124292,10470,-0.464877,-0.236490,-2.865256,0.089413,-0.086154,1.017592
2011-10-03T14:34:29.134292,10480,-0.461259,-0.220030,-2.856656,0.089522,-0.088829,1.018648
2011-10-03T14:34:29.144292,10490,-0.336622,-0.188948,-2.827902,0.090400,-0.086904,1.019193
2011-10-03T14:34:29.154292,10500,-0.211984,-0.157866,-2.799149,0.091278,-0.084980,1.019738
2011-10-03T14:34:29.164292,10510,-0.087346,-0.126784,-2.770395,0.092156,-0.083056,1.020283
2011-10-03T14:34:29.174292,10520,0.037291,-0.095702,-2.741642,0.093034,-0.081131,1.020828
2011-10-03T14:34:29.184292,10530,0.161929,-0.064621,-2.712888,0.093912,-0.079207,1.021373
2011-10-03T14:34:29.194292,10540,0.286566,-0.033539,-2.684134,0.094790,-0.077282,1.021918
2011-10-03T14:34:29.204292,10550,0.411204,-0.002457,-2.655381,0.095668,-0.075358,1.022463
2011-10-03T14:34:29.214292,10560,0.535842,0.028625,-2.626627,0.096546,-0.073433,1.023008
2011-10-03T14:34:29.224292,10570,0.660479,0.059707,-2.597873,0.097424,-0.071509,1.023554
2011-10-03T14:34:29.234292,10580,0.773916,0.094057,-2.569043,0.098045,-0.069662,1.023361
2011-10-03T14:34:29.244292,10590,0.801248,0.153526,-2.539623,0.096697,-0.068413,1.017495
2011-10-03T14:34:29.254292,10600,0.828580,0.212994,-2.510203,0.095348,-0.067164,1.011630
2011-10-03T14:34:29.264292,10610,0.855912,0.272463,-2.480783,0.094000,-0.065915,1.005765
2011-10-03T14:34:29.274292,10620,0.883244,0.331932,-2.451362,0.092651,-0.064666,0.999899
2011-10-03T14:34:29.284292,10630,0.910576,0.391400,-2.421942,0.091303,-0.063417,0.994034
2011-10-03T14:34:29.294292,10640,0.937907,0.450869,-2.392522,0.089954,-0.062169,0.988168
2011-10-03T14:34:29.304292,10650,0.965239,0.510338,-2.363102,0.088606,-0.060920,0.982303
2011-10-03T14:34:29.314292,10660,0.992571,0.569807,-2.333682,0.087257,-0.059671,0.976438
2011-10-03T14:34:29.324292,10670,1.019903,0.629275,-2.304262,0.085909,-0.058422,0.970572
2011-10-03T14:34:29.334292,10680,1.040139,0.671871,-2.275817,0.084767,-0.057065,0.965675
2011-10-03T14:34:29.344292,10690,1.007742,0.589311,-2.254605,0.085156,-0.054912,0.967959
2011-10-03T14:34:29.354292,10700,0.975345,0.506751,-2.233393,0.085545,-0.052759,0.970242
2011-10-03T14:34:29.364292,10710,0.942947,0.424191,-2.212182,0.085935,-0.050605,0.972526
2011-10-03T14:34:29.374292,10720,0.910550,0.341631,-2.190970,0.086324,-0.048452,0.974810
2011-10-03T14:34:29.384292,10730,0.878153,0.259071,-2.169758,0.086713,-0.046299,0.977094
2011-10-03T14:34:29.394292,10740,0.845755,0.176510,-2.148547,0.087103,-0.044146,0.979378
2011-10-03T14:34:29.404292,10750,0.813358,0.093950,-2.127335,0.087492,-0.041992,0.981662
2011-10-03T14:34:29.414292,10760,0.780961,0.011390,-2.106123,0.087881,-0.039839,0.983945
2011-10-03T14:34:29.424292,10770,0.748563,-0.071170,-2.084911,0.088271,-0.037686,0.986229
2011-10-03T14:34:29.434292,10780,0.716166,-0.153730,-2.063700,0.088660,-0.035532,0.988513
2011-10-03T14:34:29.444292,10790,0.682902,-0.225375,-2.041769,0.089072,-0.033627,0.990682
2011-10-03T14:34:29.454292,10800,0.643315,-0.217341,-2.014586,0.089645,-0.033537,0.992011
2011-10-03T14:34:29.464292,10810,0.603728,-0.209307,-1.987404,0.090218,-0.033447,0.993340
2011-10-03T14:34:29.474292,10820,0.564141,-0.201274,-1.960222,0.090791,-0.033357,0.994669
2011-10-03T14:34:29.484292,10830,0.524554,-0.193240,-1.933039,0.091364,-0.033267,0.995998
2011-10-03T14:34:29.494292,10840,0.484966,-0.185206,-1.905857,0.091937,-0.033177,0.997327
2011-10-03T14:34:29.504292,10850,0.445379,-0.177172,-1.878674,0.092510,-0.033087,0.998656
2011-10-03T14:34:29.514292,10860,0.405792,-0.169138,-1.851492,0.093083,-0.032997,0.999985
2011-10-03T14:34:29.524292,10870,0.366205,-0.161104,-1.824310,0.093656,-0.032906,1.001314
2011-10-03T14:34:29.534292,10880,0.326618,-0.153070,-1.797127,0.094229,-0.032816,1.002643
2011-10-03T14:34:29.544292,10890,0.282174,-0.144359,-1.774485,0.094679,-0.032415,1.003807
2011-10-03T14:34:29.554292,10900,0.199728,-0.130350,-1.787369,0.094168,-0.029579,1.003684
2011-10-03T14:34:29.564292,10910,0.117283,-0.116340,-1.800254,0.093658,-0.026744,1.003560
2011-10-03T14:34:29.574292,10920,0.034837,-0.102330,-1.813139,0.093148,-0.023908,1.003437
2011-10-03T14:34:29.584292,10930,-0.047609,-0.088321,-1.826023,0.092637,-0.021072,1.003314
2011-10-03T14:34:29.594292,10940,-0.130055,-0.074311,-1.838908,0.092127,-0.018236,1.003191
2011-10-03T14:34:29.604292,10950,-0.212501,-0.060301,-1.851792,0.091616,-0.015400,1.003067
2011-10-03T14:34:29.614292,10960,-0.294947,-0.046292,-1.864677,0.091106,-0.012565,1.002944
2011-10-03T14:34:29.624292,10970,-0.377393,-0.032282,-1.877562,0.090596,-0.009729,1.002821
2011-10-03T14:34:29.634292,10980,-0.459839,-0.018272,-1.890446,0.090085,-0.006893,1.002698
2011-10-03T14:34:29.644292,10990,-0.535145,-0.008099,-1.905069,0.089613,-0.004509,1.002522
2011-10-03T14:34:29.654292,11000,-0.555671,-0.027360,-1.933023,0.089435,-0.005593,1.001945
2011-10-03T14:34:29.664292,11010,-0.576197,-0.046622,-1.960977,0.089258,-0.006678,1.001367
2011-10-03T14:34:29.674292,11020,-0.596724,-0.065883,-1.988932,0.089080,-0.007762,1.000790
2011-10-03T14:34:29.684292,11030,-0.617250,-0.085145,-2.016886,0.088902,-0.008846,1.000213
2011-10-03T14:34:29.694292,11040,-0.637777,-0.104406,-2.044841,0.088724,-0.009930,0.999635
2011-10-03T14:34:29.704292,11050,-0.658303,-0.123667,-2.072795,0.088546,-0.011014,0.999058
2011-10-03T14:34:29.714292,11060,-0.678829,-0.142929,-2.100749,0.088368,-0.012098,0.998481
2011-10-03T14:34:29.724292,11070,-0.699356,-0.162190,-2.128704,0.088191,-0.013182,0.997903
2011-10-03T14:34:29.734292,11080,-0.719882,-0.181452,-2.156658,0.088013,-0.014267,0.997326
2011-10-03T14:34:29.744292,11090,-0.740409,-0.200713,-2.184613,0.087835,-0.015351,0.996749
2011-10-03T14:34:29.754292,11100,-0.757817,-0.221799,-2.212795,0.087708,-0.016644,0.996344
2011-10-03T14:34:29.764292,11110,-0.749549,-0.257909,-2.242860,0.087998,-0.019664,0.997363
2011-10-03T14:34:29.774292,11120,-0.741280,-0.294019,-2.272924,0.088287,-0.022683,0.998382
2011-10-03T14:34:29.784292,11130,-0.733012,-0.330129,-2.302989,0.088577,-0.025702,0.999401
2011-10-03T14:34:29.794292,11140,-0.724744,-0.366239,-2.333054,0.088867,-0.028721,1.000419
2011-10-03T14:34:29.804292,11150,-0.716475,-0.402349,-2.363118,0.089156,-0.031740,1.001438
2011-10-03T14:34:29.814292,11160,-0.708207,-0.438459,-2.393183,0.089446,-0.034759,1.002457
2011-10-03T14:34:29.824292,11170,-0.699938,-0.474569,-2.423247,0.089736,-0.037778,1.003476
2011-10-03T14:34:29.834292,11180,-0.691670,-0.510679,-2.453312,0.090026,-0.040797,1.004495
2011-10-03T14:34:29.844292,11190,-0.683402,-0.546789,-2.483376,0.090315,-0.043817,1.005513
2011-10-03T14:34:29.854292,11200,-0.672360,-0.573112,-2.510403,0.090599,-0.046600,1.006558
2011-10-03T14:34:29.864292,11210,-0.641344,-0.528932,-2.515546,0.090837,-0.047689,1.007788
2011-10-03T14:34:29.874292,11220,-0.610328,-0.484753,-2.520688,0.091075,-0.048778,1.009018
2011-10-03T14:34:29.884292,11230,-0.579312,-0.440573,-2.525831,0.091313,-0.049866,1.010249
2011-10-03T14:34:29.894292,11240,-0.548296,-0.396394,-2.530974,0.091551,-0.050955,1.011479
2011-10-03T14:34:29.904292,11250,-0.517279,-0.352214,-2.536117,0.091789,-0.052044,1.012709
2011-10-03T14:34:29.914292,11260,-0.486263,-0.308035,-2.541259,0.092028,-0.053132,1.013939
2011-10-03T14:34:29.924292,11270,-0.455247,-0.263855,-2.546402,0.092266,-0.054221,1.015169
2011-10-03T14:34:29.934292,11280,-0.424231,-0.219676,-2.551545,0.092504,-0.055310,1.016400
2011-10-03T14:34:29.944292,11290,-0.393215,-0.175497,-2.556688,0.092742,-0.056398,1.017630
2011-10-03T14:34:29.954292,11300,-0.362198,-0.131317,-2.561831,0.092980,-0.057487,1.018860
2011-10-03T14:34:29.964292,11310,-0.331340,-0.093078,-2.566500,0.093157,-0.058385,1.019711
2011-10-03T14:34:29.974292,11320,-0.301547,-0.095022,-2.567966,0.092924,-0.057990,1.017994
2011-10-03T14:34:29.984292,11330,-0.271753,-0.096966,-2.569432,0.092691,-0.057595,1.016277
2011-10-03T14:34:29.994292,11340,-0.241960,-0.098910,-2.570897,0.092457,-0.057200,1.014560
2011-10-03T14:34:30.004292,11350,-0.212167,-0.100855,-2.572363,0.092224,-0.056805,1.012843
2011-10-03T14:34:30.014292,11360,-0.182374,-0.102799,-2.573829,0.091990,-0.056410,1.011126
2011-10-03T14:34:30.024292,11370,-0.152581,-0.104743,-2.575295,0.091757,-0.056015,1.009409
2011-10-03T14:34:30.034292,11380,-0.122788,-0.106687,-2.576761,0.091524,-0.055619,1.007692
2011-10-03T14:34:30.044292,11390,-0.092994,-0.108632,-2.578227,0.091290,-0.055224,1.005975
2011-10-03T14:34:30.054292,11400,-0.063201,-0.110576,-2.579692,0.091057,-0.054829,1.004258
2011-10-03T14:34:30.064292,11410,-0.038036,-0.113436,-2.580298,0.090833,-0.054529,1.002961
2011-10-03T14:34:30.074292,11420,-0.043331,-0.122328,-2.575243,0.090668,-0.054852,1.004429
2011-10-03T14:34:30.084292,11430,-0.048626,-0.131220,-2.570187,0.090504,-0.055175,1.005897
2011-10-03T14:34:30.094292,11440,-0.053921,-0.140112,-2.565132,0.090340,-0.055497,1.007365
2011-10-03T14:34:30.104292,11450,-0.059216,-0.149004,-2.560076,0.090176,-0.055820,1.008833
2011-10-03T14:34:30.114292,11460,-0.064511,-0.157896,-2.555020,0.090011,-0.056143,1.010301
2011-10-03T14:34:30.124292,11470,-0.069806,-0.166787,-2.549965,0.089847,-0.056466,1.011769
2011-10-03T14:34:30.134292,11480,-0.075101,-0.175679,-2.544909,0.089683,-0.056788,1.013237
2011-10-03T14:34:30.144292,11490,-0.080397,-0.184571,-2.539854,0.089519,-0.057111,1.014705
2011-10-03T14:34:30.154292,11500,-0.085692,-0.193463,-2.534798,0.089355,-0.057434,1.016173
2011-10-03T14:34:30.164292,11510,-0.092320,-0.201896,-2.530563,0.089274,-0.057590,1.017540
2011-10-03T14:34:30.174292,11520,-0.107783,-0.207291,-2.531762,0.089746,-0.056641,1.018237
2011-10-03T14:34:30.184292,11530,-0.123246,-0.212686,-2.532961,0.090219,-0.055692,1.018935
2011-10-03T14:34:30.194292,11540,-0.138709,-0.218081,-2.534160,0.090691,-0.054743,1.019632
2011-10-03T14:34:30.204292,11550,-0.154172,-0.223476,-2.535358,0.091163,-0.053793,1.020329
2011-10-03T14:34:30.214292,11560,-0.169635,-0.228871,-2.536557,0.091636,-0.052844,1.021027
2011-10-03T14:34:30.224292,11570,-0.185098,-0.234266,-2.537756,0.092108,-0.051895,1.021724
2011-10-03T14:34:30.234292,11580,-0.200561,-0.239661,-2.538955,0.092581,-0.050946,1.022422
2011-10-03T14:34:30.244292,11590,-0.216024,-0.245055,-2.540154,0.093053,-0.049997,1.023119
2011-10-03T14:34:30.254292,11600,-0.231487,-0.250450,-2.541353,0.093525,-0.049048,1.023816
2011-10-03T14:34:30.264292,11610,-0.246950,-0.255845,-2.542552,0.093998,-0.048099,1.024514
2011-10-03T14:34:30.274292,11620,-0.258831,-0.253370,-2.542012,0.094333,-0.047286,1.024832
2011-10-03T14:34:30.284292,11630,-0.246223,-0.197096,-2.529585,0.093732,-0.047402,1.022554
2011-10-03T14:34:30.294292,11640,-0.233614,-0.140821,-2.517157,0.093132,-0.047518,1.020276
2011-10-03T14:34:30.304292,11650,-0.221005,-0.084546,-2.504729,0.092531,-0.047634,1.017998
2011-10-03T14:34:30.314292,11660,-0.208397,-0.028272,-2.492302,0.091930,-0.047750,1.015720
2011-10-03T14:34:30.324292,11670,-0.195788,0.028003,-2.479874,0.091329,-0.047866,1.013442
2011-10-03T14:34:30.334292,11680,-0.183180,0.084278,-2.467446,0.090728,-0.047982,1.011164
2011-10-03T14:34:30.344292,11690,-0.170571,0.140553,-2.455019,0.090127,-0.048098,1.008886
2011-10-03T14:34:30.354292,11700,-0.157962,0.196827,-2.442591,0.089527,-0.048214,1.006607
2011-10-03T14:34:30.364292,11710,-0.145354,0.253102,-2.430163,0.088926,-0.048330,1.004329
2011-10-03T14:34:30.374292,11720,-0.128829,0.299595,-2.419785,0.088432,-0.048575,1.002186
2011-10-03T14:34:30.384292,11730,-0.086953,0.282767,-2.422671,0.088634,-0.049655,1.000912
2011-10-03T14:34:30.394292,11740,-0.045078,0.265940,-2.425557,0.088835,-0.050735,0.999637
2011-10-03T14:34:30.404292,11750,-0.003202,0.249112,-2.428443,0.089037,-0.051816,0.998363
2011-10-03T14:34:30.414292,11760,0.038673,0.232285,-2.431330,0.089238,-0.052896,0.997089
2011-10-03T14:34:30.424292,11770,0.080549,0.215457,-2.434216,0.089439,-0.053976,0.995815
2011-10-03T14:34:30.434292,11780,0.122424,0.198630,-2.437102,0.089641,-0.055056,0.994541
2011-10-03T14:34:30.444292,11790,0.164300,0.181802,-2.439988,0.089842,-0.056136,0.993266
2011-10-03T14:34:30.454292,11800,0.206175,0.164975,-2.442874,0.090044,-0.057216,0.991992
2011-10-03T14:34:30.464292,11810,0.248051,0.148147,-2.445760,0.090245,-0.058296,0.990718
2011-10-03T14:34:30.474292,11820,0.286197,0.130829,-2.446545,0.090395,-0.059241,0.989655
2011-10-03T14:34:30.484292,11830,0.300444,0.110371,-2.433867,0.090211,-0.059317,0.989947
2011-10-03T14:34:30.494292,11840,0.314692,0.089912,-2.421188,0.090027,-0.059394,0.990238
2011-10-03T14:34:30.504292,11850,0.328939,0.069454,-2.408510,0.089843,-0.059470,0.990530
2011-10-03T14:34:30.514292,11860,0.343187,0.048995,-2.395831,0.089659,-0.059546,0.990821
2011-10-03T14:34:30.524292,11870,0.357435,0.028537,-2.383153,0.089476,-0.059623,0.991113
2011-10-03T14:34:30.534292,11880,0.371682,0.008078,-2.370474,0.089292,-0.059699,0.991405
2011-10-03T14:34:30.544292,11890,0.385930,-0.012381,-2.357796,0.089108,-0.059776,0.991696
2011-10-03T14:34:30.554292,11900,0.400177,-0.032839,-2.345117,0.088924,-0.059852,0.991988
2011-10-03T14:34:30.564292,11910,0.414425,-0.053298,-2.332439,0.088740,-0.059928,0.992279
2011-10-03T14:34:30.574292,11920,0.428672,-0.073756,-2.319761,0.088556,-0.060005,0.992571
2011-10-03T14:34:30.584292,11930,0.436522,-0.099552,-2.306240,0.088281,-0.059861,0.993078
2011-10-03T14:34:30.594292,11940,0.404009,-0.159019,-2.287407,0.087428,-0.058327,0.994948
2011-10-03T14:34:30.604292,11950,0.371496,-0.218486,-2.268575,0.086574,-0.056793,0.996817
2011-10-03T14:34:30.614292,11960,0.338983,-0.277953,-2.249742,0.085721,-0.055259,0.998687
2011-10-03T14:34:30.624292,11970,0.306469,-0.337421,-2.230910,0.084868,-0.053725,1.000556
2011-10-03T14:34:30.634292,11980,0.273956,-0.396888,-2.212077,0.084015,-0.052192,1.002426
2011-10-03T14:34:30.644292,11990,0.241443,-0.456355,-2.193245,0.083161,-0.050658,1.004295
2011-10-03T14:34:30.654292,12000,0.208929,-0.515822,-2.174412,0.082308,-0.049124,1.006165
2011-10-03T14:34:30.664292,12010,0.176416,-0.575289,-2.155579,0.081455,-0.047590,1.008034
2011-10-03T14:34:30.674292,12020,0.143903,-0.634757,-2.136747,0.080602,-0.046056,1.009904
2011-10-03T14:34:30.684292,12030,0.115884,-0.693485,-2.119661,0.079953,-0.044613,1.011661
2011-10-03T14:34:30.694292,12040,0.115891,-0.747605,-2.113467,0.080584,-0.043733,1.012717
2011-10-03T14:34:30.704292,12050,0.115898,-0.801726,-2.107274,0.081215,-0.042853,1.013773
2011-10-03T14:34:30.714292,12060,0.115905,-0.855847,-2.101080,0.081845,-0.041974,1.014830
2011-10-03T14:34:30.724292,12070,0.115912,-0.909967,-2.094887,0.082476,-0.041094,1.015886
2011-10-03T14:34:30.734292,12080,0.115919,-0.964088,-2.088693,0.083107,-0.040215,1.016942
2011-10-03T14:34:30.744292,12090,0.115926,-1.018208,-2.082500,0.083738,-0.039335,1.017999
2011-10-03T14:34:30.754292,12100,0.115932,-1.072329,-2.076306,0.084368,-0.038455,1.019055
2011-10-03T14:34:30.764292,12110,0.115939,-1.126449,-2.070112,0.084999,-0.037576,1.020111
2011-10-03T14:34:30.774292,12120,0.115946,-1.180570,-2.063919,0.085630,-0.036696,1.021168
2011-10-03T14:34:30.784292,12130,0.118624,-1.217461,-2.057718,0.086265,-0.035902,1.021971
2011-10-03T14:34:30.794292,12140,0.138296,-1.144723,-2.051468,0.086925,-0.035649,1.021163
2011-10-03T14:34:30.804292,12150,0.157968,-1.071984,-2.045218,0.087586,-0.035395,1.020355
2011-10-03T14:34:30.814292,12160,0.177641,-0.999246,-2.038968,0.088246,-0.035142,1.019547
2011-10-03T14:34:30.824292,12170,0.197313,-0.926507,-2.032719,0.088907,-0.034889,1.018739
2011-10-03T14:34:30.834292,12180,0.216985,-0.853769,-2.026469,0.089567,-0.034636,1.017931
2011-10-03T14:34:30.844292,12190,0.236657,-0.781031,-2.020219,0.090228,-0.034383,1.017123
2011-10-03T14:34:30.854292,12200,0.256329,-0.708292,-2.013970,0.090889,-0.034130,1.016315
2011-10-03T14:34:30.864292,12210,0.276001,-0.635554,-2.007720,0.091549,-0.033877,1.015506
2011-10-03T14:34:30.874292,12220,0.295674,-0.562815,-2.001470,0.092210,-0.033624,1.014698
2011-10-03T14:34:30.884292,12230,0.315346,-0.490077,-1.995220,0.092870,-0.033370,1.013890
2011-10-03T14:34:30.894292,12240,0.325668,-0.428953,-1.989336,0.093391,-0.033090,1.013352
2011-10-03T14:34:30.904292,12250,0.278176,-0.439651,-1.985707,0.093050,-0.032642,1.014478
2011-10-03T14:34:30.914292,12260,0.230684,-0.450348,-1.982079,0.092708,-0.032194,1.015605
2011-10-03T14:34:30.924292,12270,0.183193,-0.461046,-1.978451,0.092367,-0.031745,1.016731
2011-10-03T14:34:30.934292,12280,0.135701,-0.471743,-1.974822,0.092025,-0.031297,1.017858
2011-10-03T14:34:30.944292,12290,0.088209,-0.482441,-1.971194,0.091684,-0.030849,1.018985
2011-10-03T14:34:30.954292,12300,0.040717,-0.493138,-1.967566,0.091342,-0.030401,1.020111
2011-10-03T14:34:30.964292,12310,-0.006775,-0.503836,-1.963938,0.091001,-0.029953,1.021238
2011-10-03T14:34:30.974292,12320,-0.054266,-0.514533,-1.960309,0.090659,-0.029504,1.022364
2011-10-03T14:34:30.984292,12330,-0.101758,-0.525231,-1.956681,0.090318,-0.029056,1.023491
2011-10-03T14:34:30.994292,12340,-0.142331,-0.531815,-1.954943,0.090112,-0.028435,1.024193
2011-10-03T14:34:31.004292,12350,-0.139278,-0.512466,-1.965127,0.090759,-0.026725,1.022219
2011-10-03T14:34:31.014292,12360,-0.136225,-0.493116,-1.975311,0.091406,-0.025015,1.020246
2011-10-03T14:34:31.024292,12370,-0.133172,-0.473766,-1.985495,0.092053,-0.023306,1.018272
2011-10-03T14:34:31.034292,12380,-0.130119,-0.454417,-1.995679,0.092701,-0.021596,1.016298
2011-10-03T14:34:31.044292,12390,-0.127066,-0.435067,-2.005863,0.093348,-0.019886,1.014325
2011-10-03T14:34:31.054292,12400,-0.124012,-0.415717,-2.016047,0.093995,-0.018176,1.012351
2011-10-03T14:34:31.064292,12410,-0.120959,-0.396367,-2.026230,0.094642,-0.016466,1.010377
2011-10-03T14:34:31.074292,12420,-0.117906,-0.377018,-2.036414,0.095290,-0.014756,1.008404
2011-10-03T14:34:31.084292,12430,-0.114853,-0.357668,-2.046598,0.095937,-0.013046,1.006430
2011-10-03T14:34:31.094292,12440,-0.111800,-0.338318,-2.056782,0.096584,-0.011336,1.004456
2011-10-03T14:34:31.104292,12450,-0.105527,-0.317731,-2.068797,0.097132,-0.010303,1.002758
2011-10-03T14:34:31.114292,12460,-0.079832,-0.289682,-2.091856,0.097083,-0.013352,1.002723
2011-10-03T14:34:31.124292,12470,-0.054137,-0.261632,-2.114914,0.097035,-0.016401,1.002687
2011-10-03T14:34:31.134292,12480,-0.028441,-0.233582,-2.137973,0.096986,-0.019450,1.002652
2011-10-03T14:34:31.144292,12490,-0.002746,-0.205533,-2.161031,0.096937,-0.022500,1.002616
2011-10-03T14:34:31.154292,12500,0.022949,-0.177483,-2.184090,0.096888,-0.025549,1.002581
2011-10-03T14:34:31.164292,12510,0.048644,-0.149433,-2.207149,0.096839,-0.028598,1.002545
2011-10-03T14:34:31.174292,12520,0.074340,-0.121384,-2.230207,0.096790,-0.031647,1.002510
2011-10-03T14:34:31.184292,12530,0.100035,-0.093334,-2.253266,0.096742,-0.034696,1.002474
2011-10-03T14:34:31.194292,12540,0.125730,-0.065284,-2.276325,0.096693,-0.037745,1.002438
2011-10-03T14:34:31.204292,12550,0.156291,-0.038498,-2.295230,0.096475,-0.040766,1.002430
2011-10-03T14:34:31.214292,12560,0.215570,-0.019167,-2.289626,0.095263,-0.043620,1.002579
2011-10-03T14:34:31.224292,12570,0.274848,0.000164,-2.284022,0.094050,-0.046474,1.002729
2011-10-03T14:34:31.234292,12580,0.334127,0.019496,-2.278417,0.092838,-0.049328,1.002878
2011-10-03T14:34:31.244292,12590,0.393405,0.038827,-2.272813,0.091626,-0.052181,1.003028
2011-10-03T14:34:31.254292,12600,0.452683,0.058158,-2.267209,0.090413,-0.055035,1.003177
2011-10-03T14:34:31.264292,12610,0.511962,0.077490,-2.261605,0.089201,-0.057889,1.003327
2011-10-03T14:34:31.274292,12620,0.571240,0.096821,-2.256000,0.087988,-0.060743,1.003476
2011-10-03T14:34:31.284292,12630,0.630518,0.116152,-2.250396,0.086776,-0.063597,1.003626
2011-10-03T14:34:31.294292,12640,0.689797,0.135483,-2.244792,0.085563,-0.066450,1.003775
2011-10-03T14:34:31.304292,12650,0.746691,0.149425,-2.236144,0.084651,-0.068603,1.003969
2011-10-03T14:34:31.314292,12660,0.789012,0.130420,-2.208889,0.085569,-0.066474,1.004436
2011-10-03T14:34:31.324292,12670,0.831333,0.111415,-2.181634,0.086488,-0.064344,1.004903
2011-10-03T14:34:31.334292,12680,0.873655,0.092410,-2.154379,0.087406,-0.062214,1.005369
2011-10-03T14:34:31.344292,12690,0.915976,0.073406,-2.127125,0.088325,-0.060084,1.005836
2011-10-03T14:34:31.354292,12700,0.958297,0.054401,-2.099870,0.089243,-0.057954,1.006303
2011-10-03T14:34:31.364292,12710,1.000618,0.035396,-2.072615,0.090162,-0.055825,1.006769
2011-10-03T14:34:31.374292,12720,1.042940,0.016391,-2.045360,0.091080,-0.053695,1.007236
2011-10-03T14:34:31.384292,12730,1.085261,-0.002613,-2.018106,0.091999,-0.051565,1.007703
2011-10-03T14:34:31.394292,12740,1.127582,-0.021618,-1.990851,0.092917,-0.049435,1.008170
2011-10-03T14:34:31.404292,12750,1.169903,-0.040623,-1.963596,0.093836,-0.047305,1.008636
2011-10-03T14:34:31.414292,12760,1.193566,-0.052965,-1.936270,0.094543,-0.045185,1.008761
2011-10-03T14:34:31.424292,12770,1.109397,-0.026801,-1.908529,0.094027,-0.043116,1.006908
2011-10-03T14:34:31.434292,12780,1.025228,-0.000638,-1.880789,0.093511,-0.041047,1.005055
2011-10-03T14:34:31.444292,12790,0.941059,0.025526,-1.853049,0.092996,-0.038978,1.003202
2011-10-03T14:34:31.454292,12800,0.856890,0.051689,-1.825309,0.092480,-0.036909,1.001349
2011-10-03T14:34:31.464292,12810,0.772721,0.077853,-1.797569,0.091964,-0.034841,0.999495
2011-10-03T14:34:31.474292,12820,0.688552,0.104016,-1.769829,0.091448,-0.032772,0.997642
2011-10-03T14:34:31.484292,12830,0.604383,0.130180,-1.742088,0.090932,-0.030703,0.995789
2011-10-03T14:34:31.494292,12840,0.520214,0.156343,-1.714348,0.090417,-0.028634,0.993936
2011-10-03T14:34:31.504292,12850,0.436045,0.182507,-1.686608,0.089901,-0.026565,0.992083
2011-10-03T14:34:31.514292,12860,0.354584,0.206132,-1.661645,0.089493,-0.024418,0.990391
2011-10-03T14:34:31.524292,12870,0.289481,0.214420,-1.653466,0.089738,-0.021795,0.989673
2011-10-03T14:34:31.534292,12880,0.224378,0.222707,-1.645286,0.089983,-0.019173,0.988954
2011-10-03T14:34:31.544292,12890,0.159275,0.230994,-1.637107,0.090228,-0.016550,0.988235
2011-10-03T14:34:31.554292,12900,0.094172,0.239282,-1.628927,0.090473,-0.013927,0.987516
2011-10-03T14:34:31.564292,12910,0.029070,0.247569,-1.620747,0.090717,-0.011305,0.986798
2011-10-03T14:34:31.574292,12920,-0.036033,0.255857,-1.612568,0.090962,-0.008682,0.986079
2011-10-03T14:34:31.584292,12930,-0.101136,0.264144,-1.604388,0.091207,-0.006059,0.985360
2011-10-03T14:34:31.594292,12940,-0.166239,0.272432,-1.596209,0.091452,-0.003437,0.984642
2011-10-03T14:34:31.604292,12950,-0.231342,0.280719,-1.588029,0.091697,-0.000814,0.983923
2011-10-03T14:34:31.614292,12960,-0.290158,0.282974,-1.581615,0.091790,0.001453,0.983054
2011-10-03T14:34:31.624292,12970,-0.312376,0.250105,-1.585478,0.091002,0.001650,0.981308
2011-10-03T14:34:31.634292,12980,-0.334594,0.217235,-1.589341,0.090213,0.001846,0.979562
2011-10-03T14:34:31.644292,12990,-0.356812,0.184366,-1.593204,0.089425,0.002043,0.977816
2011-10-03T14:34:31.654292,13000,-0.379030,0.151497,-1.597067,0.088636,0.002240,0.976070
2011-10-03T14:34:31.664292,13010,-0.401248,0.118627,-1.600930,0.087847,0.002436,0.974324
2011-10-03T14:34:31.674292,13020,-0.423466,0.085758,-1.604793,0.087059,0.002633,0.972578
2011-10-03T14:34:31.684292,13030,-0.445683,0.052889,-1.608657,0.086270,0.002829,0.970832
2011-10-03T14:34:31.694292,13040,-0.467901,0.020019,-1.612520,0.085482,0.003026,0.969087
2011-10-03T14:34:31.704292,13050,-0.490119,-0.012850,-1.616383,0.084693,0.003223,0.967341
2011-10-03T14:34:31.714292,13060,-0.512337,-0.045719,-1.620246,0.083905,0.003419,0.965595
2011-10-03T14:34:31.724292,13070,-0.526556,-0.082785,-1.625139,0.083473,0.003349,0.964931
2011-10-03T14:34:31.734292,13080,-0.494723,-0.144007,-1.635959,0.085095,0.001745,0.970496
2011-10-03T14:34:31.744292,13090,-0.462890,-0.205230,-1.646779,0.086716,0.000141,0.976062
2011-10-03T14:34:31.754292,13100,-0.431058,-0.266452,-1.657599,0.088338,-0.001464,0.981627
2011-10-03T14:34:31.764292,13110,-0.399225,-0.327675,-1.668419,0.089960,-0.003068,0.987193
2011-10-03T14:34:31.774292,13120,-0.367392,-0.388897,-1.679239,0.091581,-0.004672,0.992758
2011-10-03T14:34:31.784292,13130,-0.335559,-0.450120,-1.690059,0.093203,-0.006277,0.998324
2011-10-03T14:34:31.794292,13140,-0.303727,-0.511342,-1.700879,0.094825,-0.007881,1.003889
2011-10-03T14:34:31.804292,13150,-0.271894,-0.572565,-1.711699,0.096446,-0.009485,1.009455
2011-10-03T14:34:31.814292,13160,-0.240061,-0.633787,-1.722519,0.098068,-0.011090,1.015020
2011-10-03T14:34:31.824292,13170,-0.210821,-0.681123,-1.733058,0.099370,-0.012274,1.019720
2011-10-03T14:34:31.834292,13180,-0.197633,-0.642451,-1.741853,0.098695,-0.010857,1.019061
2011-10-03T14:34:31.844292,13190,-0.184445,-0.603779,-1.750648,0.098020,-0.009439,1.018402
2011-10-03T14:34:31.854292,13200,-0.171257,-0.565106,-1.759442,0.097345,-0.008022,1.017743
2011-10-03T14:34:31.864292,13210,-0.158069,-0.526434,-1.768237,0.096670,-0.006605,1.017084
2011-10-03T14:34:31.874292,13220,-0.144881,-0.487762,-1.777032,0.095994,-0.005188,1.016425
2011-10-03T14:34:31.884292,13230,-0.131694,-0.449089,-1.785827,0.095319,-0.003771,1.015766
2011-10-03T14:34:31.894292,13240,-0.118506,-0.410417,-1.794622,0.094644,-0.002353,1.015107
2011-10-03T14:34:31.904292,13250,-0.105318,-0.371745,-1.803417,0.093969,-0.000936,1.014448
2011-10-03T14:34:31.914292,13260,-0.092130,-0.333073,-1.812211,0.093294,0.000481,1.013789
2011-10-03T14:34:31.924292,13270,-0.085268,-0.306783,-1.820629,0.092746,0.001310,1.013350
2011-10-03T14:34:31.934292,13280,-0.114366,-0.350875,-1.826905,0.092920,-0.001204,1.014164
2011-10-03T14:34:31.944292,13290,-0.143463,-0.394968,-1.833180,0.093094,-0.003719,1.014978
2011-10-03T14:34:31.954292,13300,-0.172561,-0.439060,-1.839455,0.093269,-0.006233,1.015792
2011-10-03T14:34:31.964292,13310,-0.201658,-0.483153,-1.845730,0.093443,-0.008748,1.016606
2011-10-03T14:34:31.974292,13320,-0.230756,-0.527245,-1.852006,0.093617,-0.011262,1.017420
2011-10-03T14:34:31.984292,13330,-0.259853,-0.571338,-1.858281,0.093792,-0.013776,1.018234
2011-10-03T14:34:31.994292,13340,-0.288950,-0.615430,-1.864556,0.093966,-0.016291,1.019048
2011-10-03T14:34:32.004292,13350,-0.318048,-0.659523,-1.870831,0.094140,-0.018805,1.019862
2011-10-03T14:34:32.014292,13360,-0.347145,-0.703615,-1.877107,0.094315,-0.021320,1.020676
2011-10-03T14:34:32.024292,13370,-0.376243,-0.747708,-1.883382,0.094489,-0.023834,1.021490
2011-10-03T14:34:32.034292,13380,-0.402840,-0.789873,-1.888907,0.094651,-0.026090,1.022822
2011-10-03T14:34:32.044292,13390,-0.415621,-0.821385,-1.890287,0.094740,-0.026918,1.027012
2011-10-03T14:34:32.054292,13400,-0.428401,-0.852896,-1.891668,0.094830,-0.027746,1.031202
2011-10-03T14:34:32.064292,13410,-0.441181,-0.884408,-1.893048,0.094920,-0.028573,1.035393
