pc_time,ts_ms,gyroX,gyroY,gyroZ,accelX,accelY,accelZ
2011-09-26T13:12:03.968689,0,-0.067369,0.499164,1.055702,-0.043955,0.022534,1.000948
2011-09-26T13:12:03.978689,10,-0.141331,0.505500,1.032954,-0.044699,0.022031,0.998115
2011-09-26T13:12:03.988689,20,-0.215293,0.511836,1.010206,-0.045442,0.021528,0.995283
2011-09-26T13:12:03.998689,30,-0.289255,0.518172,0.987458,-0.046186,0.021024,0.992451
2011-09-26T13:12:04.008689,40,-0.363216,0.524508,0.964710,-0.046929,0.020521,0.989619
2011-09-26T13:12:04.018689,50,-0.437178,0.530844,0.941962,-0.047673,0.020017,0.986786
2011-09-26T13:12:04.028689,60,-0.511140,0.537180,0.919214,-0.048416,0.019514,0.983954
2011-09-26T13:12:04.038689,70,-0.585102,0.543516,0.896466,-0.049160,0.019010,0.981122
2011-09-26T13:12:04.048689,80,-0.659064,0.549852,0.873717,-0.049903,0.018507,0.978290
2011-09-26T13:12:04.058689,90,-0.733026,0.556188,0.850969,-0.050647,0.018004,0.975457
2011-09-26T13:12:04.068689,100,-0.806703,0.562412,0.828249,-0.051386,0.017501,0.972640
2011-09-26T13:12:04.078689,110,-0.794107,0.534601,0.813791,-0.050931,0.017271,0.974127
2011-09-26T13:12:04.088689,120,-0.781510,0.506790,0.799333,-0.050476,0.017041,0.975615
2011-09-26T13:12:04.098689,130,-0.768914,0.478980,0.784875,-0.050020,0.016811,0.977103
2011-09-26T13:12:04.108689,140,-0.756318,0.451169,0.770417,-0.049565,0.016582,0.978591
2011-09-26T13:12:04.118689,150,-0.743722,0.423358,0.755960,-0.049110,0.016352,0.980078
2011-09-26T13:12:04.128689,160,-0.731126,0.395548,0.741502,-0.048654,0.016122,0.981566
2011-09-26T13:12:04.138689,170,-0.718529,0.367737,0.727044,-0.048199,0.015892,0.983054
2011-09-26T13:12:04.148689,180,-0.705933,0.339926,0.712586,-0.047744,0.015662,0.984542
2011-09-26T13:12:04.158689,190,-0.693337,0.312116,0.698128,-0.047288,0.015432,0.986029
2011-09-26T13:12:04.168689,200,-0.680741,0.284305,0.683671,-0.046833,0.015202,0.987517
2011-09-26T13:12:04.178689,210,-0.703812,0.321719,0.679379,-0.046365,0.014533,0.987340
2011-09-26T13:12:04.188689,220,-0.726894,0.359153,0.675090,-0.045896,0.013864,0.987162
2011-09-26T13:12:04.198689,230,-0.749977,0.396587,0.670802,-0.045428,0.013195,0.986984
2011-09-26T13:12:04.208689,240,-0.773059,0.434022,0.666513,-0.044959,0.012526,0.986806
2011-09-26T13:12:04.218689,250,-0.796142,0.471456,0.662225,-0.044491,0.011857,0.986628
2011-09-26T13:12:04.228689,260,-0.819224,0.508890,0.657936,-0.044022,0.011188,0.986450
2011-09-26T13:12:04.238689,270,-0.842307,0.546325,0.653648,-0.043554,0.010519,0.986272
2011-09-26T13:12:04.248689,280,-0.865389,0.583759,0.649359,-0.043085,0.009850,0.986094
2011-09-26T13:12:04.258689,290,-0.888472,0.621194,0.645071,-0.042617,0.009181,0.985916
2011-09-26T13:12:04.268689,300,-0.911554,0.658628,0.640782,-0.042148,0.008511,0.985739
2011-09-26T13:12:04.278689,310,-0.934637,0.696062,0.636494,-0.041680,0.007842,0.985561
2011-09-26T13:12:04.288689,320,-0.917537,0.696439,0.634923,-0.042403,0.008204,0.984578
2011-09-26T13:12:04.298689,330,-0.899618,0.696060,0.633407,-0.043151,0.008587,0.983580
2011-09-26T13:12:04.308689,340,-0.881699,0.695680,0.631892,-0.043899,0.008970,0.982581
2011-09-26T13:12:04.318689,350,-0.863780,0.695301,0.630377,-0.044647,0.009353,0.981582
2011-09-26T13:12:04.328689,360,-0.845860,0.694922,0.628861,-0.045395,0.009736,0.980583
2011-09-26T13:12:04.338689,370,-0.827941,0.694543,0.627346,-0.046142,0.010118,0.979585
2011-09-26T13:12:04.348689,380,-0.810022,0.694163,0.625831,-0.046890,0.010501,0.978586
2011-09-26T13:12:04.358689,390,-0.792102,0.693784,0.624315,-0.047638,0.010884,0.977587
2011-09-26T13:12:04.368689,400,-0.774183,0.693405,0.622800,-0.048386,0.011267,0.976588
2011-09-26T13:12:04.378689,410,-0.756265,0.692979,0.621286,-0.049133,0.011649,0.975591
2011-09-26T13:12:04.388689,420,-0.740001,0.626942,0.621137,-0.049026,0.010613,0.976773
2011-09-26T13:12:04.398689,430,-0.723737,0.560904,0.620988,-0.048918,0.009577,0.977954
2011-09-26T13:12:04.408689,440,-0.707473,0.494867,0.620839,-0.048811,0.008541,0.979136
2011-09-26T13:12:04.418689,450,-0.691209,0.428829,0.620690,-0.048704,0.007506,0.980317
2011-09-26T13:12:04.428689,460,-0.674945,0.362792,0.620542,-0.048596,0.006470,0.981498
2011-09-26T13:12:04.438689,470,-0.658681,0.296755,0.620393,-0.048489,0.005434,0.982680
2011-09-26T13:12:04.448689,480,-0.642417,0.230717,0.620244,-0.048381,0.004398,0.983861
2011-09-26T13:12:04.458689,490,-0.626153,0.164680,0.620095,-0.048274,0.003362,0.985043
2011-09-26T13:12:04.468689,500,-0.609889,0.098642,0.619946,-0.048166,0.002327,0.986224
2011-09-26T13:12:04.478689,510,-0.593625,0.032605,0.619798,-0.048059,0.001291,0.987406
2011-09-26T13:12:04.488689,520,-0.596667,0.005577,0.618462,-0.048027,0.001136,0.988290
2011-09-26T13:12:04.498689,530,-0.599927,-0.021013,0.617114,-0.047996,0.000991,0.989171
2011-09-26T13:12:04.508689,540,-0.603186,-0.047603,0.615765,-0.047965,0.000846,0.990052
2011-09-26T13:12:04.518689,550,-0.606446,-0.074193,0.614416,-0.047934,0.000701,0.990933
2011-09-26T13:12:04.528689,560,-0.609705,-0.100783,0.613068,-0.047904,0.000557,0.991814
2011-09-26T13:12:04.538689,570,-0.612965,-0.127373,0.611719,-0.047873,0.000412,0.992695
2011-09-26T13:12:04.548689,580,-0.616224,-0.153963,0.610371,-0.047842,0.000267,0.993576
2011-09-26T13:12:04.558689,590,-0.619484,-0.180554,0.609022,-0.047811,0.000122,0.994457
2011-09-26T13:12:04.568689,600,-0.622743,-0.207144,0.607673,-0.047780,-0.000023,0.995338
2011-09-26T13:12:04.578689,610,-0.626003,-0.233734,0.606325,-0.047749,-0.000168,0.996219
2011-09-26T13:12:04.588689,620,-0.629262,-0.260324,0.604976,-0.047718,-0.000313,0.997100
2011-09-26T13:12:04.598689,630,-0.606641,-0.309119,0.612662,-0.047648,-0.001123,0.998371
2011-09-26T13:12:04.608689,640,-0.583979,-0.357950,0.620362,-0.047578,-0.001934,0.999642
2011-09-26T13:12:04.618689,650,-0.561316,-0.406782,0.628063,-0.047508,-0.002746,1.000914
2011-09-26T13:12:04.628689,660,-0.538653,-0.455613,0.635763,-0.047437,-0.003557,1.002186
2011-09-26T13:12:04.638689,670,-0.515990,-0.504444,0.643464,-0.047367,-0.004369,1.003458
2011-09-26T13:12:04.648689,680,-0.493327,-0.553276,0.651164,-0.047297,-0.005180,1.004729
2011-09-26T13:12:04.658689,690,-0.470664,-0.602107,0.658865,-0.047227,-0.005991,1.006001
2011-09-26T13:12:04.668689,700,-0.448002,-0.650938,0.666565,-0.047157,-0.006803,1.007273
2011-09-26T13:12:04.678689,710,-0.425339,-0.699769,0.674266,-0.047087,-0.007614,1.008544
2011-09-26T13:12:04.688689,720,-0.402676,-0.748601,0.681966,-0.047017,-0.008426,1.009816
2011-09-26T13:12:04.698689,730,-0.389710,-0.773427,0.673831,-0.047436,-0.009025,1.011167
2011-09-26T13:12:04.708689,740,-0.376954,-0.797734,0.665352,-0.047865,-0.009619,1.012519
2011-09-26T13:12:04.718689,750,-0.364197,-0.822041,0.656873,-0.048295,-0.010214,1.013871
2011-09-26T13:12:04.728689,760,-0.351441,-0.846348,0.648395,-0.048725,-0.010808,1.015223
2011-09-26T13:12:04.738689,770,-0.338685,-0.870655,0.639916,-0.049154,-0.011402,1.016575
2011-09-26T13:12:04.748689,780,-0.325929,-0.894962,0.631437,-0.049584,-0.011997,1.017927
2011-09-26T13:12:04.758689,790,-0.313173,-0.919269,0.622958,-0.050014,-0.012591,1.019279
2011-09-26T13:12:04.768689,800,-0.300416,-0.943576,0.614480,-0.050443,-0.013186,1.020631
2011-09-26T13:12:04.778689,810,-0.287660,-0.967883,0.606001,-0.050873,-0.013780,1.021984
2011-09-26T13:12:04.788689,820,-0.274904,-0.992190,0.597522,-0.051303,-0.014375,1.023336
2011-09-26T13:12:04.798689,830,-0.262531,-0.982033,0.600798,-0.050327,-0.013102,1.024836
2011-09-26T13:12:04.808689,840,-0.250161,-0.971654,0.604150,-0.049342,-0.011816,1.026338
2011-09-26T13:12:04.818689,850,-0.237790,-0.961275,0.607502,-0.048357,-0.010531,1.027839
2011-09-26T13:12:04.828689,860,-0.225420,-0.950896,0.610854,-0.047372,-0.009246,1.029341
2011-09-26T13:12:04.838689,870,-0.213050,-0.940517,0.614205,-0.046387,-0.007961,1.030842
2011-09-26T13:12:04.848689,880,-0.200679,-0.930138,0.617557,-0.045402,-0.006676,1.032343
2011-09-26T13:12:04.858689,890,-0.188309,-0.919759,0.620909,-0.044417,-0.005391,1.033845
2011-09-26T13:12:04.868689,900,-0.175939,-0.909381,0.624261,-0.043433,-0.004106,1.035346
2011-09-26T13:12:04.878689,910,-0.163568,-0.899002,0.627612,-0.042448,-0.002821,1.036848
2011-09-26T13:12:04.888689,920,-0.151198,-0.888623,0.630964,-0.041463,-0.001536,1.038349
2011-09-26T13:12:04.898689,930,-0.138828,-0.878244,0.634316,-0.040478,-0.000251,1.039851
2011-09-26T13:12:04.908689,940,-0.134478,-0.813691,0.642893,-0.041546,0.001224,1.036525
2011-09-26T13:12:04.918689,950,-0.130181,-0.748784,0.651504,-0.042627,0.002701,1.033168
2011-09-26T13:12:04.928689,960,-0.125884,-0.683878,0.660115,-0.043708,0.004178,1.029811
2011-09-26T13:12:04.938689,970,-0.121587,-0.618971,0.668726,-0.044790,0.005654,1.026453
2011-09-26T13:12:04.948689,980,-0.117290,-0.554064,0.677337,-0.045871,0.007131,1.023096
2011-09-26T13:12:04.958689,990,-0.112992,-0.489157,0.685948,-0.046952,0.008608,1.019739
2011-09-26T13:12:04.968689,1000,-0.108695,-0.424250,0.694559,-0.048033,0.010085,1.016382
2011-09-26T13:12:04.978689,1010,-0.104398,-0.359343,0.703170,-0.049115,0.011561,1.013025
2011-09-26T13:12:04.988689,1020,-0.100101,-0.294436,0.711781,-0.050196,0.013038,1.009667
2011-09-26T13:12:04.998689,1030,-0.095804,-0.229530,0.720392,-0.051277,0.014515,1.006310
2011-09-26T13:12:05.008689,1040,-0.068010,-0.224808,0.710120,-0.049949,0.012716,1.009183
2011-09-26T13:12:05.018689,1050,-0.040119,-0.220335,0.699771,-0.048611,0.010904,1.012081
2011-09-26T13:12:05.028689,1060,-0.012229,-0.215862,0.689422,-0.047272,0.009092,1.014980
2011-09-26T13:12:05.038689,1070,0.015662,-0.211388,0.679073,-0.045934,0.007280,1.017878
2011-09-26T13:12:05.048689,1080,0.043552,-0.206915,0.668724,-0.044596,0.005468,1.020777
2011-09-26T13:12:05.058689,1090,0.071443,-0.202442,0.658374,-0.043257,0.003656,1.023675
2011-09-26T13:12:05.068689,1100,0.099334,-0.197968,0.648025,-0.041919,0.001844,1.026574
2011-09-26T13:12:05.078689,1110,0.127224,-0.193495,0.637676,-0.040581,0.000031,1.029472
2011-09-26T13:12:05.088689,1120,0.155115,-0.189022,0.627327,-0.039242,-0.001781,1.032370
2011-09-26T13:12:05.098689,1130,0.183005,-0.184548,0.616978,-0.037904,-0.003593,1.035269
2011-09-26T13:12:05.108689,1140,0.191575,-0.180569,0.608465,-0.038519,-0.003438,1.032999
2011-09-26T13:12:05.118689,1150,0.200064,-0.176592,0.599961,-0.039142,-0.003275,1.030708
2011-09-26T13:12:05.128689,1160,0.208552,-0.172615,0.591457,-0.039766,-0.003112,1.028416
2011-09-26T13:12:05.138689,1170,0.217041,-0.168638,0.582952,-0.040389,-0.002949,1.026125
2011-09-26T13:12:05.148689,1180,0.225529,-0.164661,0.574448,-0.041013,-0.002786,1.023833
2011-09-26T13:12:05.158689,1190,0.234018,-0.160684,0.565943,-0.041636,-0.002623,1.021542
2011-09-26T13:12:05.168689,1200,0.242506,-0.156708,0.557439,-0.042259,-0.002460,1.019250
2011-09-26T13:12:05.178689,1210,0.250995,-0.152731,0.548934,-0.042883,-0.002297,1.016959
2011-09-26T13:12:05.188689,1220,0.259484,-0.148754,0.540430,-0.043506,-0.002134,1.014668
2011-09-26T13:12:05.198689,1230,0.267972,-0.144777,0.531925,-0.044129,-0.001971,1.012376
2011-09-26T13:12:05.208689,1240,0.276461,-0.140800,0.523421,-0.044753,-0.001808,1.010085
2011-09-26T13:12:05.218689,1250,0.223974,-0.099029,0.513805,-0.044761,-0.002396,1.008615
2011-09-26T13:12:05.228689,1260,0.169165,-0.055818,0.504146,-0.044747,-0.003013,1.007176
2011-09-26T13:12:05.238689,1270,0.114355,-0.012608,0.494488,-0.044732,-0.003629,1.005737
2011-09-26T13:12:05.248689,1280,0.059546,0.030602,0.484829,-0.044717,-0.004246,1.004299
2011-09-26T13:12:05.258689,1290,0.004737,0.073813,0.475171,-0.044702,-0.004863,1.002860
2011-09-26T13:12:05.268689,1300,-0.050073,0.117023,0.465512,-0.044687,-0.005479,1.001422
2011-09-26T13:12:05.278689,1310,-0.104882,0.160234,0.455853,-0.044672,-0.006096,0.999983
2011-09-26T13:12:05.288689,1320,-0.159691,0.203444,0.446195,-0.044657,-0.006712,0.998544
2011-09-26T13:12:05.298689,1330,-0.214500,0.246655,0.436536,-0.044642,-0.007329,0.997106
2011-09-26T13:12:05.308689,1340,-0.269310,0.289865,0.426878,-0.044628,-0.007945,0.995667
2011-09-26T13:12:05.318689,1350,-0.264741,0.346645,0.416406,-0.044457,-0.008413,0.993546
2011-09-26T13:12:05.328689,1360,-0.259729,0.403526,0.405928,-0.044285,-0.008879,0.991421
2011-09-26T13:12:05.338689,1370,-0.254718,0.460408,0.395449,-0.044114,-0.009346,0.989295
2011-09-26T13:12:05.348689,1380,-0.249706,0.517289,0.384971,-0.043942,-0.009812,0.987169
2011-09-26T13:12:05.358689,1390,-0.244695,0.574170,0.374493,-0.043770,-0.010278,0.985043
2011-09-26T13:12:05.368689,1400,-0.239683,0.631052,0.364015,-0.043599,-0.010745,0.982917
2011-09-26T13:12:05.378689,1410,-0.234672,0.687933,0.353537,-0.043427,-0.011211,0.980791
2011-09-26T13:12:05.388689,1420,-0.229660,0.744814,0.343059,-0.043255,-0.011678,0.978666
2011-09-26T13:12:05.398689,1430,-0.224649,0.801696,0.332581,-0.043084,-0.012144,0.976540
2011-09-26T13:12:05.408689,1440,-0.219637,0.858577,0.322102,-0.042912,-0.012610,0.974414
2011-09-26T13:12:05.418689,1450,-0.240715,0.829041,0.303380,-0.042907,-0.012477,0.974142
2011-09-26T13:12:05.428689,1460,-0.261967,0.798929,0.284603,-0.042903,-0.012340,0.973883
2011-09-26T13:12:05.438689,1470,-0.283219,0.768818,0.265826,-0.042900,-0.012203,0.973624
2011-09-26T13:12:05.448689,1480,-0.304471,0.738706,0.247048,-0.042896,-0.012066,0.973364
2011-09-26T13:12:05.458689,1490,-0.325723,0.708595,0.228271,-0.042892,-0.011929,0.973105
2011-09-26T13:12:05.468689,1500,-0.346975,0.678483,0.209494,-0.042888,-0.011793,0.972846
2011-09-26T13:12:05.478689,1510,-0.368227,0.648372,0.190717,-0.042885,-0.011656,0.972586
2011-09-26T13:12:05.488689,1520,-0.389479,0.618260,0.171939,-0.042881,-0.011519,0.972327
2011-09-26T13:12:05.498689,1530,-0.410731,0.588149,0.153162,-0.042877,-0.011382,0.972067
2011-09-26T13:12:05.508689,1540,-0.431983,0.558037,0.134385,-0.042873,-0.011245,0.971808
2011-09-26T13:12:05.518689,1550,-0.453235,0.527926,0.115607,-0.042870,-0.011108,0.971549
2011-09-26T13:12:05.528689,1560,-0.426399,0.528715,0.102584,-0.043442,-0.012504,0.973360
2011-09-26T13:12:05.538689,1570,-0.399033,0.529845,0.089624,-0.044021,-0.013917,0.975195
2011-09-26T13:12:05.548689,1580,-0.371667,0.530976,0.076663,-0.044599,-0.015330,0.977029
2011-09-26T13:12:05.558689,1590,-0.344301,0.532106,0.063703,-0.045178,-0.016744,0.978863
2011-09-26T13:12:05.568689,1600,-0.316935,0.533236,0.050743,-0.045756,-0.018157,0.980698
2011-09-26T13:12:05.578689,1610,-0.289569,0.534366,0.037783,-0.046335,-0.019570,0.982532
2011-09-26T13:12:05.588689,1620,-0.262203,0.535496,0.024823,-0.046914,-0.020983,0.984366
2011-09-26T13:12:05.598689,1630,-0.234837,0.536627,0.011862,-0.047492,-0.022397,0.986201
2011-09-26T13:12:05.608689,1640,-0.207472,0.537757,-0.001098,-0.048071,-0.023810,0.988035
2011-09-26T13:12:05.618689,1650,-0.180106,0.538887,-0.014058,-0.048650,-0.025223,0.989870
2011-09-26T13:12:05.628689,1660,-0.156870,0.494917,-0.012153,-0.048473,-0.025167,0.989464
2011-09-26T13:12:05.638689,1670,-0.133665,0.450610,-0.010136,-0.048292,-0.025101,0.989042
2011-09-26T13:12:05.648689,1680,-0.110461,0.406304,-0.008120,-0.048110,-0.025034,0.988620
2011-09-26T13:12:05.658689,1690,-0.087256,0.361997,-0.006104,-0.047928,-0.024967,0.988197
2011-09-26T13:12:05.668689,1700,-0.064051,0.317690,-0.004088,-0.047746,-0.024901,0.987775
2011-09-26T13:12:05.678689,1710,-0.040846,0.273384,-0.002071,-0.047564,-0.024834,0.987353
2011-09-26T13:12:05.688689,1720,-0.017641,0.229077,-0.000055,-0.047382,-0.024767,0.986931
2011-09-26T13:12:05.698689,1730,0.005563,0.184771,0.001961,-0.047200,-0.024700,0.986509
2011-09-26T13:12:05.708689,1740,0.028768,0.140464,0.003977,-0.047018,-0.024634,0.986086
2011-09-26T13:12:05.718689,1750,0.051973,0.096157,0.005994,-0.046836,-0.024567,0.985664
2011-09-26T13:12:05.728689,1760,0.091222,0.171099,0.005652,-0.047375,-0.024032,0.984810
2011-09-26T13:12:05.738689,1770,0.130801,0.248485,0.005263,-0.047928,-0.023487,0.983948
2011-09-26T13:12:05.748689,1780,0.170380,0.325872,0.004873,-0.048482,-0.022941,0.983085
2011-09-26T13:12:05.758689,1790,0.209958,0.403259,0.004483,-0.049035,-0.022396,0.982223
2011-09-26T13:12:05.768689,1800,0.249537,0.480645,0.004094,-0.049589,-0.021851,0.981360
2011-09-26T13:12:05.778689,1810,0.289115,0.558032,0.003704,-0.050143,-0.021306,0.980498
2011-09-26T13:12:05.788689,1820,0.328694,0.635418,0.003314,-0.050696,-0.020761,0.979635
2011-09-26T13:12:05.798689,1830,0.368273,0.712805,0.002925,-0.051250,-0.020216,0.978772
2011-09-26T13:12:05.808689,1840,0.407851,0.790192,0.002535,-0.051803,-0.019671,0.977910
2011-09-26T13:12:05.818689,1850,0.447430,0.867578,0.002146,-0.052357,-0.019126,0.977047
2011-09-26T13:12:05.828689,1860,0.487008,0.944965,0.001756,-0.052911,-0.018581,0.976185
2011-09-26T13:12:05.838689,1870,0.485357,0.807171,0.014676,-0.053965,-0.019239,0.977369
2011-09-26T13:12:05.848689,1880,0.483381,0.667683,0.027700,-0.055024,-0.019907,0.978570
2011-09-26T13:12:05.858689,1890,0.481404,0.528194,0.040724,-0.056082,-0.020575,0.979771
2011-09-26T13:12:05.868689,1900,0.479428,0.388706,0.053749,-0.057141,-0.021243,0.980972
2011-09-26T13:12:05.878689,1910,0.477452,0.249218,0.066773,-0.058199,-0.021911,0.982173
2011-09-26T13:12:05.888689,1920,0.475475,0.109730,0.079798,-0.059258,-0.022579,0.983374
2011-09-26T13:12:05.898689,1930,0.473499,-0.029759,0.092822,-0.060316,-0.023247,0.984575
2011-09-26T13:12:05.908689,1940,0.471523,-0.169247,0.105847,-0.061375,-0.023915,0.985776
2011-09-26T13:12:05.918689,1950,0.469547,-0.308735,0.118871,-0.062434,-0.024583,0.986977
2011-09-26T13:12:05.928689,1960,0.467570,-0.448223,0.131895,-0.063492,-0.025250,0.988178
2011-09-26T13:12:05.938689,1970,0.486296,-0.460409,0.125444,-0.064474,-0.024106,0.990556
2011-09-26T13:12:05.948689,1980,0.505258,-0.471140,0.118770,-0.065455,-0.022942,0.992947
2011-09-26T13:12:05.958689,1990,0.524219,-0.481871,0.112097,-0.066436,-0.021777,0.995339
2011-09-26T13:12:05.968689,2000,0.543181,-0.492601,0.105423,-0.067417,-0.020612,0.997730
2011-09-26T13:12:05.978689,2010,0.562143,-0.503332,0.098749,-0.068397,-0.019447,1.000122
2011-09-26T13:12:05.988689,2020,0.581105,-0.514062,0.092075,-0.069378,-0.018282,1.002513
2011-09-26T13:12:05.998689,2030,0.600067,-0.524793,0.085401,-0.070359,-0.017118,1.004905
2011-09-26T13:12:06.008689,2040,0.619029,-0.535524,0.078727,-0.071340,-0.015953,1.007296
2011-09-26T13:12:06.018689,2050,0.637991,-0.546254,0.072053,-0.072321,-0.014788,1.009688
2011-09-26T13:12:06.028689,2060,0.656953,-0.556985,0.065380,-0.073302,-0.013623,1.012079
2011-09-26T13:12:06.038689,2070,0.625404,-0.486444,0.067768,-0.073943,-0.014099,1.013805
2011-09-26T13:12:06.048689,2080,0.593253,-0.414934,0.070265,-0.074579,-0.014593,1.015522
2011-09-26T13:12:06.058689,2090,0.561102,-0.343424,0.072762,-0.075216,-0.015088,1.017240
2011-09-26T13:12:06.068689,2100,0.528950,-0.271913,0.075259,-0.075853,-0.015583,1.018957
2011-09-26T13:12:06.078689,2110,0.496799,-0.200403,0.077756,-0.076490,-0.016078,1.020675
2011-09-26T13:12:06.088689,2120,0.464648,-0.128893,0.080253,-0.077126,-0.016573,1.022392
2011-09-26T13:12:06.098689,2130,0.432497,-0.057382,0.082749,-0.077763,-0.017068,1.024110
2011-09-26T13:12:06.108689,2140,0.400346,0.014128,0.085246,-0.078400,-0.017563,1.025827
2011-09-26T13:12:06.118689,2150,0.368194,0.085638,0.087743,-0.079037,-0.018058,1.027545
2011-09-26T13:12:06.128689,2160,0.336043,0.157149,0.090240,-0.079673,-0.018552,1.029262
2011-09-26T13:12:06.138689,2170,0.303892,0.228659,0.092737,-0.080310,-0.019047,1.030980
2011-09-26T13:12:06.148689,2180,0.332298,0.267020,0.092851,-0.081913,-0.019213,1.027220
2011-09-26T13:12:06.158689,2190,0.361068,0.305181,0.092952,-0.083521,-0.019377,1.023428
2011-09-26T13:12:06.168689,2200,0.389838,0.343343,0.093052,-0.085130,-0.019541,1.019635
2011-09-26T13:12:06.178689,2210,0.418608,0.381504,0.093152,-0.086738,-0.019705,1.015842
2011-09-26T13:12:06.188689,2220,0.447378,0.419666,0.093253,-0.088347,-0.019869,1.012050
2011-09-26T13:12:06.198689,2230,0.476148,0.457827,0.093353,-0.089955,-0.020032,1.008257
2011-09-26T13:12:06.208689,2240,0.504918,0.495988,0.093453,-0.091564,-0.020196,1.004465
2011-09-26T13:12:06.218689,2250,0.533688,0.534150,0.093554,-0.093172,-0.020360,1.000672
2011-09-26T13:12:06.228689,2260,0.562458,0.572311,0.093654,-0.094781,-0.020524,0.996880
2011-09-26T13:12:06.238689,2270,0.591228,0.610472,0.093754,-0.096389,-0.020688,0.993087
2011-09-26T13:12:06.248689,2280,0.556844,0.620733,0.097349,-0.097725,-0.020974,0.992692
2011-09-26T13:12:06.258689,2290,0.520284,0.630032,0.101065,-0.099051,-0.021263,0.992414
2011-09-26T13:12:06.268689,2300,0.483724,0.639331,0.104781,-0.100377,-0.021553,0.992137
2011-09-26T13:12:06.278689,2310,0.447165,0.648630,0.108496,-0.101703,-0.021843,0.991859
2011-09-26T13:12:06.288689,2320,0.410605,0.657929,0.112212,-0.103029,-0.022133,0.991581
2011-09-26T13:12:06.298689,2330,0.374046,0.667228,0.115927,-0.104355,-0.022423,0.991303
2011-09-26T13:12:06.308689,2340,0.337486,0.676528,0.119643,-0.105681,-0.022712,0.991025
2011-09-26T13:12:06.318689,2350,0.300926,0.685827,0.123359,-0.107007,-0.023002,0.990747
2011-09-26T13:12:06.328689,2360,0.264367,0.695126,0.127074,-0.108333,-0.023292,0.990470
2011-09-26T13:12:06.338689,2370,0.227807,0.704425,0.130790,-0.109659,-0.023582,0.990192
2011-09-26T13:12:06.348689,2380,0.262262,0.662491,0.130399,-0.111229,-0.022909,0.989203
2011-09-26T13:12:06.358689,2390,0.297342,0.620107,0.129972,-0.112800,-0.022228,0.988207
2011-09-26T13:12:06.368689,2400,0.332421,0.577723,0.129545,-0.114372,-0.021547,0.987212
2011-09-26T13:12:06.378689,2410,0.367501,0.535339,0.129119,-0.115943,-0.020866,0.986217
2011-09-26T13:12:06.388689,2420,0.402581,0.492955,0.128692,-0.117515,-0.020184,0.985222
2011-09-26T13:12:06.398689,2430,0.437660,0.450571,0.128265,-0.119086,-0.019503,0.984226
2011-09-26T13:12:06.408689,2440,0.472740,0.408187,0.127838,-0.120658,-0.018822,0.983231
2011-09-26T13:12:06.418689,2450,0.507819,0.365803,0.127411,-0.122229,-0.018141,0.982236
2011-09-26T13:12:06.428689,2460,0.542899,0.323419,0.126985,-0.123800,-0.017460,0.981240
2011-09-26T13:12:06.438689,2470,0.577979,0.281034,0.126558,-0.125372,-0.016779,0.980245
2011-09-26T13:12:06.448689,2480,0.613058,0.238650,0.126131,-0.126943,-0.016098,0.979250
2011-09-26T13:12:06.458689,2490,0.593479,0.222910,0.133033,-0.128453,-0.015332,0.980938
2011-09-26T13:12:06.468689,2500,0.573201,0.207511,0.140028,-0.129962,-0.014565,0.982660
2011-09-26T13:12:06.478689,2510,0.552924,0.192112,0.147024,-0.131471,-0.013798,0.984382
2011-09-26T13:12:06.488689,2520,0.532646,0.176713,0.154019,-0.132981,-0.013031,0.986104
2011-09-26T13:12:06.498689,2530,0.512368,0.161313,0.161014,-0.134490,-0.012264,0.987826
2011-09-26T13:12:06.508689,2540,0.492090,0.145914,0.168010,-0.135999,-0.011497,0.989549
2011-09-26T13:12:06.518689,2550,0.471813,0.130515,0.175005,-0.137508,-0.010730,0.991271
2011-09-26T13:12:06.528689,2560,0.451535,0.115115,0.182001,-0.139017,-0.009963,0.992993
2011-09-26T13:12:06.538689,2570,0.431257,0.099716,0.188996,-0.140526,-0.009196,0.994715
2011-09-26T13:12:06.548689,2580,0.410979,0.084317,0.195992,-0.142035,-0.008429,0.996437
2011-09-26T13:12:06.558689,2590,0.412565,0.078834,0.210169,-0.143184,-0.006771,0.997024
2011-09-26T13:12:06.568689,2600,0.414359,0.073446,0.224415,-0.144329,-0.005104,0.997600
2011-09-26T13:12:06.578689,2610,0.416152,0.068058,0.238661,-0.145474,-0.003438,0.998176
2011-09-26T13:12:06.588689,2620,0.417946,0.062670,0.252907,-0.146619,-0.001771,0.998752
2011-09-26T13:12:06.598689,2630,0.419739,0.057282,0.267153,-0.147765,-0.000104,0.999328
2011-09-26T13:12:06.608689,2640,0.421533,0.051893,0.281399,-0.148910,0.001562,0.999904
2011-09-26T13:12:06.618689,2650,0.423326,0.046505,0.295644,-0.150055,0.003229,1.000480
2011-09-26T13:12:06.628689,2660,0.425120,0.041117,0.309890,-0.151200,0.004896,1.001056
2011-09-26T13:12:06.638689,2670,0.426913,0.035729,0.324136,-0.152346,0.006562,1.001632
2011-09-26T13:12:06.648689,2680,0.428706,0.030341,0.338382,-0.153491,0.008229,1.002208
2011-09-26T13:12:06.658689,2690,0.397623,0.013471,0.335744,-0.154377,0.007999,1.002880
2011-09-26T13:12:06.668689,2700,0.366115,-0.003546,0.332889,-0.155261,0.007745,1.003553
2011-09-26T13:12:06.678689,2710,0.334608,-0.020563,0.330034,-0.156144,0.007491,1.004226
2011-09-26T13:12:06.688689,2720,0.303101,-0.037581,0.327178,-0.157027,0.007237,1.004899
2011-09-26T13:12:06.698689,2730,0.271593,-0.054598,0.324323,-0.157910,0.006982,1.005573
2011-09-26T13:12:06.708689,2740,0.240086,-0.071615,0.321468,-0.158793,0.006728,1.006246
2011-09-26T13:12:06.718689,2750,0.208578,-0.088632,0.318613,-0.159676,0.006474,1.006919
2011-09-26T13:12:06.728689,2760,0.177071,-0.105650,0.315758,-0.160559,0.006220,1.007592
2011-09-26T13:12:06.738689,2770,0.145564,-0.122667,0.312902,-0.161442,0.005965,1.008265
2011-09-26T13:12:06.748689,2780,0.114056,-0.139684,0.310047,-0.162326,0.005711,1.008938
2011-09-26T13:12:06.758689,2790,0.082549,-0.156701,0.307192,-0.163209,0.005457,1.009612
2011-09-26T13:12:06.768689,2800,0.061291,-0.161227,0.315068,-0.163751,0.004114,1.009837
2011-09-26T13:12:06.778689,2810,0.040174,-0.165582,0.323091,-0.164289,0.002756,1.010057
2011-09-26T13:12:06.788689,2820,0.019056,-0.169937,0.331114,-0.164827,0.001398,1.010277
2011-09-26T13:12:06.798689,2830,-0.002061,-0.174292,0.339137,-0.165365,0.000040,1.010496
2011-09-26T13:12:06.808689,2840,-0.023179,-0.178647,0.347159,-0.165903,-0.001318,1.010716
2011-09-26T13:12:06.818689,2850,-0.044296,-0.183002,0.355182,-0.166441,-0.002676,1.010936
2011-09-26T13:12:06.828689,2860,-0.065414,-0.187357,0.363205,-0.166979,-0.004034,1.011155
2011-09-26T13:12:06.838689,2870,-0.086531,-0.191712,0.371228,-0.167517,-0.005393,1.011375
2011-09-26T13:12:06.848689,2880,-0.107649,-0.196067,0.379251,-0.168055,-0.006751,1.011595
2011-09-26T13:12:06.858689,2890,-0.128766,-0.200422,0.387274,-0.168593,-0.008109,1.011814
2011-09-26T13:12:06.868689,2900,-0.143061,-0.128574,0.384667,-0.169907,-0.007357,1.011872
2011-09-26T13:12:06.878689,2910,-0.157271,-0.055778,0.381928,-0.171231,-0.006579,1.011928
2011-09-26T13:12:06.888689,2920,-0.171481,0.017019,0.379189,-0.172554,-0.005802,1.011983
2011-09-26T13:12:06.898689,2930,-0.185691,0.089816,0.376449,-0.173878,-0.005024,1.012039
2011-09-26T13:12:06.908689,2940,-0.199901,0.162613,0.373710,-0.175202,-0.004246,1.012095
2011-09-26T13:12:06.918689,2950,-0.214111,0.235409,0.370971,-0.176525,-0.003468,1.012150
2011-09-26T13:12:06.928689,2960,-0.228321,0.308206,0.368231,-0.177849,-0.002690,1.012206
2011-09-26T13:12:06.938689,2970,-0.242531,0.381003,0.365492,-0.179173,-0.001913,1.012262
2011-09-26T13:12:06.948689,2980,-0.256741,0.453799,0.362753,-0.180496,-0.001135,1.012317
2011-09-26T13:12:06.958689,2990,-0.270951,0.526596,0.360013,-0.181820,-0.000357,1.012373
2011-09-26T13:12:06.968689,3000,-0.278350,0.535445,0.360744,-0.182965,-0.000832,1.010708
2011-09-26T13:12:06.978689,3010,-0.285653,0.543400,0.361522,-0.184107,-0.001324,1.009020
2011-09-26T13:12:06.988689,3020,-0.292957,0.551354,0.362301,-0.185249,-0.001816,1.007331
2011-09-26T13:12:06.998689,3030,-0.300261,0.559309,0.363080,-0.186392,-0.002307,1.005642
2011-09-26T13:12:07.008689,3040,-0.307564,0.567264,0.363859,-0.187534,-0.002799,1.003954
2011-09-26T13:12:07.018689,3050,-0.314868,0.575218,0.364638,-0.188676,-0.003291,1.002265
2011-09-26T13:12:07.028689,3060,-0.322171,0.583173,0.365417,-0.189818,-0.003783,1.000577
2011-09-26T13:12:07.038689,3070,-0.329475,0.591128,0.366196,-0.190961,-0.004275,0.998888
2011-09-26T13:12:07.048689,3080,-0.336779,0.599082,0.366975,-0.192103,-0.004767,0.997199
2011-09-26T13:12:07.058689,3090,-0.344082,0.607037,0.367753,-0.193245,-0.005259,0.995511
2011-09-26T13:12:07.068689,3100,-0.351386,0.614991,0.368532,-0.194387,-0.005751,0.993822
2011-09-26T13:12:07.078689,3110,-0.342543,0.599468,0.370026,-0.195021,-0.006292,0.992354
2011-09-26T13:12:07.088689,3120,-0.333513,0.583674,0.371528,-0.195649,-0.006832,0.990889
2011-09-26T13:12:07.098689,3130,-0.324483,0.567880,0.373030,-0.196276,-0.007373,0.989424
2011-09-26T13:12:07.108689,3140,-0.315454,0.552085,0.374532,-0.196904,-0.007914,0.987959
2011-09-26T13:12:07.118689,3150,-0.306424,0.536291,0.376034,-0.197532,-0.008455,0.986494
2011-09-26T13:12:07.128689,3160,-0.297394,0.520497,0.377537,-0.198159,-0.008996,0.985029
2011-09-26T13:12:07.138689,3170,-0.288364,0.504703,0.379039,-0.198787,-0.009536,0.983564
2011-09-26T13:12:07.148689,3180,-0.279335,0.488909,0.380541,-0.199415,-0.010077,0.982099
2011-09-26T13:12:07.158689,3190,-0.270305,0.473114,0.382043,-0.200042,-0.010618,0.980634
2011-09-26T13:12:07.168689,3200,-0.261275,0.457320,0.383545,-0.200670,-0.011159,0.979169
2011-09-26T13:12:07.178689,3210,-0.247802,0.411834,0.380231,-0.201344,-0.010885,0.979529
2011-09-26T13:12:07.188689,3220,-0.234284,0.366049,0.376868,-0.202019,-0.010604,0.979906
2011-09-26T13:12:07.198689,3230,-0.220765,0.320264,0.373505,-0.202693,-0.010322,0.980284
2011-09-26T13:12:07.208689,3240,-0.207247,0.274479,0.370142,-0.203368,-0.010040,0.980662
2011-09-26T13:12:07.218689,3250,-0.193728,0.228693,0.366779,-0.204043,-0.009758,0.981039
2011-09-26T13:12:07.228689,3260,-0.180210,0.182908,0.363417,-0.204717,-0.009477,0.981417
2011-09-26T13:12:07.238689,3270,-0.166692,0.137123,0.360054,-0.205392,-0.009195,0.981795
2011-09-26T13:12:07.248689,3280,-0.153173,0.091337,0.356691,-0.206067,-0.008913,0.982172
2011-09-26T13:12:07.258689,3290,-0.139655,0.045552,0.353328,-0.206741,-0.008632,0.982550
2011-09-26T13:12:07.268689,3300,-0.126137,-0.000233,0.349965,-0.207416,-0.008350,0.982928
2011-09-26T13:12:07.278689,3310,-0.110244,-0.086243,0.355288,-0.206211,-0.008402,0.984526
2011-09-26T13:12:07.288689,3320,-0.094315,-0.172857,0.360741,-0.204978,-0.008460,0.986142
2011-09-26T13:12:07.298689,3330,-0.078386,-0.259471,0.366194,-0.203745,-0.008517,0.987758
2011-09-26T13:12:07.308689,3340,-0.062457,-0.346085,0.371647,-0.202511,-0.008575,0.989374
2011-09-26T13:12:07.318689,3350,-0.046529,-0.432698,0.377100,-0.201278,-0.008632,0.990990
2011-09-26T13:12:07.328689,3360,-0.030600,-0.519312,0.382553,-0.200045,-0.008689,0.992607
2011-09-26T13:12:07.338689,3370,-0.014671,-0.605926,0.388006,-0.198812,-0.008747,0.994223
2011-09-26T13:12:07.348689,3380,0.001257,-0.692540,0.393459,-0.197578,-0.008804,0.995839
2011-09-26T13:12:07.358689,3390,0.017186,-0.779154,0.398912,-0.196345,-0.008862,0.997455
2011-09-26T13:12:07.368689,3400,0.033115,-0.865768,0.404365,-0.195112,-0.008919,0.999071
2011-09-26T13:12:07.378689,3410,0.049043,-0.952382,0.409817,-0.193879,-0.008977,1.000688
2011-09-26T13:12:07.388689,3420,0.088836,-0.919384,0.425719,-0.192013,-0.009164,1.002605
2011-09-26T13:12:07.398689,3430,0.129337,-0.882839,0.441931,-0.190128,-0.009355,1.004531
2011-09-26T13:12:07.408689,3440,0.169837,-0.846293,0.458143,-0.188243,-0.009546,1.006457
2011-09-26T13:12:07.418689,3450,0.210338,-0.809748,0.474355,-0.186358,-0.009737,1.008383
2011-09-26T13:12:07.428689,3460,0.250838,-0.773202,0.490567,-0.184473,-0.009929,1.010310
2011-09-26T13:12:07.438689,3470,0.291339,-0.736657,0.506779,-0.182588,-0.010120,1.012236
2011-09-26T13:12:07.448689,3480,0.331840,-0.700112,0.522991,-0.180703,-0.010311,1.014162
2011-09-26T13:12:07.458689,3490,0.372340,-0.663566,0.539203,-0.178818,-0.010502,1.016088
2011-09-26T13:12:07.468689,3500,0.412841,-0.627021,0.555415,-0.176933,-0.010693,1.018014
2011-09-26T13:12:07.478689,3510,0.453341,-0.590475,0.571627,-0.175049,-0.010885,1.019941
2011-09-26T13:12:07.488689,3520,0.440002,-0.542067,0.576195,-0.174132,-0.009549,1.018394
2011-09-26T13:12:07.498689,3530,0.425412,-0.493383,0.580492,-0.173239,-0.008178,1.016766
2011-09-26T13:12:07.508689,3540,0.410823,-0.444699,0.584789,-0.172345,-0.006807,1.015138
2011-09-26T13:12:07.518689,3550,0.396233,-0.396016,0.589087,-0.171452,-0.005436,1.013511
2011-09-26T13:12:07.528689,3560,0.381643,-0.347332,0.593384,-0.170558,-0.004065,1.011883
2011-09-26T13:12:07.538689,3570,0.367053,-0.298648,0.597681,-0.169665,-0.002694,1.010255
2011-09-26T13:12:07.548689,3580,0.352463,-0.249964,0.601979,-0.168771,-0.001323,1.008628
2011-09-26T13:12:07.558689,3590,0.337874,-0.201280,0.606276,-0.167878,0.000048,1.007000
2011-09-26T13:12:07.568689,3600,0.323284,-0.152596,0.610573,-0.166984,0.001419,1.005373
2011-09-26T13:12:07.578689,3610,0.308694,-0.103912,0.614871,-0.166091,0.002790,1.003745
2011-09-26T13:12:07.588689,3620,0.294104,-0.055229,0.619168,-0.165197,0.004161,1.002117
2011-09-26T13:12:07.598689,3630,0.272649,-0.017739,0.617751,-0.165353,0.003399,1.001756
2011-09-26T13:12:07.608689,3640,0.251079,0.019566,0.616239,-0.165527,0.002602,1.001416
2011-09-26T13:12:07.618689,3650,0.229510,0.056871,0.614727,-0.165700,0.001805,1.001076
2011-09-26T13:12:07.628689,3660,0.207941,0.094175,0.613215,-0.165874,0.001009,1.000737
2011-09-26T13:12:07.638689,3670,0.186372,0.131480,0.611703,-0.166047,0.000212,1.000397
2011-09-26T13:12:07.648689,3680,0.164802,0.168784,0.610191,-0.166221,-0.000585,1.000057
2011-09-26T13:12:07.658689,3690,0.143233,0.206089,0.608679,-0.166394,-0.001382,0.999717
2011-09-26T13:12:07.668689,3700,0.121664,0.243393,0.607167,-0.166568,-0.002179,0.999377
2011-09-26T13:12:07.678689,3710,0.100095,0.280698,0.605655,-0.166741,-0.002975,0.999037
2011-09-26T13:12:07.688689,3720,0.078525,0.318002,0.604143,-0.166915,-0.003772,0.998697
2011-09-26T13:12:07.698689,3730,0.041984,0.366182,0.596216,-0.166847,-0.002346,0.997366
2011-09-26T13:12:07.708689,3740,0.004839,0.414800,0.588029,-0.166769,-0.000831,0.995995
2011-09-26T13:12:07.718689,3750,-0.032306,0.463419,0.579842,-0.166691,0.000685,0.994624
2011-09-26T13:12:07.728689,3760,-0.069451,0.512038,0.571656,-0.166613,0.002201,0.993253
2011-09-26T13:12:07.738689,3770,-0.106596,0.560656,0.563469,-0.166535,0.003716,0.991882
2011-09-26T13:12:07.748689,3780,-0.143741,0.609275,0.555282,-0.166457,0.005232,0.990511
2011-09-26T13:12:07.758689,3790,-0.180887,0.657893,0.547096,-0.166379,0.006747,0.989141
2011-09-26T13:12:07.768689,3800,-0.218032,0.706512,0.538909,-0.166301,0.008263,0.987770
2011-09-26T13:12:07.778689,3810,-0.255177,0.755131,0.530722,-0.166223,0.009779,0.986399
2011-09-26T13:12:07.788689,3820,-0.292322,0.803749,0.522535,-0.166145,0.011294,0.985028
2011-09-26T13:12:07.798689,3830,-0.275538,0.723666,0.524962,-0.164395,0.010305,0.983984
2011-09-26T13:12:07.808689,3840,-0.257793,0.641290,0.527577,-0.162616,0.009271,0.982946
2011-09-26T13:12:07.818689,3850,-0.240048,0.558914,0.530192,-0.160836,0.008238,0.981907
2011-09-26T13:12:07.828689,3860,-0.222303,0.476538,0.532808,-0.159056,0.007204,0.980869
2011-09-26T13:12:07.838689,3870,-0.204558,0.394162,0.535423,-0.157276,0.006170,0.979831
2011-09-26T13:12:07.848689,3880,-0.186813,0.311786,0.538039,-0.155496,0.005136,0.978793
2011-09-26T13:12:07.858689,3890,-0.169068,0.229410,0.540654,-0.153717,0.004103,0.977755
2011-09-26T13:12:07.868689,3900,-0.151323,0.147034,0.543269,-0.151937,0.003069,0.976716
2011-09-26T13:12:07.878689,3910,-0.133579,0.064658,0.545885,-0.150157,0.002035,0.975678
2011-09-26T13:12:07.888689,3920,-0.115834,-0.017718,0.548500,-0.148377,0.001001,0.974640
2011-09-26T13:12:07.898689,3930,-0.098089,-0.100094,0.551115,-0.146598,-0.000032,0.973602
2011-09-26T13:12:07.908689,3940,-0.119203,-0.130484,0.557123,-0.144865,-0.000002,0.974816
2011-09-26T13:12:07.918689,3950,-0.140945,-0.160033,0.563185,-0.143133,0.000045,0.976066
2011-09-26T13:12:07.928689,3960,-0.162687,-0.189582,0.569248,-0.141402,0.000093,0.977317
2011-09-26T13:12:07.938689,3970,-0.184430,-0.219131,0.575310,-0.139670,0.000141,0.978567
2011-09-26T13:12:07.948689,3980,-0.206172,-0.248681,0.581372,-0.137938,0.000188,0.979817
2011-09-26T13:12:07.958689,3990,-0.227915,-0.278230,0.587435,-0.136206,0.000236,0.981068
2011-09-26T13:12:07.968689,4000,-0.249657,-0.307779,0.593497,-0.134474,0.000283,0.982318
2011-09-26T13:12:07.978689,4010,-0.271399,-0.337328,0.599559,-0.132743,0.000331,0.983569
2011-09-26T13:12:07.988689,4020,-0.293142,-0.366877,0.605622,-0.131011,0.000378,0.984819
2011-09-26T13:12:07.998689,4030,-0.314884,-0.396426,0.611684,-0.129279,0.000426,0.986069
2011-09-26T13:12:08.008689,4040,-0.299703,-0.386213,0.611444,-0.128103,-0.000140,0.987601
2011-09-26T13:12:08.018689,4050,-0.284012,-0.375450,0.611117,-0.126935,-0.000713,0.989136
2011-09-26T13:12:08.028689,4060,-0.268321,-0.364687,0.610790,-0.125766,-0.001287,0.990671
2011-09-26T13:12:08.038689,4070,-0.252630,-0.353924,0.610463,-0.124598,-0.001861,0.992206
2011-09-26T13:12:08.048689,4080,-0.236939,-0.343161,0.610136,-0.123429,-0.002434,0.993741
2011-09-26T13:12:08.058689,4090,-0.221248,-0.332399,0.609809,-0.122261,-0.003008,0.995276
2011-09-26T13:12:08.068689,4100,-0.205557,-0.321636,0.609482,-0.121092,-0.003582,0.996811
2011-09-26T13:12:08.078689,4110,-0.189866,-0.310873,0.609155,-0.119924,-0.004156,0.998346
2011-09-26T13:12:08.088689,4120,-0.174175,-0.300110,0.608828,-0.118756,-0.004729,0.999881
2011-09-26T13:12:08.098689,4130,-0.158483,-0.289347,0.608501,-0.117587,-0.005303,1.001416
2011-09-26T13:12:08.108689,4140,-0.135719,-0.317923,0.618026,-0.116171,-0.005036,1.001240
2011-09-26T13:12:08.118689,4150,-0.112836,-0.347155,0.627716,-0.114751,-0.004754,1.001034
2011-09-26T13:12:08.128689,4160,-0.089953,-0.376387,0.637406,-0.113330,-0.004473,1.000829
2011-09-26T13:12:08.138689,4170,-0.067071,-0.405619,0.647096,-0.111910,-0.004192,1.000624
2011-09-26T13:12:08.148689,4180,-0.044188,-0.434851,0.656785,-0.110490,-0.003910,1.000419
2011-09-26T13:12:08.158689,4190,-0.021305,-0.464083,0.666475,-0.109069,-0.003629,1.000214
2011-09-26T13:12:08.168689,4200,0.001577,-0.493315,0.676165,-0.107649,-0.003348,1.000009
2011-09-26T13:12:08.178689,4210,0.024460,-0.522547,0.685855,-0.106229,-0.003067,0.999803
2011-09-26T13:12:08.188689,4220,0.047343,-0.551779,0.695544,-0.104808,-0.002785,0.999598
2011-09-26T13:12:08.198689,4230,0.070225,-0.581011,0.705234,-0.103388,-0.002504,0.999393
2011-09-26T13:12:08.208689,4240,0.093108,-0.610243,0.714924,-0.101968,-0.002223,0.999188
2011-09-26T13:12:08.218689,4250,0.109268,-0.598295,0.718709,-0.100348,-0.002331,0.999701
2011-09-26T13:12:08.228689,4260,0.125207,-0.584990,0.722299,-0.098721,-0.002452,1.000238
2011-09-26T13:12:08.238689,4270,0.141145,-0.571684,0.725890,-0.097095,-0.002574,1.000775
2011-09-26T13:12:08.248689,4280,0.157084,-0.558379,0.729480,-0.095469,-0.002695,1.001311
2011-09-26T13:12:08.258689,4290,0.173022,-0.545073,0.733071,-0.093842,-0.002816,1.001848
2011-09-26T13:12:08.268689,4300,0.188961,-0.531767,0.736661,-0.092216,-0.002937,1.002385
2011-09-26T13:12:08.278689,4310,0.204900,-0.518462,0.740252,-0.090589,-0.003059,1.002922
2011-09-26T13:12:08.288689,4320,0.220838,-0.505156,0.743842,-0.088963,-0.003180,1.003458
2011-09-26T13:12:08.298689,4330,0.236777,-0.491851,0.747433,-0.087337,-0.003301,1.003995
2011-09-26T13:12:08.308689,4340,0.252715,-0.478545,0.751023,-0.085710,-0.003423,1.004532
2011-09-26T13:12:08.318689,4350,0.245254,-0.437793,0.743638,-0.085237,-0.002741,1.005052
2011-09-26T13:12:08.328689,4360,0.237308,-0.396472,0.736026,-0.084788,-0.002042,1.005572
2011-09-26T13:12:08.338689,4370,0.229363,-0.355151,0.728414,-0.084339,-0.001344,1.006093
2011-09-26T13:12:08.348689,4380,0.221417,-0.313829,0.720802,-0.083890,-0.000646,1.006613
2011-09-26T13:12:08.358689,4390,0.213471,-0.272508,0.713189,-0.083441,0.000053,1.007133
2011-09-26T13:12:08.368689,4400,0.205525,-0.231187,0.705577,-0.082992,0.000751,1.007653
2011-09-26T13:12:08.378689,4410,0.197579,-0.189866,0.697965,-0.082543,0.001450,1.008173
2011-09-26T13:12:08.388689,4420,0.189633,-0.148545,0.690352,-0.082094,0.002148,1.008693
2011-09-26T13:12:08.398689,4430,0.181687,-0.107223,0.682740,-0.081645,0.002846,1.009213
2011-09-26T13:12:08.408689,4440,0.173741,-0.065902,0.675128,-0.081196,0.003545,1.009733
2011-09-26T13:12:08.418689,4450,0.153156,-0.051857,0.671463,-0.082220,0.003259,1.008743
2011-09-26T13:12:08.428689,4460,0.132315,-0.038363,0.667879,-0.083274,0.002954,1.007723
2011-09-26T13:12:08.438689,4470,0.111474,-0.024869,0.664294,-0.084327,0.002648,1.006703
2011-09-26T13:12:08.448689,4480,0.090634,-0.011375,0.660710,-0.085381,0.002343,1.005683
2011-09-26T13:12:08.458689,4490,0.069793,0.002120,0.657125,-0.086435,0.002038,1.004663
2011-09-26T13:12:08.468689,4500,0.048952,0.015614,0.653541,-0.087488,0.001732,1.003643
2011-09-26T13:12:08.478689,4510,0.028112,0.029108,0.649956,-0.088542,0.001427,1.002623
2011-09-26T13:12:08.488689,4520,0.007271,0.042602,0.646372,-0.089595,0.001121,1.001603
2011-09-26T13:12:08.498689,4530,-0.013569,0.056096,0.642787,-0.090649,0.000816,1.000583
2011-09-26T13:12:08.508689,4540,-0.034410,0.069590,0.639203,-0.091703,0.000511,0.999563
2011-09-26T13:12:08.518689,4550,-0.055251,0.083084,0.635618,-0.092756,0.000205,0.998543
2011-09-26T13:12:08.528689,4560,-0.032899,0.058360,0.636762,-0.093268,0.000137,0.997487
2011-09-26T13:12:08.538689,4570,-0.009745,0.032926,0.637993,-0.093770,0.000072,0.996431
2011-09-26T13:12:08.548689,4580,0.013408,0.007493,0.639224,-0.094272,0.000008,0.995374
2011-09-26T13:12:08.558689,4590,0.036561,-0.017940,0.640455,-0.094774,-0.000056,0.994317
2011-09-26T13:12:08.568689,4600,0.059715,-0.043374,0.641686,-0.095276,-0.000120,0.993261
2011-09-26T13:12:08.578689,4610,0.082868,-0.068807,0.642917,-0.095778,-0.000185,0.992204
2011-09-26T13:12:08.588689,4620,0.106021,-0.094241,0.644148,-0.096280,-0.000249,0.991147
2011-09-26T13:12:08.598689,4630,0.129175,-0.119674,0.645379,-0.096782,-0.000313,0.990091
2011-09-26T13:12:08.608689,4640,0.152328,-0.145108,0.646610,-0.097284,-0.000377,0.989034
2011-09-26T13:12:08.618689,4650,0.175481,-0.170541,0.647841,-0.097786,-0.000442,0.987977
2011-09-26T13:12:08.628689,4660,0.162294,-0.214005,0.652041,-0.097558,-0.001247,0.990386
2011-09-26T13:12:08.638689,4670,0.148314,-0.257863,0.656305,-0.097314,-0.002069,0.992871
2011-09-26T13:12:08.648689,4680,0.134333,-0.301721,0.660569,-0.097070,-0.002890,0.995355
2011-09-26T13:12:08.658689,4690,0.120352,-0.345579,0.664833,-0.096827,-0.003712,0.997840
2011-09-26T13:12:08.668689,4700,0.106371,-0.389437,0.669097,-0.096583,-0.004534,1.000325
2011-09-26T13:12:08.678689,4710,0.092390,-0.433295,0.673362,-0.096339,-0.005355,1.002809
2011-09-26T13:12:08.688689,4720,0.078409,-0.477153,0.677626,-0.096095,-0.006177,1.005294
2011-09-26T13:12:08.698689,4730,0.064428,-0.521012,0.681890,-0.095851,-0.006999,1.007778
2011-09-26T13:12:08.708689,4740,0.050447,-0.564870,0.686154,-0.095608,-0.007820,1.010263
2011-09-26T13:12:08.718689,4750,0.036467,-0.608728,0.690418,-0.095364,-0.008642,1.012747
2011-09-26T13:12:08.728689,4760,0.080445,-0.611581,0.688834,-0.095259,-0.007394,1.013035
2011-09-26T13:12:08.738689,4770,0.126025,-0.613301,0.687088,-0.095159,-0.006090,1.013261
2011-09-26T13:12:08.748689,4780,0.171606,-0.615021,0.685342,-0.095058,-0.004785,1.013488
2011-09-26T13:12:08.758689,4790,0.217186,-0.616742,0.683596,-0.094957,-0.003480,1.013714
2011-09-26T13:12:08.768689,4800,0.262767,-0.618462,0.681850,-0.094857,-0.002176,1.013940
2011-09-26T13:12:08.778689,4810,0.308347,-0.620182,0.680104,-0.094756,-0.000871,1.014167
2011-09-26T13:12:08.788689,4820,0.353928,-0.621902,0.678358,-0.094656,0.000433,1.014393
2011-09-26T13:12:08.798689,4830,0.399508,-0.623622,0.676612,-0.094555,0.001738,1.014620
2011-09-26T13:12:08.808689,4840,0.445089,-0.625342,0.674865,-0.094455,0.003043,1.014846
2011-09-26T13:12:08.818689,4850,0.490670,-0.627062,0.673119,-0.094354,0.004347,1.015073
2011-09-26T13:12:08.828689,4860,0.536250,-0.628782,0.671373,-0.094253,0.005652,1.015299
2011-09-26T13:12:08.838689,4870,0.487429,-0.558728,0.671818,-0.093241,0.004613,1.016309
2011-09-26T13:12:08.848689,4880,0.436650,-0.487187,0.672309,-0.092210,0.003525,1.017335
2011-09-26T13:12:08.858689,4890,0.385872,-0.415645,0.672799,-0.091179,0.002438,1.018361
2011-09-26T13:12:08.868689,4900,0.335093,-0.344104,0.673290,-0.090148,0.001350,1.019387
2011-09-26T13:12:08.878689,4910,0.284315,-0.272563,0.673780,-0.089117,0.000262,1.020413
2011-09-26T13:12:08.888689,4920,0.233536,-0.201021,0.674271,-0.088086,-0.000826,1.021439
2011-09-26T13:12:08.898689,4930,0.182758,-0.129480,0.674761,-0.087055,-0.001913,1.022466
2011-09-26T13:12:08.908689,4940,0.131979,-0.057938,0.675251,-0.086025,-0.003001,1.023492
2011-09-26T13:12:08.918689,4950,0.081200,0.013603,0.675742,-0.084994,-0.004089,1.024518
2011-09-26T13:12:08.928689,4960,0.030422,0.085145,0.676232,-0.083963,-0.005176,1.025544
2011-09-26T13:12:08.938689,4970,0.012079,0.155511,0.674173,-0.084636,-0.003526,1.022797
2011-09-26T13:12:08.948689,4980,-0.005498,0.225849,0.672054,-0.085350,-0.001811,1.019960
2011-09-26T13:12:08.958689,4990,-0.023074,0.296188,0.669935,-0.086063,-0.000096,1.017124
2011-09-26T13:12:08.968689,5000,-0.040650,0.366526,0.667816,-0.086777,0.001619,1.014288
2011-09-26T13:12:08.978689,5010,-0.058227,0.436865,0.665696,-0.087491,0.003335,1.011452
2011-09-26T13:12:08.988689,5020,-0.075803,0.507203,0.663577,-0.088204,0.005050,1.008616
2011-09-26T13:12:08.998689,5030,-0.093379,0.577541,0.661458,-0.088918,0.006765,1.005779
2011-09-26T13:12:09.008689,5040,-0.110956,0.647880,0.659339,-0.089632,0.008480,1.002943
2011-09-26T13:12:09.018689,5050,-0.128532,0.718218,0.657220,-0.090345,0.010195,1.000107
2011-09-26T13:12:09.028689,5060,-0.146108,0.788557,0.655100,-0.091059,0.011910,0.997271
2011-09-26T13:12:09.038689,5070,-0.160422,0.749655,0.646399,-0.091030,0.010376,0.996140
2011-09-26T13:12:09.048689,5080,-0.174668,0.708489,0.637561,-0.090985,0.008775,0.995044
2011-09-26T13:12:09.058689,5090,-0.188914,0.667322,0.628723,-0.090940,0.007173,0.993948
2011-09-26T13:12:09.068689,5100,-0.203160,0.626156,0.619885,-0.090896,0.005572,0.992852
2011-09-26T13:12:09.078689,5110,-0.217407,0.584989,0.611047,-0.090851,0.003970,0.991756
2011-09-26T13:12:09.088689,5120,-0.231653,0.543823,0.602210,-0.090806,0.002369,0.990660
2011-09-26T13:12:09.098689,5130,-0.245899,0.502656,0.593372,-0.090761,0.000767,0.989564
2011-09-26T13:12:09.108689,5140,-0.260145,0.461490,0.584534,-0.090717,-0.000834,0.988468
2011-09-26T13:12:09.118689,5150,-0.274391,0.420323,0.575696,-0.090672,-0.002436,0.987372
2011-09-26T13:12:09.128689,5160,-0.288637,0.379157,0.566858,-0.090627,-0.004037,0.986276
2011-09-26T13:12:09.138689,5170,-0.302884,0.337990,0.558020,-0.090583,-0.005639,0.985180
2011-09-26T13:12:09.148689,5180,-0.314687,0.286995,0.552952,-0.091188,-0.005660,0.985343
2011-09-26T13:12:09.158689,5190,-0.326439,0.235793,0.547963,-0.091807,-0.005649,0.985533
2011-09-26T13:12:09.168689,5200,-0.338190,0.184591,0.542974,-0.092426,-0.005637,0.985722
2011-09-26T13:12:09.178689,5210,-0.349942,0.133389,0.537985,-0.093045,-0.005626,0.985912
2011-09-26T13:12:09.188689,5220,-0.361694,0.082187,0.532996,-0.093663,-0.005614,0.986102
2011-09-26T13:12:09.198689,5230,-0.373446,0.030986,0.528008,-0.094282,-0.005603,0.986291
2011-09-26T13:12:09.208689,5240,-0.385197,-0.020216,0.523019,-0.094901,-0.005591,0.986481
2011-09-26T13:12:09.218689,5250,-0.396949,-0.071418,0.518030,-0.095520,-0.005579,0.986671
2011-09-26T13:12:09.228689,5260,-0.408701,-0.122620,0.513041,-0.096139,-0.005568,0.986860
2011-09-26T13:12:09.238689,5270,-0.420453,-0.173822,0.508052,-0.096758,-0.005556,0.987050
2011-09-26T13:12:09.248689,5280,-0.386291,-0.163202,0.514455,-0.096670,-0.005260,0.988235
2011-09-26T13:12:09.258689,5290,-0.350167,-0.149938,0.521345,-0.096553,-0.004951,0.989462
2011-09-26T13:12:09.268689,5300,-0.314042,-0.136674,0.528235,-0.096435,-0.004642,0.990690
2011-09-26T13:12:09.278689,5310,-0.277917,-0.123410,0.535125,-0.096317,-0.004333,0.991917
2011-09-26T13:12:09.288689,5320,-0.241792,-0.110146,0.542015,-0.096200,-0.004024,0.993144
2011-09-26T13:12:09.298689,5330,-0.205667,-0.096882,0.548906,-0.096082,-0.003715,0.994372
2011-09-26T13:12:09.308689,5340,-0.169542,-0.083618,0.555796,-0.095964,-0.003407,0.995599
2011-09-26T13:12:09.318689,5350,-0.133417,-0.070354,0.562686,-0.095847,-0.003098,0.996827
2011-09-26T13:12:09.328689,5360,-0.097292,-0.057090,0.569576,-0.095729,-0.002789,0.998054
2011-09-26T13:12:09.338689,5370,-0.061168,-0.043826,0.576466,-0.095611,-0.002480,0.999281
2011-09-26T13:12:09.348689,5380,-0.034743,-0.021434,0.581617,-0.096133,-0.002970,0.999481
2011-09-26T13:12:09.358689,5390,-0.008538,0.001164,0.586728,-0.096668,-0.003478,0.999658
2011-09-26T13:12:09.368689,5400,0.017667,0.023763,0.591839,-0.097204,-0.003987,0.999835
2011-09-26T13:12:09.378689,5410,0.043872,0.046362,0.596950,-0.097740,-0.004495,1.000012
2011-09-26T13:12:09.388689,5420,0.070077,0.068960,0.602061,-0.098275,-0.005003,1.000189
2011-09-26T13:12:09.398689,5430,0.096283,0.091559,0.607173,-0.098811,-0.005511,1.000365
2011-09-26T13:12:09.408689,5440,0.122488,0.114158,0.612284,-0.099347,-0.006019,1.000542
2011-09-26T13:12:09.418689,5450,0.148693,0.136756,0.617395,-0.099882,-0.006528,1.000719
2011-09-26T13:12:09.428689,5460,0.174898,0.159355,0.622506,-0.100418,-0.007036,1.000896
2011-09-26T13:12:09.438689,5470,0.201103,0.181953,0.627617,-0.100954,-0.007544,1.001073
2011-09-26T13:12:09.448689,5480,0.227308,0.204552,0.632729,-0.101489,-0.008052,1.001249
2011-09-26T13:12:09.458689,5490,0.234098,0.175489,0.631356,-0.102592,-0.007849,1.001387
2011-09-26T13:12:09.468689,5500,0.240431,0.145210,0.629830,-0.103707,-0.007629,1.001523
2011-09-26T13:12:09.478689,5510,0.246764,0.114931,0.628305,-0.104823,-0.007409,1.001659
2011-09-26T13:12:09.488689,5520,0.253096,0.084652,0.626779,-0.105939,-0.007190,1.001796
2011-09-26T13:12:09.498689,5530,0.259429,0.054373,0.625254,-0.107055,-0.006970,1.001932
2011-09-26T13:12:09.508689,5540,0.265762,0.024094,0.623729,-0.108170,-0.006750,1.002068
2011-09-26T13:12:09.518689,5550,0.272095,-0.006185,0.622203,-0.109286,-0.006530,1.002205
2011-09-26T13:12:09.528689,5560,0.278428,-0.036463,0.620678,-0.110402,-0.006310,1.002341
2011-09-26T13:12:09.538689,5570,0.284760,-0.066742,0.619152,-0.111518,-0.006090,1.002478
2011-09-26T13:12:09.548689,5580,0.291093,-0.097021,0.617627,-0.112633,-0.005871,1.002614
2011-09-26T13:12:09.558689,5590,0.290529,-0.062946,0.618308,-0.113808,-0.006165,1.002319
2011-09-26T13:12:09.568689,5600,0.289806,-0.027384,0.619040,-0.114983,-0.006471,1.002014
2011-09-26T13:12:09.578689,5610,0.289083,0.008178,0.619771,-0.116159,-0.006778,1.001710
2011-09-26T13:12:09.588689,5620,0.288360,0.043741,0.620503,-0.117334,-0.007084,1.001405
2011-09-26T13:12:09.598689,5630,0.287636,0.079303,0.621235,-0.118510,-0.007390,1.001100
2011-09-26T13:12:09.608689,5640,0.286913,0.114865,0.621967,-0.119685,-0.007697,1.000795
2011-09-26T13:12:09.618689,5650,0.286190,0.150427,0.622699,-0.120861,-0.008003,1.000491
2011-09-26T13:12:09.628689,5660,0.285467,0.185989,0.623430,-0.122036,-0.008309,1.000186
2011-09-26T13:12:09.638689,5670,0.284743,0.221552,0.624162,-0.123212,-0.008616,0.999881
2011-09-26T13:12:09.648689,5680,0.284020,0.257114,0.624894,-0.124387,-0.008922,0.999577
2011-09-26T13:12:09.658689,5690,0.283297,0.292676,0.625626,-0.125563,-0.009228,0.999272
2011-09-26T13:12:09.668689,5700,0.295832,0.324685,0.618643,-0.127158,-0.008238,0.999607
2011-09-26T13:12:09.678689,5710,0.308731,0.356597,0.611448,-0.128764,-0.007213,0.999960
2011-09-26T13:12:09.688689,5720,0.321630,0.388509,0.604253,-0.130371,-0.006187,1.000313
2011-09-26T13:12:09.698689,5730,0.334528,0.420421,0.597059,-0.131977,-0.005162,1.000666
2011-09-26T13:12:09.708689,5740,0.347427,0.452333,0.589864,-0.133584,-0.004136,1.001018
2011-09-26T13:12:09.718689,5750,0.360326,0.484245,0.582669,-0.135190,-0.003111,1.001371
2011-09-26T13:12:09.728689,5760,0.373225,0.516157,0.575474,-0.136797,-0.002085,1.001724
2011-09-26T13:12:09.738689,5770,0.386124,0.548069,0.568280,-0.138403,-0.001059,1.002077
2011-09-26T13:12:09.748689,5780,0.399022,0.579981,0.561085,-0.140010,-0.000034,1.002430
2011-09-26T13:12:09.758689,5790,0.411921,0.611893,0.553890,-0.141616,0.000992,1.002783
2011-09-26T13:12:09.768689,5800,0.386604,0.571503,0.553532,-0.143380,0.000834,1.001432
2011-09-26T13:12:09.778689,5810,0.360189,0.529037,0.553369,-0.145148,0.000641,1.000032
2011-09-26T13:12:09.788689,5820,0.333775,0.486570,0.553207,-0.146916,0.000449,0.998632
2011-09-26T13:12:09.798689,5830,0.307360,0.444104,0.553045,-0.148684,0.000257,0.997232
2011-09-26T13:12:09.808689,5840,0.280945,0.401638,0.552883,-0.150452,0.000065,0.995833
2011-09-26T13:12:09.818689,5850,0.254531,0.359172,0.552721,-0.152220,-0.000127,0.994433
2011-09-26T13:12:09.828689,5860,0.228116,0.316706,0.552558,-0.153988,-0.000319,0.993033
2011-09-26T13:12:09.838689,5870,0.201702,0.274239,0.552396,-0.155756,-0.000512,0.991633
2011-09-26T13:12:09.848689,5880,0.175287,0.231773,0.552234,-0.157524,-0.000704,0.990233
2011-09-26T13:12:09.858689,5890,0.148872,0.189307,0.552072,-0.159292,-0.000896,0.988834
2011-09-26T13:12:09.868689,5900,0.162928,0.188526,0.554254,-0.159839,-0.001451,0.989129
2011-09-26T13:12:09.878689,5910,0.178021,0.188814,0.556496,-0.160354,-0.002016,0.989468
2011-09-26T13:12:09.888689,5920,0.193114,0.189103,0.558738,-0.160870,-0.002580,0.989806
2011-09-26T13:12:09.898689,5930,0.208207,0.189391,0.560979,-0.161386,-0.003145,0.990145
2011-09-26T13:12:09.908689,5940,0.223300,0.189679,0.563221,-0.161901,-0.003710,0.990484
2011-09-26T13:12:09.918689,5950,0.238393,0.189967,0.565463,-0.162417,-0.004274,0.990822
2011-09-26T13:12:09.928689,5960,0.253487,0.190256,0.567705,-0.162933,-0.004839,0.991161
2011-09-26T13:12:09.938689,5970,0.268580,0.190544,0.569947,-0.163448,-0.005403,0.991500
2011-09-26T13:12:09.948689,5980,0.283673,0.190832,0.572189,-0.163964,-0.005968,0.991839
2011-09-26T13:12:09.958689,5990,0.298766,0.191120,0.574431,-0.164479,-0.006533,0.992177
2011-09-26T13:12:09.968689,6000,0.313859,0.191408,0.576673,-0.164995,-0.007097,0.992516
2011-09-26T13:12:09.978689,6010,0.314649,0.218419,0.577783,-0.165952,-0.006281,0.993983
2011-09-26T13:12:09.988689,6020,0.315063,0.246131,0.578864,-0.166921,-0.005428,0.995480
2011-09-26T13:12:09.998689,6030,0.315477,0.273844,0.579944,-0.167891,-0.004575,0.996977
2011-09-26T13:12:10.008689,6040,0.315892,0.301556,0.581024,-0.168860,-0.003722,0.998474
2011-09-26T13:12:10.018689,6050,0.316306,0.329269,0.582104,-0.169829,-0.002869,0.999971
2011-09-26T13:12:10.028689,6060,0.316720,0.356981,0.583185,-0.170798,-0.002016,1.001467
2011-09-26T13:12:10.038689,6070,0.317134,0.384694,0.584265,-0.171767,-0.001163,1.002964
2011-09-26T13:12:10.048689,6080,0.317548,0.412406,0.585345,-0.172736,-0.000311,1.004461
2011-09-26T13:12:10.058689,6090,0.317962,0.440119,0.586426,-0.173705,0.000542,1.005958
2011-09-26T13:12:10.068689,6100,0.318376,0.467831,0.587506,-0.174674,0.001395,1.007455
2011-09-26T13:12:10.078689,6110,0.292273,0.467604,0.581366,-0.176193,0.001123,1.006188
2011-09-26T13:12:10.088689,6120,0.265417,0.466583,0.575021,-0.177728,0.000819,1.004843
2011-09-26T13:12:10.098689,6130,0.238561,0.465563,0.568677,-0.179263,0.000514,1.003497
2011-09-26T13:12:10.108689,6140,0.211706,0.464543,0.562332,-0.180798,0.000210,1.002152
2011-09-26T13:12:10.118689,6150,0.184850,0.463522,0.555987,-0.182333,-0.000094,1.000807
2011-09-26T13:12:10.128689,6160,0.157994,0.462502,0.549642,-0.183867,-0.000399,0.999462
2011-09-26T13:12:10.138689,6170,0.131139,0.461481,0.543298,-0.185402,-0.000703,0.998116
2011-09-26T13:12:10.148689,6180,0.104283,0.460461,0.536953,-0.186937,-0.001007,0.996771
2011-09-26T13:12:10.158689,6190,0.077427,0.459441,0.530608,-0.188472,-0.001311,0.995426
2011-09-26T13:12:10.168689,6200,0.050571,0.458420,0.524263,-0.190007,-0.001616,0.994081
2011-09-26T13:12:10.178689,6210,0.017585,0.454986,0.528623,-0.190091,-0.001599,0.993212
2011-09-26T13:12:10.188689,6220,-0.015576,0.451483,0.533286,-0.190135,-0.001573,0.992356
2011-09-26T13:12:10.198689,6230,-0.048737,0.447980,0.537949,-0.190178,-0.001547,0.991500
2011-09-26T13:12:10.208689,6240,-0.081898,0.444478,0.542612,-0.190221,-0.001521,0.990645
2011-09-26T13:12:10.218689,6250,-0.115059,0.440975,0.547276,-0.190264,-0.001494,0.989789
2011-09-26T13:12:10.228689,6260,-0.148220,0.437472,0.551939,-0.190308,-0.001468,0.988933
2011-09-26T13:12:10.238689,6270,-0.181380,0.433969,0.556602,-0.190351,-0.001442,0.988078
2011-09-26T13:12:10.248689,6280,-0.214541,0.430466,0.561265,-0.190394,-0.001416,0.987222
2011-09-26T13:12:10.258689,6290,-0.247702,0.426964,0.565929,-0.190438,-0.001390,0.986366
2011-09-26T13:12:10.268689,6300,-0.280863,0.423461,0.570592,-0.190481,-0.001364,0.985511
2011-09-26T13:12:10.278689,6310,-0.314024,0.419958,0.575255,-0.190524,-0.001338,0.984655
2011-09-26T13:12:10.288689,6320,-0.308877,0.417995,0.570125,-0.191617,-0.002484,0.986039
2011-09-26T13:12:10.298689,6330,-0.301895,0.416106,0.564525,-0.192761,-0.003686,0.987530
2011-09-26T13:12:10.308689,6340,-0.294913,0.414217,0.558926,-0.193904,-0.004889,0.989021
2011-09-26T13:12:10.318689,6350,-0.287931,0.412327,0.553327,-0.195048,-0.006091,0.990513
2011-09-26T13:12:10.328689,6360,-0.280949,0.410438,0.547728,-0.196191,-0.007293,0.992004
2011-09-26T13:12:10.338689,6370,-0.273967,0.408549,0.542128,-0.197335,-0.008495,0.993495
2011-09-26T13:12:10.348689,6380,-0.266985,0.406660,0.536529,-0.198478,-0.009697,0.994987
2011-09-26T13:12:10.358689,6390,-0.260003,0.404771,0.530930,-0.199622,-0.010900,0.996478
2011-09-26T13:12:10.368689,6400,-0.253021,0.402881,0.525331,-0.200765,-0.012102,0.997969
2011-09-26T13:12:10.378689,6410,-0.246039,0.400992,0.519731,-0.201909,-0.013304,0.999460
2011-09-26T13:12:10.388689,6420,-0.283040,0.355225,0.520128,-0.201828,-0.012312,0.997267
2011-09-26T13:12:10.398689,6430,-0.321902,0.307601,0.520779,-0.201695,-0.011227,0.994918
2011-09-26T13:12:10.408689,6440,-0.360764,0.259978,0.521430,-0.201562,-0.010143,0.992569
2011-09-26T13:12:10.418689,6450,-0.399626,0.212354,0.522080,-0.201430,-0.009058,0.990220
2011-09-26T13:12:10.428689,6460,-0.438488,0.164730,0.522731,-0.201297,-0.007973,0.987871
2011-09-26T13:12:10.438689,6470,-0.477350,0.117106,0.523382,-0.201164,-0.006888,0.985522
2011-09-26T13:12:10.448689,6480,-0.516212,0.069482,0.524032,-0.201032,-0.005803,0.983173
2011-09-26T13:12:10.458689,6490,-0.555075,0.021858,0.524683,-0.200899,-0.004719,0.980824
2011-09-26T13:12:10.468689,6500,-0.593937,-0.025766,0.525334,-0.200766,-0.003634,0.978475
2011-09-26T13:12:10.478689,6510,-0.632799,-0.073389,0.525984,-0.200634,-0.002549,0.976126
2011-09-26T13:12:10.488689,6520,-0.608133,-0.128708,0.523146,-0.199337,-0.002960,0.977597
2011-09-26T13:12:10.498689,6530,-0.581441,-0.184272,0.520197,-0.198003,-0.003419,0.979190
2011-09-26T13:12:10.508689,6540,-0.554749,-0.239837,0.517248,-0.196670,-0.003878,0.980784
2011-09-26T13:12:10.518689,6550,-0.528057,-0.295401,0.514299,-0.195336,-0.004336,0.982377
2011-09-26T13:12:10.528689,6560,-0.501365,-0.350965,0.511350,-0.194002,-0.004795,0.983970
2011-09-26T13:12:10.538689,6570,-0.474673,-0.406529,0.508400,-0.192668,-0.005254,0.985563
2011-09-26T13:12:10.548689,6580,-0.447981,-0.462093,0.505451,-0.191335,-0.005713,0.987156
2011-09-26T13:12:10.558689,6590,-0.421289,-0.517658,0.502502,-0.190001,-0.006171,0.988749
2011-09-26T13:12:10.568689,6600,-0.394597,-0.573222,0.499553,-0.188667,-0.006630,0.990343
2011-09-26T13:12:10.578689,6610,-0.367905,-0.628786,0.496603,-0.187333,-0.007089,0.991936
2011-09-26T13:12:10.588689,6620,-0.341213,-0.684350,0.493654,-0.186000,-0.007548,0.993529
2011-09-26T13:12:10.598689,6630,-0.322377,-0.667328,0.496576,-0.184061,-0.007785,0.994955
2011-09-26T13:12:10.608689,6640,-0.303775,-0.648144,0.499673,-0.182105,-0.008015,0.996377
2011-09-26T13:12:10.618689,6650,-0.285173,-0.628961,0.502770,-0.180148,-0.008246,0.997798
2011-09-26T13:12:10.628689,6660,-0.266571,-0.609778,0.505867,-0.178192,-0.008476,0.999219
2011-09-26T13:12:10.638689,6670,-0.247969,-0.590594,0.508963,-0.176235,-0.008707,1.000641
2011-09-26T13:12:10.648689,6680,-0.229367,-0.571411,0.512060,-0.174279,-0.008938,1.002062
2011-09-26T13:12:10.658689,6690,-0.210765,-0.552228,0.515157,-0.172322,-0.009168,1.003483
2011-09-26T13:12:10.668689,6700,-0.192163,-0.533045,0.518254,-0.170366,-0.009399,1.004905
2011-09-26T13:12:10.678689,6710,-0.173560,-0.513861,0.521351,-0.168409,-0.009629,1.006326
2011-09-26T13:12:10.688689,6720,-0.154958,-0.494678,0.524447,-0.166453,-0.009860,1.007748
2011-09-26T13:12:10.698689,6730,-0.180823,-0.459033,0.524954,-0.165169,-0.009444,1.008409
2011-09-26T13:12:10.708689,6740,-0.208867,-0.422582,0.525333,-0.163918,-0.008997,1.009032
2011-09-26T13:12:10.718689,6750,-0.236910,-0.386131,0.525712,-0.162667,-0.008550,1.009656
2011-09-26T13:12:10.728689,6760,-0.264954,-0.349680,0.526091,-0.161417,-0.008103,1.010280
2011-09-26T13:12:10.738689,6770,-0.292998,-0.313229,0.526471,-0.160166,-0.007656,1.010904
2011-09-26T13:12:10.748689,6780,-0.321041,-0.276778,0.526850,-0.158915,-0.007209,1.011527
2011-09-26T13:12:10.758689,6790,-0.349085,-0.240326,0.527229,-0.157664,-0.006762,1.012151
2011-09-26T13:12:10.768689,6800,-0.377128,-0.203875,0.527609,-0.156413,-0.006314,1.012775
2011-09-26T13:12:10.778689,6810,-0.405172,-0.167424,0.527988,-0.155162,-0.005867,1.013398
2011-09-26T13:12:10.788689,6820,-0.433215,-0.130973,0.528367,-0.153912,-0.005420,1.014022
2011-09-26T13:12:10.798689,6830,-0.398562,-0.109984,0.529748,-0.153685,-0.006136,1.012959
2011-09-26T13:12:10.808689,6840,-0.361828,-0.089508,0.531161,-0.153493,-0.006890,1.011839
2011-09-26T13:12:10.818689,6850,-0.325095,-0.069032,0.532575,-0.153301,-0.007644,1.010720
2011-09-26T13:12:10.828689,6860,-0.288362,-0.048556,0.533989,-0.153109,-0.008399,1.009600
2011-09-26T13:12:10.838689,6870,-0.251629,-0.028081,0.535402,-0.152917,-0.009153,1.008481
2011-09-26T13:12:10.848689,6880,-0.214895,-0.007605,0.536816,-0.152724,-0.009907,1.007362
2011-09-26T13:12:10.858689,6890,-0.178162,0.012871,0.538230,-0.152532,-0.010662,1.006242
2011-09-26T13:12:10.868689,6900,-0.141429,0.033347,0.539643,-0.152340,-0.011416,1.005123
2011-09-26T13:12:10.878689,6910,-0.104695,0.053823,0.541057,-0.152148,-0.012170,1.004003
2011-09-26T13:12:10.888689,6920,-0.067962,0.074299,0.542471,-0.151956,-0.012925,1.002884
2011-09-26T13:12:10.898689,6930,-0.031229,0.094775,0.543884,-0.151764,-0.013679,1.001764
2011-09-26T13:12:10.908689,6940,-0.057264,0.102996,0.545547,-0.150646,-0.013149,1.000573
2011-09-26T13:12:10.918689,6950,-0.085541,0.110780,0.547218,-0.149496,-0.012573,0.999378
2011-09-26T13:12:10.928689,6960,-0.113819,0.118564,0.548889,-0.148346,-0.011998,0.998184
2011-09-26T13:12:10.938689,6970,-0.142097,0.126347,0.550561,-0.147196,-0.011422,0.996990
2011-09-26T13:12:10.948689,6980,-0.170374,0.134131,0.552232,-0.146046,-0.010846,0.995795
2011-09-26T13:12:10.958689,6990,-0.198652,0.141915,0.553903,-0.144896,-0.010271,0.994601
2011-09-26T13:12:10.968689,7000,-0.226929,0.149699,0.555575,-0.143745,-0.009695,0.993407
2011-09-26T13:12:10.978689,7010,-0.255207,0.157482,0.557246,-0.142595,-0.009119,0.992213
2011-09-26T13:12:10.988689,7020,-0.283485,0.165266,0.558917,-0.141445,-0.008544,0.991018
2011-09-26T13:12:10.998689,7030,-0.311762,0.173050,0.560589,-0.140295,-0.007968,0.989824
2011-09-26T13:12:11.008689,7040,-0.291174,0.162034,0.562489,-0.138384,-0.007745,0.989821
2011-09-26T13:12:11.018689,7050,-0.269085,0.150440,0.564396,-0.136450,-0.007533,0.989856
2011-09-26T13:12:11.028689,7060,-0.246995,0.138846,0.566304,-0.134515,-0.007321,0.989890
2011-09-26T13:12:11.038689,7070,-0.224905,0.127253,0.568211,-0.132581,-0.007109,0.989924
2011-09-26T13:12:11.048689,7080,-0.202816,0.115659,0.570119,-0.130647,-0.006897,0.989958
2011-09-26T13:12:11.058689,7090,-0.180726,0.104066,0.572026,-0.128713,-0.006685,0.989992
2011-09-26T13:12:11.068689,7100,-0.158637,0.092472,0.573933,-0.126778,-0.006472,0.990027
2011-09-26T13:12:11.078689,7110,-0.136547,0.080879,0.575841,-0.124844,-0.006260,0.990061
2011-09-26T13:12:11.088689,7120,-0.114457,0.069285,0.577748,-0.122910,-0.006048,0.990095
2011-09-26T13:12:11.098689,7130,-0.092368,0.057691,0.579656,-0.120975,-0.005836,0.990129
2011-09-26T13:12:11.108689,7140,-0.070278,0.046098,0.581563,-0.119041,-0.005624,0.990163
2011-09-26T13:12:11.118689,7150,-0.084559,0.030761,0.582154,-0.117962,-0.006049,0.989901
2011-09-26T13:12:11.128689,7160,-0.099930,0.015311,0.582704,-0.116909,-0.006492,0.989630
2011-09-26T13:12:11.138689,7170,-0.115301,-0.000138,0.583255,-0.115855,-0.006936,0.989359
2011-09-26T13:12:11.148689,7180,-0.130672,-0.015588,0.583806,-0.114802,-0.007379,0.989088
2011-09-26T13:12:11.158689,7190,-0.146043,-0.031037,0.584357,-0.113749,-0.007823,0.988817
2011-09-26T13:12:11.168689,7200,-0.161414,-0.046487,0.584908,-0.112695,-0.008267,0.988546
2011-09-26T13:12:11.178689,7210,-0.176785,-0.061936,0.585459,-0.111642,-0.008710,0.988275
2011-09-26T13:12:11.188689,7220,-0.192156,-0.077385,0.586010,-0.110589,-0.009154,0.988004
2011-09-26T13:12:11.198689,7230,-0.207527,-0.092835,0.586561,-0.109535,-0.009597,0.987733
2011-09-26T13:12:11.208689,7240,-0.222898,-0.108284,0.587112,-0.108482,-0.010041,0.987461
2011-09-26T13:12:11.218689,7250,-0.225329,-0.090175,0.592002,-0.108246,-0.009653,0.988656
2011-09-26T13:12:11.228689,7260,-0.227123,-0.070411,0.597105,-0.108049,-0.009223,0.989923
2011-09-26T13:12:11.238689,7270,-0.228916,-0.050648,0.602209,-0.107853,-0.008794,0.991190
2011-09-26T13:12:11.248689,7280,-0.230710,-0.030884,0.607313,-0.107657,-0.008365,0.992457
2011-09-26T13:12:11.258689,7290,-0.232503,-0.011120,0.612416,-0.107461,-0.007936,0.993723
2011-09-26T13:12:11.268689,7300,-0.234297,0.008644,0.617520,-0.107265,-0.007507,0.994990
2011-09-26T13:12:11.278689,7310,-0.236090,0.028408,0.622624,-0.107069,-0.007078,0.996257
2011-09-26T13:12:11.288689,7320,-0.237884,0.048172,0.627727,-0.106872,-0.006648,0.997524
2011-09-26T13:12:11.298689,7330,-0.239677,0.067936,0.632831,-0.106676,-0.006219,0.998791
2011-09-26T13:12:11.308689,7340,-0.241471,0.087700,0.637935,-0.106480,-0.005790,1.000058
2011-09-26T13:12:11.318689,7350,-0.227016,0.077254,0.630493,-0.107084,-0.007051,0.999913
2011-09-26T13:12:11.328689,7360,-0.212068,0.065889,0.622671,-0.107713,-0.008362,0.999726
2011-09-26T13:12:11.338689,7370,-0.197119,0.054524,0.614848,-0.108342,-0.009674,0.999538
2011-09-26T13:12:11.348689,7380,-0.182170,0.043160,0.607025,-0.108971,-0.010986,0.999351
2011-09-26T13:12:11.358689,7390,-0.167222,0.031795,0.599203,-0.109599,-0.012298,0.999163
2011-09-26T13:12:11.368689,7400,-0.152273,0.020430,0.591380,-0.110228,-0.013610,0.998976
2011-09-26T13:12:11.378689,7410,-0.137325,0.009065,0.583557,-0.110857,-0.014921,0.998788
2011-09-26T13:12:11.388689,7420,-0.122376,-0.002299,0.575734,-0.111486,-0.016233,0.998601
2011-09-26T13:12:11.398689,7430,-0.107427,-0.013664,0.567912,-0.112114,-0.017545,0.998414
2011-09-26T13:12:11.408689,7440,-0.092479,-0.025029,0.560089,-0.112743,-0.018857,0.998226
2011-09-26T13:12:11.418689,7450,-0.077530,-0.036394,0.552266,-0.113372,-0.020169,0.998039
2011-09-26T13:12:11.428689,7460,-0.059047,-0.043790,0.552058,-0.113859,-0.019147,0.997825
2011-09-26T13:12:11.438689,7470,-0.040460,-0.051068,0.552074,-0.114341,-0.018057,0.997610
2011-09-26T13:12:11.448689,7480,-0.021873,-0.058347,0.552091,-0.114824,-0.016966,0.997396
2011-09-26T13:12:11.458689,7490,-0.003286,-0.065625,0.552107,-0.115306,-0.015876,0.997182
2011-09-26T13:12:11.468689,7500,0.015301,-0.072904,0.552124,-0.115789,-0.014786,0.996967
2011-09-26T13:12:11.478689,7510,0.033888,-0.080182,0.552140,-0.116271,-0.013695,0.996753
2011-09-26T13:12:11.488689,7520,0.052475,-0.087461,0.552157,-0.116754,-0.012605,0.996538
2011-09-26T13:12:11.498689,7530,0.071063,-0.094740,0.552173,-0.117237,-0.011515,0.996324
2011-09-26T13:12:11.508689,7540,0.089650,-0.102018,0.552190,-0.117719,-0.010424,0.996109
2011-09-26T13:12:11.518689,7550,0.108237,-0.109297,0.552206,-0.118202,-0.009334,0.995895
2011-09-26T13:12:11.528689,7560,0.101395,-0.094161,0.555522,-0.118556,-0.009272,0.996380
2011-09-26T13:12:11.538689,7570,0.093726,-0.078296,0.558945,-0.118907,-0.009245,0.996888
2011-09-26T13:12:11.548689,7580,0.086056,-0.062432,0.562368,-0.119257,-0.009217,0.997396
2011-09-26T13:12:11.558689,7590,0.078387,-0.046567,0.565791,-0.119608,-0.009189,0.997904
2011-09-26T13:12:11.568689,7600,0.070718,-0.030702,0.569213,-0.119958,-0.009161,0.998412
2011-09-26T13:12:11.578689,7610,0.063048,-0.014837,0.572636,-0.120309,-0.009133,0.998920
2011-09-26T13:12:11.588689,7620,0.055379,0.001028,0.576059,-0.120659,-0.009105,0.999428
2011-09-26T13:12:11.598689,7630,0.047709,0.016893,0.579482,-0.121010,-0.009078,0.999936
2011-09-26T13:12:11.608689,7640,0.040040,0.032757,0.582905,-0.121361,-0.009050,1.000444
2011-09-26T13:12:11.618689,7650,0.032371,0.048622,0.586328,-0.121711,-0.009022,1.000951
2011-09-26T13:12:11.628689,7660,0.030651,0.067740,0.598685,-0.121939,-0.009023,1.001007
2011-09-26T13:12:11.638689,7670,0.029114,0.086957,0.611317,-0.122163,-0.009026,1.001049
2011-09-26T13:12:11.648689,7680,0.027577,0.106175,0.623949,-0.122387,-0.009028,1.001091
2011-09-26T13:12:11.658689,7690,0.026040,0.125392,0.636581,-0.122610,-0.009031,1.001133
2011-09-26T13:12:11.668689,7700,0.024503,0.144609,0.649213,-0.122834,-0.009033,1.001175
2011-09-26T13:12:11.678689,7710,0.022966,0.163827,0.661845,-0.123058,-0.009035,1.001217
2011-09-26T13:12:11.688689,7720,0.021429,0.183044,0.674477,-0.123282,-0.009038,1.001259
2011-09-26T13:12:11.698689,7730,0.019892,0.202262,0.687109,-0.123506,-0.009040,1.001301
2011-09-26T13:12:11.708689,7740,0.018355,0.221479,0.699741,-0.123730,-0.009043,1.001343
2011-09-26T13:12:11.718689,7750,0.016818,0.240697,0.712373,-0.123954,-0.009045,1.001384
2011-09-26T13:12:11.728689,7760,0.015281,0.259914,0.725005,-0.124178,-0.009047,1.001426
2011-09-26T13:12:11.738689,7770,0.020796,0.239120,0.722136,-0.123799,-0.009080,1.001060
2011-09-26T13:12:11.748689,7780,0.026598,0.216694,0.718635,-0.123395,-0.009114,1.000678
2011-09-26T13:12:11.758689,7790,0.032399,0.194269,0.715134,-0.122991,-0.009148,1.000295
2011-09-26T13:12:11.768689,7800,0.038201,0.171843,0.711632,-0.122588,-0.009182,0.999912
2011-09-26T13:12:11.778689,7810,0.044003,0.149417,0.708131,-0.122184,-0.009215,0.999530
2011-09-26T13:12:11.788689,7820,0.049805,0.126991,0.704630,-0.121780,-0.009249,0.999147
2011-09-26T13:12:11.798689,7830,0.055607,0.104566,0.701129,-0.121376,-0.009283,0.998765
2011-09-26T13:12:11.808689,7840,0.061409,0.082140,0.697627,-0.120973,-0.009317,0.998382
2011-09-26T13:12:11.818689,7850,0.067210,0.059714,0.694126,-0.120569,-0.009351,0.997999
2011-09-26T13:12:11.828689,7860,0.073012,0.037289,0.690625,-0.120165,-0.009385,0.997617
2011-09-26T13:12:11.838689,7870,0.074686,0.023925,0.687883,-0.119038,-0.009002,0.996910
2011-09-26T13:12:11.848689,7880,0.076213,0.010883,0.685168,-0.117886,-0.008604,0.996193
2011-09-26T13:12:11.858689,7890,0.077741,-0.002159,0.682452,-0.116733,-0.008206,0.995475
2011-09-26T13:12:11.868689,7900,0.079268,-0.015202,0.679737,-0.115580,-0.007808,0.994757
2011-09-26T13:12:11.878689,7910,0.080796,-0.028244,0.677022,-0.114428,-0.007410,0.994039
2011-09-26T13:12:11.888689,7920,0.082323,-0.041287,0.674307,-0.113275,-0.007013,0.993321
2011-09-26T13:12:11.898689,7930,0.083851,-0.054329,0.671592,-0.112123,-0.006615,0.992604
2011-09-26T13:12:11.908689,7940,0.085378,-0.067371,0.668877,-0.110970,-0.006217,0.991886
2011-09-26T13:12:11.918689,7950,0.086906,-0.080414,0.666162,-0.109817,-0.005819,0.991168
2011-09-26T13:12:11.928689,7960,0.088433,-0.093456,0.663447,-0.108665,-0.005421,0.990450
2011-09-26T13:12:11.938689,7970,0.069215,-0.123013,0.658967,-0.105872,-0.005245,0.990664
2011-09-26T13:12:11.948689,7980,0.049208,-0.153197,0.654420,-0.103017,-0.005078,0.990914
2011-09-26T13:12:11.958689,7990,0.029201,-0.183382,0.649874,-0.100161,-0.004910,0.991164
2011-09-26T13:12:11.968689,8000,0.009195,-0.213566,0.645327,-0.097306,-0.004743,0.991413
2011-09-26T13:12:11.978689,8010,-0.010812,-0.243751,0.640780,-0.094451,-0.004575,0.991663
2011-09-26T13:12:11.988689,8020,-0.030818,-0.273935,0.636234,-0.091596,-0.004408,0.991912
2011-09-26T13:12:11.998689,8030,-0.050825,-0.304120,0.631687,-0.088741,-0.004240,0.992162
2011-09-26T13:12:12.008689,8040,-0.070831,-0.334304,0.627140,-0.085886,-0.004073,0.992411
2011-09-26T13:12:12.018689,8050,-0.090838,-0.364488,0.622594,-0.083030,-0.003905,0.992661
2011-09-26T13:12:12.028689,8060,-0.110844,-0.394673,0.618047,-0.080175,-0.003738,0.992911
2011-09-26T13:12:12.038689,8070,-0.130851,-0.424857,0.613500,-0.077320,-0.003570,0.993160
2011-09-26T13:12:12.048689,8080,-0.135387,-0.427505,0.595844,-0.076382,-0.004295,0.993735
2011-09-26T13:12:12.058689,8090,-0.139398,-0.429218,0.577744,-0.075509,-0.005051,0.994320
2011-09-26T13:12:12.068689,8100,-0.143410,-0.430932,0.559643,-0.074636,-0.005806,0.994906
2011-09-26T13:12:12.078689,8110,-0.147421,-0.432646,0.541543,-0.073763,-0.006561,0.995491
2011-09-26T13:12:12.088689,8120,-0.151433,-0.434360,0.523442,-0.072890,-0.007316,0.996077
2011-09-26T13:12:12.098689,8130,-0.155444,-0.436074,0.505342,-0.072016,-0.008071,0.996662
2011-09-26T13:12:12.108689,8140,-0.159456,-0.437788,0.487241,-0.071143,-0.008827,0.997248
2011-09-26T13:12:12.118689,8150,-0.163467,-0.439502,0.469141,-0.070270,-0.009582,0.997834
2011-09-26T13:12:12.128689,8160,-0.167479,-0.441216,0.451040,-0.069397,-0.010337,0.998419
2011-09-26T13:12:12.138689,8170,-0.171490,-0.442930,0.432940,-0.068524,-0.011092,0.999005
2011-09-26T13:12:12.148689,8180,-0.156370,-0.415253,0.428516,-0.067838,-0.011110,0.999927
2011-09-26T13:12:12.158689,8190,-0.140577,-0.386545,0.424572,-0.067158,-0.011102,1.000861
2011-09-26T13:12:12.168689,8200,-0.124785,-0.357837,0.420628,-0.066479,-0.011095,1.001795
2011-09-26T13:12:12.178689,8210,-0.108993,-0.329129,0.416685,-0.065800,-0.011087,1.002729
2011-09-26T13:12:12.188689,8220,-0.093200,-0.300420,0.412741,-0.065120,-0.011079,1.003663
2011-09-26T13:12:12.198689,8230,-0.077408,-0.271712,0.408797,-0.064441,-0.011071,1.004597
2011-09-26T13:12:12.208689,8240,-0.061616,-0.243004,0.404853,-0.063761,-0.011063,1.005531
2011-09-26T13:12:12.218689,8250,-0.045824,-0.214296,0.400909,-0.063082,-0.011056,1.006466
2011-09-26T13:12:12.228689,8260,-0.030031,-0.185588,0.396966,-0.062403,-0.011048,1.007400
2011-09-26T13:12:12.238689,8270,-0.014239,-0.156879,0.393022,-0.061723,-0.011040,1.008334
2011-09-26T13:12:12.248689,8280,-0.023305,-0.140976,0.387422,-0.061742,-0.011400,1.007860
2011-09-26T13:12:12.258689,8290,-0.033704,-0.125758,0.381734,-0.061799,-0.011780,1.007310
2011-09-26T13:12:12.268689,8300,-0.044104,-0.110541,0.376045,-0.061855,-0.012159,1.006761
2011-09-26T13:12:12.278689,8310,-0.054503,-0.095324,0.370357,-0.061912,-0.012539,1.006212
2011-09-26T13:12:12.288689,8320,-0.064902,-0.080107,0.364668,-0.061968,-0.012919,1.005662
2011-09-26T13:12:12.298689,8330,-0.075301,-0.064890,0.358980,-0.062025,-0.013298,1.005113
2011-09-26T13:12:12.308689,8340,-0.085701,-0.049673,0.353291,-0.062082,-0.013678,1.004563
2011-09-26T13:12:12.318689,8350,-0.096100,-0.034456,0.347603,-0.062138,-0.014058,1.004014
2011-09-26T13:12:12.328689,8360,-0.106499,-0.019239,0.341915,-0.062195,-0.014437,1.003465
2011-09-26T13:12:12.338689,8370,-0.116898,-0.004022,0.336226,-0.062251,-0.014817,1.002915
2011-09-26T13:12:12.348689,8380,-0.127298,0.011196,0.330538,-0.062308,-0.015197,1.002366
2011-09-26T13:12:12.358689,8390,-0.111945,0.020666,0.329934,-0.062478,-0.014931,1.002446
2011-09-26T13:12:12.368689,8400,-0.095533,0.029900,0.329540,-0.062652,-0.014639,1.002551
2011-09-26T13:12:12.378689,8410,-0.079121,0.039134,0.329146,-0.062827,-0.014346,1.002657
2011-09-26T13:12:12.388689,8420,-0.062709,0.048368,0.328752,-0.063002,-0.014054,1.002762
2011-09-26T13:12:12.398689,8430,-0.046297,0.057602,0.328357,-0.063176,-0.013762,1.002868
2011-09-26T13:12:12.408689,8440,-0.029885,0.066836,0.327963,-0.063351,-0.013469,1.002974
2011-09-26T13:12:12.418689,8450,-0.013473,0.076070,0.327569,-0.063526,-0.013177,1.003079
2011-09-26T13:12:12.428689,8460,0.002939,0.085304,0.327175,-0.063701,-0.012885,1.003185
2011-09-26T13:12:12.438689,8470,0.019351,0.094538,0.326780,-0.063875,-0.012592,1.003290
2011-09-26T13:12:12.448689,8480,0.035763,0.103772,0.326386,-0.064050,-0.012300,1.003396
2011-09-26T13:12:12.458689,8490,0.029228,0.089788,0.331755,-0.063955,-0.012741,1.002972
2011-09-26T13:12:12.468689,8500,0.021897,0.075000,0.337324,-0.063851,-0.013207,1.002530
2011-09-26T13:12:12.478689,8510,0.014566,0.060212,0.342893,-0.063746,-0.013674,1.002088
2011-09-26T13:12:12.488689,8520,0.007235,0.045425,0.348461,-0.063642,-0.014140,1.001646
2011-09-26T13:12:12.498689,8530,-0.000095,0.030637,0.354030,-0.063537,-0.014606,1.001204
2011-09-26T13:12:12.508689,8540,-0.007426,0.015849,0.359599,-0.063433,-0.015073,1.000762
2011-09-26T13:12:12.518689,8550,-0.014757,0.001061,0.365167,-0.063329,-0.015539,1.000320
2011-09-26T13:12:12.528689,8560,-0.022087,-0.013727,0.370736,-0.063224,-0.016005,0.999878
2011-09-26T13:12:12.538689,8570,-0.029418,-0.028515,0.376305,-0.063120,-0.016471,0.999436
2011-09-26T13:12:12.548689,8580,-0.036749,-0.043303,0.381874,-0.063016,-0.016938,0.998994
2011-09-26T13:12:12.558689,8590,-0.044080,-0.058091,0.387442,-0.062911,-0.017404,0.998552
2011-09-26T13:12:12.568689,8600,-0.048188,-0.050072,0.387995,-0.063044,-0.016594,0.998820
2011-09-26T13:12:12.578689,8610,-0.052161,-0.041089,0.388335,-0.063188,-0.015730,0.999117
2011-09-26T13:12:12.588689,8620,-0.056133,-0.032105,0.388675,-0.063331,-0.014866,0.999414
2011-09-26T13:12:12.598689,8630,-0.060106,-0.023122,0.389015,-0.063474,-0.014002,0.999711
2011-09-26T13:12:12.608689,8640,-0.064078,-0.014138,0.389355,-0.063617,-0.013138,1.000008
2011-09-26T13:12:12.618689,8650,-0.068050,-0.005155,0.389695,-0.063761,-0.012274,1.000305
2011-09-26T13:12:12.628689,8660,-0.072023,0.003829,0.390036,-0.063904,-0.011410,1.000602
2011-09-26T13:12:12.638689,8670,-0.075995,0.012812,0.390376,-0.064047,-0.010546,1.000899
2011-09-26T13:12:12.648689,8680,-0.079968,0.021796,0.390716,-0.064190,-0.009681,1.001196
2011-09-26T13:12:12.658689,8690,-0.083940,0.030780,0.391056,-0.064334,-0.008817,1.001493
2011-09-26T13:12:12.668689,8700,-0.111016,0.041704,0.392469,-0.064340,-0.009613,1.001147
2011-09-26T13:12:12.678689,8710,-0.138996,0.052705,0.393924,-0.064342,-0.010474,1.000776
2011-09-26T13:12:12.688689,8720,-0.166977,0.063705,0.395379,-0.064343,-0.011335,1.000404
2011-09-26T13:12:12.698689,8730,-0.194958,0.074706,0.396834,-0.064345,-0.012196,1.000033
2011-09-26T13:12:12.708689,8740,-0.222938,0.085707,0.398289,-0.064346,-0.013056,0.999662
2011-09-26T13:12:12.718689,8750,-0.250919,0.096707,0.399744,-0.064347,-0.013917,0.999291
2011-09-26T13:12:12.728689,8760,-0.278900,0.107708,0.401199,-0.064349,-0.014778,0.998919
2011-09-26T13:12:12.738689,8770,-0.306880,0.118709,0.402654,-0.064350,-0.015639,0.998548
2011-09-26T13:12:12.748689,8780,-0.334861,0.129709,0.404109,-0.064352,-0.016500,0.998177
2011-09-26T13:12:12.758689,8790,-0.362842,0.140710,0.405564,-0.064353,-0.017361,0.997806
2011-09-26T13:12:12.768689,8800,-0.340834,0.161126,0.394435,-0.064314,-0.017068,0.998019
2011-09-26T13:12:12.778689,8810,-0.316602,0.181962,0.382745,-0.064273,-0.016725,0.998258
2011-09-26T13:12:12.788689,8820,-0.292371,0.202797,0.371055,-0.064232,-0.016382,0.998496
2011-09-26T13:12:12.798689,8830,-0.268139,0.223633,0.359365,-0.064191,-0.016038,0.998735
2011-09-26T13:12:12.808689,8840,-0.243907,0.244468,0.347676,-0.064150,-0.015695,0.998974
2011-09-26T13:12:12.818689,8850,-0.219675,0.265303,0.335986,-0.064110,-0.015351,0.999213
2011-09-26T13:12:12.828689,8860,-0.195443,0.286139,0.324296,-0.064069,-0.015008,0.999452
2011-09-26T13:12:12.838689,8870,-0.171211,0.306974,0.312606,-0.064028,-0.014665,0.999691
2011-09-26T13:12:12.848689,8880,-0.146979,0.327809,0.300917,-0.063987,-0.014321,0.999930
2011-09-26T13:12:12.858689,8890,-0.122747,0.348645,0.289227,-0.063946,-0.013978,1.000169
2011-09-26T13:12:12.868689,8900,-0.098515,0.369480,0.277537,-0.063905,-0.013634,1.000408
2011-09-26T13:12:12.878689,8910,-0.082813,0.356174,0.279462,-0.064165,-0.014136,0.999634
2011-09-26T13:12:12.888689,8920,-0.067445,0.341534,0.281918,-0.064437,-0.014670,0.998821
2011-09-26T13:12:12.898689,8930,-0.052076,0.326894,0.284374,-0.064708,-0.015204,0.998008
2011-09-26T13:12:12.908689,8940,-0.036707,0.312253,0.286830,-0.064980,-0.015738,0.997195
2011-09-26T13:12:12.918689,8950,-0.021338,0.297613,0.289287,-0.065252,-0.016273,0.996382
2011-09-26T13:12:12.928689,8960,-0.005970,0.282973,0.291743,-0.065523,-0.016807,0.995569
2011-09-26T13:12:12.938689,8970,0.009399,0.268333,0.294199,-0.065795,-0.017341,0.994755
2011-09-26T13:12:12.948689,8980,0.024768,0.253693,0.296655,-0.066067,-0.017876,0.993942
2011-09-26T13:12:12.958689,8990,0.040137,0.239053,0.299112,-0.066338,-0.018410,0.993129
2011-09-26T13:12:12.968689,9000,0.055506,0.224413,0.301568,-0.066610,-0.018944,0.992316
2011-09-26T13:12:12.978689,9010,0.048203,0.191964,0.295531,-0.066507,-0.018406,0.992799
2011-09-26T13:12:12.988689,9020,0.039999,0.158808,0.289157,-0.066389,-0.017826,0.993333
2011-09-26T13:12:12.998689,9030,0.031796,0.125653,0.282783,-0.066271,-0.017245,0.993868
2011-09-26T13:12:13.008689,9040,0.023593,0.092497,0.276408,-0.066153,-0.016665,0.994402
2011-09-26T13:12:13.018689,9050,0.015390,0.059341,0.270034,-0.066035,-0.016084,0.994937
2011-09-26T13:12:13.028689,9060,0.007187,0.026186,0.263660,-0.065917,-0.015504,0.995471
2011-09-26T13:12:13.038689,9070,-0.001016,-0.006970,0.257286,-0.065799,-0.014923,0.996006
2011-09-26T13:12:13.048689,9080,-0.009219,-0.040126,0.250912,-0.065681,-0.014343,0.996540
2011-09-26T13:12:13.058689,9090,-0.017422,-0.073281,0.244538,-0.065563,-0.013762,0.997075
2011-09-26T13:12:13.068689,9100,-0.025625,-0.106437,0.238163,-0.065445,-0.013182,0.997609
2011-09-26T13:12:13.078689,9110,-0.015339,-0.099336,0.236678,-0.065780,-0.013758,0.997778
2011-09-26T13:12:13.088689,9120,-0.004294,-0.090583,0.235393,-0.066134,-0.014382,0.997931
2011-09-26T13:12:13.098689,9130,0.006751,-0.081831,0.234108,-0.066488,-0.015005,0.998084
2011-09-26T13:12:13.108689,9140,0.017796,-0.073079,0.232823,-0.066843,-0.015629,0.998237
2011-09-26T13:12:13.118689,9150,0.028841,-0.064326,0.231538,-0.067197,-0.016253,0.998390
2011-09-26T13:12:13.128689,9160,0.039885,-0.055574,0.230253,-0.067551,-0.016876,0.998543
2011-09-26T13:12:13.138689,9170,0.050930,-0.046821,0.228969,-0.067905,-0.017500,0.998696
2011-09-26T13:12:13.148689,9180,0.061975,-0.038069,0.227684,-0.068259,-0.018124,0.998849
2011-09-26T13:12:13.158689,9190,0.073020,-0.029316,0.226399,-0.068613,-0.018747,0.999003
2011-09-26T13:12:13.168689,9200,0.084065,-0.020564,0.225114,-0.068967,-0.019371,0.999156
2011-09-26T13:12:13.178689,9210,0.095110,-0.011812,0.223829,-0.069321,-0.019995,0.999309
2011-09-26T13:12:13.188689,9220,0.088882,0.012572,0.234195,-0.071379,-0.020112,1.000442
2011-09-26T13:12:13.198689,9230,0.081535,0.037969,0.245316,-0.073548,-0.020196,1.001639
2011-09-26T13:12:13.208689,9240,0.074187,0.063365,0.256437,-0.075716,-0.020280,1.002836
2011-09-26T13:12:13.218689,9250,0.066840,0.088762,0.267558,-0.077885,-0.020364,1.004033
2011-09-26T13:12:13.228689,9260,0.059492,0.114159,0.278679,-0.080054,-0.020449,1.005230
2011-09-26T13:12:13.238689,9270,0.052145,0.139556,0.289801,-0.082222,-0.020533,1.006427
2011-09-26T13:12:13.248689,9280,0.044798,0.164953,0.300922,-0.084391,-0.020617,1.007624
2011-09-26T13:12:13.258689,9290,0.037450,0.190350,0.312043,-0.086560,-0.020701,1.008821
2011-09-26T13:12:13.268689,9300,0.030103,0.215746,0.323164,-0.088728,-0.020786,1.010018
2011-09-26T13:12:13.278689,9310,0.022755,0.241143,0.334285,-0.090897,-0.020870,1.011215
2011-09-26T13:12:13.288689,9320,0.010146,0.251339,0.320706,-0.092651,-0.020240,1.009925
2011-09-26T13:12:13.298689,9330,-0.002773,0.260637,0.305668,-0.094380,-0.019567,1.008488
2011-09-26T13:12:13.308689,9340,-0.015693,0.269935,0.290629,-0.096109,-0.018894,1.007051
2011-09-26T13:12:13.318689,9350,-0.028613,0.279233,0.275590,-0.097838,-0.018222,1.005614
2011-09-26T13:12:13.328689,9360,-0.041533,0.288531,0.260551,-0.099567,-0.017549,1.004178
2011-09-26T13:12:13.338689,9370,-0.054453,0.297828,0.245513,-0.101296,-0.016877,1.002741
2011-09-26T13:12:13.348689,9380,-0.067373,0.307126,0.230474,-0.103026,-0.016204,1.001304
2011-09-26T13:12:13.358689,9390,-0.080293,0.316424,0.215435,-0.104755,-0.015532,0.999867
2011-09-26T13:12:13.368689,9400,-0.093213,0.325722,0.200396,-0.106484,-0.014859,0.998430
2011-09-26T13:12:13.378689,9410,-0.106133,0.335019,0.185358,-0.108213,-0.014187,0.996993
2011-09-26T13:12:13.388689,9420,-0.099467,0.305069,0.165702,-0.109151,-0.014029,0.996661
2011-09-26T13:12:13.398689,9430,-0.091891,0.273294,0.145831,-0.110053,-0.013895,0.996381
2011-09-26T13:12:13.408689,9440,-0.084316,0.241520,0.125961,-0.110955,-0.013761,0.996101
2011-09-26T13:12:13.418689,9450,-0.076740,0.209745,0.106091,-0.111856,-0.013627,0.995821
2011-09-26T13:12:13.428689,9460,-0.069164,0.177971,0.086220,-0.112758,-0.013493,0.995541
2011-09-26T13:12:13.438689,9470,-0.061589,0.146196,0.066350,-0.113660,-0.013359,0.995260
2011-09-26T13:12:13.448689,9480,-0.054013,0.114421,0.046479,-0.114562,-0.013225,0.994980
2011-09-26T13:12:13.458689,9490,-0.046437,0.082647,0.026609,-0.115463,-0.013091,0.994700
2011-09-26T13:12:13.468689,9500,-0.038862,0.050872,0.006739,-0.116365,-0.012957,0.994420
2011-09-26T13:12:13.478689,9510,-0.031286,0.019098,-0.013132,-0.117267,-0.012823,0.994139
2011-09-26T13:12:13.488689,9520,-0.023710,-0.012677,-0.033002,-0.118168,-0.012689,0.993859
2011-09-26T13:12:13.498689,9530,-0.017169,-0.034210,-0.054834,-0.118929,-0.013707,0.993538
2011-09-26T13:12:13.508689,9540,-0.010678,-0.055256,-0.076759,-0.119682,-0.014779,0.993215
2011-09-26T13:12:13.518689,9550,-0.004187,-0.076301,-0.098684,-0.120436,-0.015852,0.992892
2011-09-26T13:12:13.528689,9560,0.002305,-0.097346,-0.120609,-0.121190,-0.016925,0.992569
2011-09-26T13:12:13.538689,9570,0.008796,-0.118391,-0.142534,-0.121944,-0.017997,0.992246
2011-09-26T13:12:13.548689,9580,0.015288,-0.139436,-0.164459,-0.122697,-0.019070,0.991923
2011-09-26T13:12:13.558689,9590,0.021779,-0.160481,-0.186384,-0.123451,-0.020142,0.991600
2011-09-26T13:12:13.568689,9600,0.028270,-0.181527,-0.208308,-0.124205,-0.021215,0.991277
2011-09-26T13:12:13.578689,9610,0.034762,-0.202572,-0.230233,-0.124959,-0.022288,0.990954
2011-09-26T13:12:13.588689,9620,0.041253,-0.223617,-0.252158,-0.125712,-0.023360,0.990631
2011-09-26T13:12:13.598689,9630,0.074332,-0.225477,-0.255208,-0.126156,-0.023946,0.992181
2011-09-26T13:12:13.608689,9640,0.108550,-0.226516,-0.257448,-0.126586,-0.024510,0.993810
2011-09-26T13:12:13.618689,9650,0.142768,-0.227554,-0.259689,-0.127017,-0.025075,0.995440
2011-09-26T13:12:13.628689,9660,0.176986,-0.228593,-0.261929,-0.127447,-0.025640,0.997069
2011-09-26T13:12:13.638689,9670,0.211204,-0.229631,-0.264170,-0.127878,-0.026204,0.998699
2011-09-26T13:12:13.648689,9680,0.245422,-0.230670,-0.266410,-0.128308,-0.026769,1.000329
2011-09-26T13:12:13.658689,9690,0.279640,-0.231708,-0.268651,-0.128739,-0.027334,1.001958
2011-09-26T13:12:13.668689,9700,0.313858,-0.232746,-0.270892,-0.129169,-0.027898,1.003588
2011-09-26T13:12:13.678689,9710,0.348076,-0.233785,-0.273132,-0.129600,-0.028463,1.005217
2011-09-26T13:12:13.688689,9720,0.382295,-0.234823,-0.275373,-0.130030,-0.029028,1.006847
2011-09-26T13:12:13.698689,9730,0.371114,-0.201317,-0.274259,-0.130813,-0.028469,1.007088
2011-09-26T13:12:13.708689,9740,0.357282,-0.165792,-0.272949,-0.131617,-0.027845,1.007248
2011-09-26T13:12:13.718689,9750,0.343449,-0.130267,-0.271639,-0.132421,-0.027221,1.007407
2011-09-26T13:12:13.728689,9760,0.329617,-0.094742,-0.270330,-0.133225,-0.026596,1.007567
2011-09-26T13:12:13.738689,9770,0.315784,-0.059217,-0.269020,-0.134029,-0.025972,1.007727
2011-09-26T13:12:13.748689,9780,0.301951,-0.023693,-0.267710,-0.134833,-0.025348,1.007886
2011-09-26T13:12:13.758689,9790,0.288119,0.011832,-0.266400,-0.135637,-0.024724,1.008046
2011-09-26T13:12:13.768689,9800,0.274286,0.047357,-0.265090,-0.136441,-0.024100,1.008206
2011-09-26T13:12:13.778689,9810,0.260454,0.082882,-0.263781,-0.137245,-0.023475,1.008365
2011-09-26T13:12:13.788689,9820,0.246621,0.118407,-0.262471,-0.138049,-0.022851,1.008525
2011-09-26T13:12:13.798689,9830,0.232789,0.153932,-0.261161,-0.138853,-0.022227,1.008685
2011-09-26T13:12:13.808689,9840,0.253997,0.157218,-0.252251,-0.139206,-0.022329,1.008692
2011-09-26T13:12:13.818689,9850,0.276718,0.159112,-0.243013,-0.139540,-0.022462,1.008693
2011-09-26T13:12:13.828689,9860,0.299440,0.161006,-0.233775,-0.139874,-0.022595,1.008694
2011-09-26T13:12:13.838689,9870,0.322162,0.162900,-0.224536,-0.140208,-0.022728,1.008695
2011-09-26T13:12:13.848689,9880,0.344883,0.164794,-0.215298,-0.140542,-0.022861,1.008696
2011-09-26T13:12:13.858689,9890,0.367605,0.166688,-0.206060,-0.140875,-0.022994,1.008697
2011-09-26T13:12:13.868689,9900,0.390327,0.168582,-0.196822,-0.141209,-0.023127,1.008698
2011-09-26T13:12:13.878689,9910,0.413048,0.170476,-0.187583,-0.141543,-0.023260,1.008699
2011-09-26T13:12:13.888689,9920,0.435770,0.172370,-0.178345,-0.141877,-0.023393,1.008700
2011-09-26T13:12:13.898689,9930,0.458491,0.174264,-0.169107,-0.142211,-0.023526,1.008701
2011-09-26T13:12:13.908689,9940,0.485407,0.175643,-0.165250,-0.142070,-0.024324,1.007515
2011-09-26T13:12:13.918689,9950,0.512524,0.176998,-0.161650,-0.141907,-0.025153,1.006273
2011-09-26T13:12:13.928689,9960,0.539640,0.178353,-0.158050,-0.141744,-0.025983,1.005030
2011-09-26T13:12:13.938689,9970,0.566757,0.179707,-0.154451,-0.141581,-0.026812,1.003788
2011-09-26T13:12:13.948689,9980,0.593874,0.181062,-0.150851,-0.141418,-0.027642,1.002545
2011-09-26T13:12:13.958689,9990,0.620990,0.182417,-0.147252,-0.141254,-0.028471,1.001302
2011-09-26T13:12:13.968689,10000,0.648107,0.183771,-0.143652,-0.141091,-0.029301,1.000060
2011-09-26T13:12:13.978689,10010,0.675223,0.185126,-0.140052,-0.140928,-0.030130,0.998817
2011-09-26T13:12:13.988689,10020,0.702340,0.186481,-0.136453,-0.140765,-0.030960,0.997574
2011-09-26T13:12:13.998689,10030,0.729457,0.187835,-0.132853,-0.140602,-0.031789,0.996332
2011-09-26T13:12:14.008689,10040,0.756573,0.189190,-0.129253,-0.140439,-0.032619,0.995089
2011-09-26T13:12:14.018689,10050,0.755967,0.183003,-0.128290,-0.139864,-0.031091,0.994638
2011-09-26T13:12:14.028689,10060,0.754091,0.176470,-0.127447,-0.139271,-0.029455,0.994224
2011-09-26T13:12:14.038689,10070,0.752216,0.169938,-0.126604,-0.138678,-0.027819,0.993810
2011-09-26T13:12:14.048689,10080,0.750340,0.163405,-0.125761,-0.138085,-0.026184,0.993395
2011-09-26T13:12:14.058689,10090,0.748464,0.156872,-0.124918,-0.137491,-0.024548,0.992981
2011-09-26T13:12:14.068689,10100,0.746588,0.150340,-0.124075,-0.136898,-0.022912,0.992567
2011-09-26T13:12:14.078689,10110,0.744712,0.143807,-0.123233,-0.136305,-0.021276,0.992153
2011-09-26T13:12:14.088689,10120,0.742836,0.137274,-0.122390,-0.135712,-0.019641,0.991738
2011-09-26T13:12:14.098689,10130,0.740960,0.130742,-0.121547,-0.135119,-0.018005,0.991324
2011-09-26T13:12:14.108689,10140,0.739084,0.124209,-0.120704,-0.134525,-0.016369,0.990910
2011-09-26T13:12:14.118689,10150,0.706784,0.131132,-0.135260,-0.133175,-0.015876,0.990908
2011-09-26T13:12:14.128689,10160,0.673229,0.138610,-0.150451,-0.131794,-0.015429,0.990922
2011-09-26T13:12:14.138689,10170,0.639675,0.146087,-0.165642,-0.130412,-0.014983,0.990937
2011-09-26T13:12:14.148689,10180,0.606120,0.153565,-0.180833,-0.129031,-0.014537,0.990952
2011-09-26T13:12:14.158689,10190,0.572565,0.161043,-0.196024,-0.127649,-0.014091,0.990967
2011-09-26T13:12:14.168689,10200,0.539010,0.168520,-0.211215,-0.126268,-0.013644,0.990982
2011-09-26T13:12:14.178689,10210,0.505456,0.175998,-0.226406,-0.124886,-0.013198,0.990997
2011-09-26T13:12:14.188689,10220,0.471901,0.183475,-0.241597,-0.123505,-0.012752,0.991012
2011-09-26T13:12:14.198689,10230,0.438346,0.190953,-0.256788,-0.122123,-0.012306,0.991027
2011-09-26T13:12:14.208689,10240,0.404792,0.198431,-0.271979,-0.120742,-0.011859,0.991042
2011-09-26T13:12:14.218689,10250,0.358108,0.147604,-0.258963,-0.119681,-0.012619,0.991611
2011-09-26T13:12:14.228689,10260,0.310525,0.092784,-0.244016,-0.118641,-0.013461,0.992219
2011-09-26T13:12:14.238689,10270,0.262943,0.037964,-0.229068,-0.117602,-0.014303,0.992826
2011-09-26T13:12:14.248689,10280,0.215360,-0.016856,-0.214120,-0.116563,-0.015145,0.993433
2011-09-26T13:12:14.258689,10290,0.167777,-0.071676,-0.199173,-0.115524,-0.015988,0.994041
2011-09-26T13:12:14.268689,10300,0.120194,-0.126496,-0.184225,-0.114485,-0.016830,0.994648
2011-09-26T13:12:14.278689,10310,0.072612,-0.181316,-0.169277,-0.113446,-0.017672,0.995255
2011-09-26T13:12:14.288689,10320,0.025029,-0.236136,-0.154330,-0.112407,-0.018514,0.995863
2011-09-26T13:12:14.298689,10330,-0.022554,-0.290957,-0.139382,-0.111368,-0.019356,0.996470
2011-09-26T13:12:14.308689,10340,-0.070136,-0.345777,-0.124435,-0.110329,-0.020198,0.997077
2011-09-26T13:12:14.318689,10350,-0.117719,-0.400597,-0.109487,-0.109290,-0.021041,0.997685
2011-09-26T13:12:14.328689,10360,-0.077695,-0.410031,-0.114979,-0.107771,-0.020611,0.997554
2011-09-26T13:12:14.338689,10370,-0.033485,-0.417296,-0.121448,-0.106230,-0.020120,0.997388
2011-09-26T13:12:14.348689,10380,0.010725,-0.424562,-0.127917,-0.104689,-0.019629,0.997222
2011-09-26T13:12:14.358689,10390,0.054935,-0.431827,-0.134386,-0.103148,-0.019139,0.997056
2011-09-26T13:12:14.368689,10400,0.099145,-0.439092,-0.140855,-0.101606,-0.018648,0.996890
2011-09-26T13:12:14.378689,10410,0.143355,-0.446358,-0.147324,-0.100065,-0.018158,0.996724
2011-09-26T13:12:14.388689,10420,0.187565,-0.453623,-0.153794,-0.098524,-0.017667,0.996558
2011-09-26T13:12:14.398689,10430,0.231775,-0.460888,-0.160263,-0.096983,-0.017176,0.996392
2011-09-26T13:12:14.408689,10440,0.275986,-0.468153,-0.166732,-0.095441,-0.016686,0.996226
2011-09-26T13:12:14.418689,10450,0.320196,-0.475419,-0.173201,-0.093900,-0.016195,0.996060
2011-09-26T13:12:14.428689,10460,0.319877,-0.502452,-0.175742,-0.093853,-0.016518,0.996792
2011-09-26T13:12:14.438689,10470,0.317563,-0.530370,-0.178108,-0.093873,-0.016876,0.997564
2011-09-26T13:12:14.448689,10480,0.315249,-0.558289,-0.180473,-0.093893,-0.017235,0.998336
2011-09-26T13:12:14.458689,10490,0.312935,-0.586208,-0.182839,-0.093913,-0.017594,0.999108
2011-09-26T13:12:14.468689,10500,0.310621,-0.614127,-0.185204,-0.093934,-0.017953,0.999880
2011-09-26T13:12:14.478689,10510,0.308308,-0.642046,-0.187570,-0.093954,-0.018312,1.000652
2011-09-26T13:12:14.488689,10520,0.305994,-0.669964,-0.189935,-0.093974,-0.018670,1.001424
2011-09-26T13:12:14.498689,10530,0.303680,-0.697883,-0.192301,-0.093994,-0.019029,1.002196
2011-09-26T13:12:14.508689,10540,0.301366,-0.725802,-0.194666,-0.094014,-0.019388,1.002968
2011-09-26T13:12:14.518689,10550,0.299052,-0.753721,-0.197032,-0.094034,-0.019747,1.003739
2011-09-26T13:12:14.528689,10560,0.296738,-0.781640,-0.199397,-0.094054,-0.020106,1.004511
2011-09-26T13:12:14.538689,10570,0.301649,-0.778100,-0.201540,-0.093292,-0.019086,1.005083
2011-09-26T13:12:14.548689,10580,0.306909,-0.773040,-0.203673,-0.092492,-0.018000,1.005646
2011-09-26T13:12:14.558689,10590,0.312169,-0.767981,-0.205806,-0.091692,-0.016914,1.006208
2011-09-26T13:12:14.568689,10600,0.317429,-0.762921,-0.207938,-0.090892,-0.015827,1.006770
2011-09-26T13:12:14.578689,10610,0.322689,-0.757862,-0.210071,-0.090092,-0.014741,1.007332
2011-09-26T13:12:14.588689,10620,0.327949,-0.752802,-0.212203,-0.089292,-0.013655,1.007895
2011-09-26T13:12:14.598689,10630,0.333209,-0.747742,-0.214336,-0.088492,-0.012569,1.008457
2011-09-26T13:12:14.608689,10640,0.338470,-0.742683,-0.216468,-0.087692,-0.011483,1.009019
2011-09-26T13:12:14.618689,10650,0.343730,-0.737623,-0.218601,-0.086892,-0.010396,1.009581
2011-09-26T13:12:14.628689,10660,0.348990,-0.732564,-0.220733,-0.086092,-0.009310,1.010144
2011-09-26T13:12:14.638689,10670,0.291529,-0.696630,-0.229023,-0.084687,-0.009858,1.009799
2011-09-26T13:12:14.648689,10680,0.230982,-0.659177,-0.237616,-0.083253,-0.010487,1.009409
2011-09-26T13:12:14.658689,10690,0.170435,-0.621724,-0.246209,-0.081819,-0.011116,1.009020
2011-09-26T13:12:14.668689,10700,0.109888,-0.584270,-0.254802,-0.080384,-0.011744,1.008630
2011-09-26T13:12:14.678689,10710,0.049340,-0.546817,-0.263395,-0.078950,-0.012373,1.008241
2011-09-26T13:12:14.688689,10720,-0.011207,-0.509364,-0.271988,-0.077515,-0.013001,1.007851
2011-09-26T13:12:14.698689,10730,-0.071754,-0.471911,-0.280581,-0.076081,-0.013630,1.007462
2011-09-26T13:12:14.708689,10740,-0.132301,-0.434458,-0.289174,-0.074646,-0.014259,1.007072
2011-09-26T13:12:14.718689,10750,-0.192848,-0.397005,-0.297766,-0.073212,-0.014887,1.006683
2011-09-26T13:12:14.728689,10760,-0.253395,-0.359552,-0.306359,-0.071777,-0.015516,1.006293
2011-09-26T13:12:14.738689,10770,-0.261294,-0.314487,-0.295463,-0.072000,-0.016056,1.006576
2011-09-26T13:12:14.748689,10780,-0.265321,-0.268862,-0.283134,-0.072344,-0.016589,1.006908
2011-09-26T13:12:14.758689,10790,-0.269348,-0.223237,-0.270805,-0.072688,-0.017123,1.007240
2011-09-26T13:12:14.768689,10800,-0.273375,-0.177612,-0.258476,-0.073033,-0.017656,1.007573
2011-09-26T13:12:14.778689,10810,-0.277402,-0.131988,-0.246146,-0.073377,-0.018189,1.007905
2011-09-26T13:12:14.788689,10820,-0.281429,-0.086363,-0.233817,-0.073721,-0.018723,1.008237
2011-09-26T13:12:14.798689,10830,-0.285456,-0.040738,-0.221488,-0.074066,-0.019256,1.008569
2011-09-26T13:12:14.808689,10840,-0.289483,0.004887,-0.209159,-0.074410,-0.019790,1.008901
2011-09-26T13:12:14.818689,10850,-0.293509,0.050511,-0.196829,-0.074754,-0.020323,1.009234
2011-09-26T13:12:14.828689,10860,-0.297536,0.096136,-0.184500,-0.075098,-0.020857,1.009566
2011-09-26T13:12:14.838689,10870,-0.301563,0.141761,-0.172171,-0.075443,-0.021390,1.009898
2011-09-26T13:12:14.848689,10880,-0.296630,0.189055,-0.175089,-0.076242,-0.020967,1.009968
2011-09-26T13:12:14.858689,10890,-0.291263,0.236430,-0.178745,-0.077063,-0.020499,1.010026
2011-09-26T13:12:14.868689,10900,-0.285897,0.283806,-0.182401,-0.077885,-0.020030,1.010084
2011-09-26T13:12:14.878689,10910,-0.280530,0.331181,-0.186057,-0.078706,-0.019561,1.010141
2011-09-26T13:12:14.888689,10920,-0.275163,0.378556,-0.189713,-0.079528,-0.019092,1.010199
2011-09-26T13:12:14.898689,10930,-0.269796,0.425931,-0.193369,-0.080349,-0.018624,1.010257
2011-09-26T13:12:14.908689,10940,-0.264429,0.473307,-0.197025,-0.081171,-0.018155,1.010314
2011-09-26T13:12:14.918689,10950,-0.259062,0.520682,-0.200681,-0.081992,-0.017686,1.010372
2011-09-26T13:12:14.928689,10960,-0.253696,0.568057,-0.204337,-0.082813,-0.017217,1.010430
2011-09-26T13:12:14.938689,10970,-0.248329,0.615432,-0.207994,-0.083635,-0.016748,1.010487
2011-09-26T13:12:14.948689,10980,-0.271034,0.588428,-0.212013,-0.085193,-0.016813,1.008057
2011-09-26T13:12:14.958689,10990,-0.295168,0.557640,-0.216050,-0.086788,-0.016904,1.005500
2011-09-26T13:12:14.968689,11000,-0.319301,0.526852,-0.220087,-0.088383,-0.016996,1.002942
2011-09-26T13:12:14.978689,11010,-0.343435,0.496063,-0.224125,-0.089979,-0.017087,1.000385
2011-09-26T13:12:14.988689,11020,-0.367568,0.465275,-0.228162,-0.091574,-0.017179,0.997828
2011-09-26T13:12:14.998689,11030,-0.391702,0.434487,-0.232200,-0.093169,-0.017270,0.995271
2011-09-26T13:12:15.008689,11040,-0.415835,0.403699,-0.236237,-0.094765,-0.017362,0.992714
2011-09-26T13:12:15.018689,11050,-0.439969,0.372910,-0.240274,-0.096360,-0.017453,0.990156
2011-09-26T13:12:15.028689,11060,-0.464102,0.342122,-0.244312,-0.097955,-0.017545,0.987599
2011-09-26T13:12:15.038689,11070,-0.488236,0.311334,-0.248349,-0.099551,-0.017636,0.985042
2011-09-26T13:12:15.048689,11080,-0.473540,0.253986,-0.268907,-0.100014,-0.017474,0.985412
2011-09-26T13:12:15.058689,11090,-0.457128,0.195466,-0.290195,-0.100428,-0.017301,0.985912
2011-09-26T13:12:15.068689,11100,-0.440716,0.136945,-0.311483,-0.100842,-0.017128,0.986412
2011-09-26T13:12:15.078689,11110,-0.424305,0.078425,-0.332770,-0.101256,-0.016954,0.986911
2011-09-26T13:12:15.088689,11120,-0.407893,0.019904,-0.354058,-0.101670,-0.016781,0.987411
2011-09-26T13:12:15.098689,11130,-0.391481,-0.038616,-0.375346,-0.102083,-0.016608,0.987911
2011-09-26T13:12:15.108689,11140,-0.375070,-0.097137,-0.396633,-0.102497,-0.016434,0.988410
2011-09-26T13:12:15.118689,11150,-0.358658,-0.155657,-0.417921,-0.102911,-0.016261,0.988910
2011-09-26T13:12:15.128689,11160,-0.342246,-0.214178,-0.439209,-0.103325,-0.016087,0.989410
2011-09-26T13:12:15.138689,11170,-0.325834,-0.272699,-0.460497,-0.103738,-0.015914,0.989910
2011-09-26T13:12:15.148689,11180,-0.309423,-0.331219,-0.481784,-0.104152,-0.015741,0.990409
2011-09-26T13:12:15.158689,11190,-0.315116,-0.347184,-0.514955,-0.104895,-0.016628,0.990527
2011-09-26T13:12:15.168689,11200,-0.321757,-0.361324,-0.548635,-0.105653,-0.017560,0.990628
2011-09-26T13:12:15.178689,11210,-0.328399,-0.375465,-0.582315,-0.106410,-0.018492,0.990729
2011-09-26T13:12:15.188689,11220,-0.335040,-0.389605,-0.615995,-0.107167,-0.019424,0.990831
2011-09-26T13:12:15.198689,11230,-0.341681,-0.403745,-0.649675,-0.107925,-0.020356,0.990932
2011-09-26T13:12:15.208689,11240,-0.348322,-0.417885,-0.683355,-0.108682,-0.021289,0.991033
2011-09-26T13:12:15.218689,11250,-0.354963,-0.432026,-0.717035,-0.109439,-0.022221,0.991134
2011-09-26T13:12:15.228689,11260,-0.361605,-0.446166,-0.750715,-0.110196,-0.023153,0.991236
2011-09-26T13:12:15.238689,11270,-0.368246,-0.460306,-0.784395,-0.110954,-0.024085,0.991337
2011-09-26T13:12:15.248689,11280,-0.374887,-0.474447,-0.818075,-0.111711,-0.025017,0.991438
2011-09-26T13:12:15.258689,11290,-0.382913,-0.457330,-0.820596,-0.112347,-0.025638,0.993318
2011-09-26T13:12:15.268689,11300,-0.391025,-0.438276,-0.821185,-0.112977,-0.026240,0.995308
2011-09-26T13:12:15.278689,11310,-0.399136,-0.419221,-0.821774,-0.113606,-0.026841,0.997298
2011-09-26T13:12:15.288689,11320,-0.407248,-0.400167,-0.822363,-0.114235,-0.027442,0.999288
2011-09-26T13:12:15.298689,11330,-0.415360,-0.381112,-0.822952,-0.114864,-0.028044,1.001278
2011-09-26T13:12:15.308689,11340,-0.423472,-0.362057,-0.823541,-0.115493,-0.028645,1.003268
2011-09-26T13:12:15.318689,11350,-0.431584,-0.343003,-0.824130,-0.116122,-0.029247,1.005257
2011-09-26T13:12:15.328689,11360,-0.439696,-0.323948,-0.824719,-0.116751,-0.029848,1.007247
2011-09-26T13:12:15.338689,11370,-0.447807,-0.304893,-0.825308,-0.117380,-0.030450,1.009237
2011-09-26T13:12:15.348689,11380,-0.455919,-0.285839,-0.825897,-0.118010,-0.031051,1.011227
2011-09-26T13:12:15.358689,11390,-0.449599,-0.232077,-0.824594,-0.118488,-0.030933,1.011252
2011-09-26T13:12:15.368689,11400,-0.442566,-0.176599,-0.823196,-0.118958,-0.030779,1.011180
2011-09-26T13:12:15.378689,11410,-0.435532,-0.121122,-0.821799,-0.119429,-0.030626,1.011107
2011-09-26T13:12:15.388689,11420,-0.428499,-0.065645,-0.820402,-0.119899,-0.030472,1.011035
2011-09-26T13:12:15.398689,11430,-0.421465,-0.010167,-0.819004,-0.120370,-0.030318,1.010962
2011-09-26T13:12:15.408689,11440,-0.414432,0.045310,-0.817607,-0.120840,-0.030165,1.010890
2011-09-26T13:12:15.418689,11450,-0.407398,0.100787,-0.816210,-0.121311,-0.030011,1.010818
2011-09-26T13:12:15.428689,11460,-0.400365,0.156265,-0.814812,-0.121781,-0.029857,1.010745
2011-09-26T13:12:15.438689,11470,-0.393331,0.211742,-0.813415,-0.122252,-0.029704,1.010673
2011-09-26T13:12:15.448689,11480,-0.386298,0.267219,-0.812017,-0.122722,-0.029550,1.010601
2011-09-26T13:12:15.458689,11490,-0.379264,0.322697,-0.810620,-0.123193,-0.029396,1.010528
2011-09-26T13:12:15.468689,11500,-0.369616,0.306632,-0.802567,-0.122298,-0.030243,1.010254
2011-09-26T13:12:15.478689,11510,-0.359831,0.286843,-0.794167,-0.121333,-0.031141,1.009969
2011-09-26T13:12:15.488689,11520,-0.350046,0.267054,-0.785766,-0.120367,-0.032040,1.009684
2011-09-26T13:12:15.498689,11530,-0.340261,0.247264,-0.777366,-0.119401,-0.032939,1.009400
2011-09-26T13:12:15.508689,11540,-0.330476,0.227475,-0.768966,-0.118435,-0.033837,1.009115
2011-09-26T13:12:15.518689,11550,-0.320691,0.207686,-0.760566,-0.117470,-0.034736,1.008830
2011-09-26T13:12:15.528689,11560,-0.310906,0.187897,-0.752166,-0.116504,-0.035634,1.008545
2011-09-26T13:12:15.538689,11570,-0.301122,0.168107,-0.743766,-0.115538,-0.036533,1.008261
2011-09-26T13:12:15.548689,11580,-0.291337,0.148318,-0.735366,-0.114573,-0.037432,1.007976
2011-09-26T13:12:15.558689,11590,-0.281552,0.128529,-0.726966,-0.113607,-0.038330,1.007691
2011-09-26T13:12:15.568689,11600,-0.251409,0.117957,-0.722618,-0.112346,-0.037626,1.006330
2011-09-26T13:12:15.578689,11610,-0.220217,0.107861,-0.718479,-0.111071,-0.036840,1.004914
2011-09-26T13:12:15.588689,11620,-0.189025,0.097765,-0.714341,-0.109795,-0.036054,1.003498
2011-09-26T13:12:15.598689,11630,-0.157833,0.087668,-0.710202,-0.108519,-0.035268,1.002081
2011-09-26T13:12:15.608689,11640,-0.126641,0.077572,-0.706063,-0.107244,-0.034481,1.000665
2011-09-26T13:12:15.618689,11650,-0.095449,0.067476,-0.701925,-0.105968,-0.033695,0.999249
2011-09-26T13:12:15.628689,11660,-0.064257,0.057380,-0.697786,-0.104692,-0.032909,0.997833
2011-09-26T13:12:15.638689,11670,-0.033065,0.047283,-0.693647,-0.103416,-0.032123,0.996416
2011-09-26T13:12:15.648689,11680,-0.001873,0.037187,-0.689509,-0.102141,-0.031336,0.995000
2011-09-26T13:12:15.658689,11690,0.029319,0.027091,-0.685370,-0.100865,-0.030550,0.993584
2011-09-26T13:12:15.668689,11700,0.024685,0.024068,-0.690004,-0.099541,-0.030073,0.992366
2011-09-26T13:12:15.678689,11710,0.018130,0.021424,-0.695109,-0.098215,-0.029613,0.991158
2011-09-26T13:12:15.688689,11720,0.011575,0.018781,-0.700214,-0.096889,-0.029153,0.989950
2011-09-26T13:12:15.698689,11730,0.005019,0.016137,-0.705318,-0.095563,-0.028693,0.988743
2011-09-26T13:12:15.708689,11740,-0.001536,0.013493,-0.710423,-0.094237,-0.028233,0.987535
2011-09-26T13:12:15.718689,11750,-0.008091,0.010850,-0.715528,-0.092910,-0.027773,0.986328
2011-09-26T13:12:15.728689,11760,-0.014646,0.008206,-0.720632,-0.091584,-0.027312,0.985120
2011-09-26T13:12:15.738689,11770,-0.021202,0.005563,-0.725737,-0.090258,-0.026852,0.983913
2011-09-26T13:12:15.748689,11780,-0.027757,0.002919,-0.730842,-0.088932,-0.026392,0.982705
2011-09-26T13:12:15.758689,11790,-0.034312,0.000276,-0.735947,-0.087606,-0.025932,0.981498
2011-09-26T13:12:15.768689,11800,-0.040867,-0.002368,-0.741051,-0.086279,-0.025472,0.980290
2011-09-26T13:12:15.778689,11810,-0.061044,-0.018643,-0.743833,-0.084781,-0.026074,0.981471
2011-09-26T13:12:15.788689,11820,-0.082007,-0.035703,-0.746482,-0.083272,-0.026737,0.982790
2011-09-26T13:12:15.798689,11830,-0.102969,-0.052764,-0.749130,-0.081763,-0.027400,0.984108
2011-09-26T13:12:15.808689,11840,-0.123931,-0.069825,-0.751779,-0.080254,-0.028063,0.985427
2011-09-26T13:12:15.818689,11850,-0.144894,-0.086885,-0.754427,-0.078745,-0.028726,0.986746
2011-09-26T13:12:15.828689,11860,-0.165856,-0.103946,-0.757076,-0.077236,-0.029389,0.988064
2011-09-26T13:12:15.838689,11870,-0.186818,-0.121007,-0.759724,-0.075727,-0.030052,0.989383
2011-09-26T13:12:15.848689,11880,-0.207780,-0.138067,-0.762372,-0.074218,-0.030715,0.990702
2011-09-26T13:12:15.858689,11890,-0.228743,-0.155128,-0.765021,-0.072709,-0.031379,0.992020
2011-09-26T13:12:15.868689,11900,-0.249705,-0.172189,-0.767669,-0.071201,-0.032042,0.993339
2011-09-26T13:12:15.878689,11910,-0.215172,-0.169518,-0.756787,-0.068950,-0.031580,0.994848
2011-09-26T13:12:15.888689,11920,-0.177773,-0.165828,-0.745207,-0.066661,-0.031061,0.996367
2011-09-26T13:12:15.898689,11930,-0.140375,-0.162138,-0.733626,-0.064371,-0.030542,0.997885
2011-09-26T13:12:15.908689,11940,-0.102976,-0.158448,-0.722046,-0.062082,-0.030022,0.999404
2011-09-26T13:12:15.918689,11950,-0.065578,-0.154758,-0.710465,-0.059793,-0.029503,1.000923
2011-09-26T13:12:15.928689,11960,-0.028179,-0.151068,-0.698885,-0.057504,-0.028984,1.002441
2011-09-26T13:12:15.938689,11970,0.009219,-0.147379,-0.687304,-0.055215,-0.028464,1.003960
2011-09-26T13:12:15.948689,11980,0.046618,-0.143689,-0.675724,-0.052926,-0.027945,1.005479
2011-09-26T13:12:15.958689,11990,0.084016,-0.139999,-0.664143,-0.050637,-0.027426,1.006997
2011-09-26T13:12:15.968689,12000,0.121415,-0.136309,-0.652563,-0.048348,-0.026906,1.008516
2011-09-26T13:12:15.978689,12010,0.124326,-0.107267,-0.646413,-0.047730,-0.026878,1.008411
2011-09-26T13:12:15.988689,12020,0.125506,-0.076952,-0.640535,-0.047197,-0.026875,1.008224
2011-09-26T13:12:15.998689,12030,0.126685,-0.046637,-0.634658,-0.046663,-0.026872,1.008037
2011-09-26T13:12:16.008689,12040,0.127865,-0.016322,-0.628781,-0.046130,-0.026868,1.007850
2011-09-26T13:12:16.018689,12050,0.129044,0.013993,-0.622903,-0.045597,-0.026865,1.007663
2011-09-26T13:12:16.028689,12060,0.130224,0.044309,-0.617026,-0.045063,-0.026861,1.007476
2011-09-26T13:12:16.038689,12070,0.131404,0.074624,-0.611148,-0.044530,-0.026858,1.007289
2011-09-26T13:12:16.048689,12080,0.132583,0.104939,-0.605271,-0.043996,-0.026855,1.007102
2011-09-26T13:12:16.058689,12090,0.133763,0.135254,-0.599393,-0.043463,-0.026851,1.006915
2011-09-26T13:12:16.068689,12100,0.134942,0.165569,-0.593516,-0.042930,-0.026848,1.006728
2011-09-26T13:12:16.078689,12110,0.136122,0.195884,-0.587638,-0.042396,-0.026845,1.006541
2011-09-26T13:12:16.088689,12120,0.140210,0.185959,-0.548996,-0.042641,-0.027213,1.005592
2011-09-26T13:12:16.098689,12130,0.144479,0.173543,-0.508325,-0.042934,-0.027604,1.004595
2011-09-26T13:12:16.108689,12140,0.148748,0.161127,-0.467655,-0.043227,-0.027995,1.003598
2011-09-26T13:12:16.118689,12150,0.153016,0.148711,-0.426984,-0.043520,-0.028386,1.002602
2011-09-26T13:12:16.128689,12160,0.157285,0.136295,-0.386314,-0.043813,-0.028777,1.001605
2011-09-26T13:12:16.138689,12170,0.161553,0.123879,-0.345643,-0.044106,-0.029168,1.000609
2011-09-26T13:12:16.148689,12180,0.165822,0.111463,-0.304972,-0.044400,-0.029559,0.999612
2011-09-26T13:12:16.158689,12190,0.170090,0.099047,-0.264302,-0.044693,-0.029950,0.998615
2011-09-26T13:12:16.168689,12200,0.174359,0.086631,-0.223631,-0.044986,-0.030341,0.997619
2011-09-26T13:12:16.178689,12210,0.178627,0.074215,-0.182960,-0.045279,-0.030732,0.996622
2011-09-26T13:12:16.188689,12220,0.187523,0.060152,-0.158769,-0.045181,-0.029614,0.996684
2011-09-26T13:12:16.198689,12230,0.196798,0.045954,-0.135928,-0.045052,-0.028373,0.996833
2011-09-26T13:12:16.208689,12240,0.206073,0.031756,-0.113087,-0.044923,-0.027132,0.996982
2011-09-26T13:12:16.218689,12250,0.215348,0.017558,-0.090246,-0.044794,-0.025890,0.997130
2011-09-26T13:12:16.228689,12260,0.224622,0.003360,-0.067405,-0.044664,-0.024649,0.997279
2011-09-26T13:12:16.238689,12270,0.233897,-0.010838,-0.044564,-0.044535,-0.023407,0.997428
2011-09-26T13:12:16.248689,12280,0.243172,-0.025035,-0.021722,-0.044406,-0.022166,0.997576
2011-09-26T13:12:16.258689,12290,0.252447,-0.039233,0.001119,-0.044276,-0.020924,0.997725
2011-09-26T13:12:16.268689,12300,0.261722,-0.053431,0.023960,-0.044147,-0.019683,0.997874
2011-09-26T13:12:16.278689,12310,0.270997,-0.067629,0.046801,-0.044018,-0.018441,0.998022
2011-09-26T13:12:16.288689,12320,0.265925,-0.051520,0.078669,-0.043611,-0.018003,0.997363
2011-09-26T13:12:16.298689,12330,0.259835,-0.033262,0.111176,-0.043184,-0.017622,0.996646
2011-09-26T13:12:16.308689,12340,0.253746,-0.015005,0.143684,-0.042758,-0.017240,0.995929
2011-09-26T13:12:16.318689,12350,0.247656,0.003253,0.176192,-0.042332,-0.016859,0.995212
2011-09-26T13:12:16.328689,12360,0.241567,0.021511,0.208699,-0.041905,-0.016478,0.994495
2011-09-26T13:12:16.338689,12370,0.235477,0.039769,0.241207,-0.041479,-0.016097,0.993779
2011-09-26T13:12:16.348689,12380,0.229388,0.058027,0.273715,-0.041052,-0.015715,0.993062
2011-09-26T13:12:16.358689,12390,0.223298,0.076285,0.306222,-0.040626,-0.015334,0.992345
2011-09-26T13:12:16.368689,12400,0.217209,0.094543,0.338730,-0.040200,-0.014953,0.991628
2011-09-26T13:12:16.378689,12410,0.211119,0.112800,0.371238,-0.039773,-0.014571,0.990911
2011-09-26T13:12:16.388689,12420,0.205030,0.131058,0.403745,-0.039347,-0.014190,0.990194
2011-09-26T13:12:16.398689,12430,0.210354,0.145179,0.457536,-0.039635,-0.013988,0.991087
2011-09-26T13:12:16.408689,12440,0.216312,0.159071,0.512509,-0.039963,-0.013796,0.992069
2011-09-26T13:12:16.418689,12450,0.222271,0.172962,0.567481,-0.040290,-0.013603,0.993052
2011-09-26T13:12:16.428689,12460,0.228229,0.186853,0.622454,-0.040618,-0.013411,0.994034
2011-09-26T13:12:16.438689,12470,0.234187,0.200745,0.677427,-0.040946,-0.013219,0.995016
2011-09-26T13:12:16.448689,12480,0.240145,0.214636,0.732399,-0.041273,-0.013027,0.995998
2011-09-26T13:12:16.458689,12490,0.246104,0.228528,0.787372,-0.041601,-0.012834,0.996980
2011-09-26T13:12:16.468689,12500,0.252062,0.242419,0.842345,-0.041929,-0.012642,0.997962
2011-09-26T13:12:16.478689,12510,0.258020,0.256310,0.897318,-0.042256,-0.012450,0.998945
2011-09-26T13:12:16.488689,12520,0.263978,0.270202,0.952290,-0.042584,-0.012257,0.999927
2011-09-26T13:12:16.498689,12530,0.255567,0.269948,0.985179,-0.042205,-0.010982,1.000375
2011-09-26T13:12:16.508689,12540,0.246296,0.268848,1.016746,-0.041783,-0.009642,1.000792
2011-09-26T13:12:16.518689,12550,0.237024,0.267748,1.048313,-0.041361,-0.008301,1.001208
2011-09-26T13:12:16.528689,12560,0.227753,0.266648,1.079880,-0.040939,-0.006961,1.001625
2011-09-26T13:12:16.538689,12570,0.218481,0.265547,1.111447,-0.040517,-0.005621,1.002041
2011-09-26T13:12:16.548689,12580,0.209210,0.264447,1.143014,-0.040095,-0.004280,1.002458
2011-09-26T13:12:16.558689,12590,0.199938,0.263347,1.174581,-0.039674,-0.002940,1.002875
2011-09-26T13:12:16.568689,12600,0.190667,0.262247,1.206148,-0.039252,-0.001600,1.003291
2011-09-26T13:12:16.578689,12610,0.181395,0.261146,1.237715,-0.038830,-0.000259,1.003708
2011-09-26T13:12:16.588689,12620,0.172124,0.260046,1.269282,-0.038408,0.001081,1.004124
2011-09-26T13:12:16.598689,12630,0.162852,0.258946,1.300849,-0.037986,0.002421,1.004541
2011-09-26T13:12:16.608689,12640,0.147608,0.246473,1.296549,-0.038298,0.002265,1.003634
2011-09-26T13:12:16.618689,12650,0.132031,0.233369,1.290257,-0.038650,0.002026,1.002653
2011-09-26T13:12:16.628689,12660,0.116455,0.220265,1.283966,-0.039003,0.001786,1.001672
2011-09-26T13:12:16.638689,12670,0.100878,0.207161,1.277674,-0.039355,0.001547,1.000691
2011-09-26T13:12:16.648689,12680,0.085302,0.194057,1.271382,-0.039708,0.001308,0.999710
2011-09-26T13:12:16.658689,12690,0.069726,0.180953,1.265091,-0.040060,0.001068,0.998729
2011-09-26T13:12:16.668689,12700,0.054149,0.167849,1.258799,-0.040412,0.000829,0.997748
2011-09-26T13:12:16.678689,12710,0.038573,0.154745,1.252507,-0.040765,0.000589,0.996767
2011-09-26T13:12:16.688689,12720,0.022996,0.141641,1.246216,-0.041117,0.000350,0.995786
2011-09-26T13:12:16.698689,12730,0.007420,0.128537,1.239924,-0.041470,0.000111,0.994805
2011-09-26T13:12:16.708689,12740,0.021185,0.091823,1.237001,-0.041140,-0.000411,0.993359
2011-09-26T13:12:16.718689,12750,0.036915,0.053527,1.234305,-0.040764,-0.000952,0.991880
2011-09-26T13:12:16.728689,12760,0.052646,0.015230,1.231608,-0.040388,-0.001493,0.990402
2011-09-26T13:12:16.738689,12770,0.068376,-0.023066,1.228911,-0.040013,-0.002034,0.988924
2011-09-26T13:12:16.748689,12780,0.084107,-0.061362,1.226214,-0.039637,-0.002575,0.987446
2011-09-26T13:12:16.758689,12790,0.099838,-0.099658,1.223517,-0.039262,-0.003116,0.985968
2011-09-26T13:12:16.768689,12800,0.115568,-0.137954,1.220821,-0.038886,-0.003656,0.984490
2011-09-26T13:12:16.778689,12810,0.131299,-0.176250,1.218124,-0.038510,-0.004197,0.983012
2011-09-26T13:12:16.788689,12820,0.147029,-0.214546,1.215427,-0.038135,-0.004738,0.981534
2011-09-26T13:12:16.798689,12830,0.162760,-0.252843,1.212730,-0.037759,-0.005279,0.980056
2011-09-26T13:12:16.808689,12840,0.144501,-0.270162,1.206555,-0.037349,-0.004771,0.981559
2011-09-26T13:12:16.818689,12850,0.124316,-0.286292,1.200184,-0.036938,-0.004203,0.983231
2011-09-26T13:12:16.828689,12860,0.104131,-0.302423,1.193812,-0.036526,-0.003635,0.984904
2011-09-26T13:12:16.838689,12870,0.083946,-0.318554,1.187440,-0.036115,-0.003067,0.986576
2011-09-26T13:12:16.848689,12880,0.063761,-0.334684,1.181068,-0.035703,-0.002499,0.988249
2011-09-26T13:12:16.858689,12890,0.043577,-0.350815,1.174696,-0.035292,-0.001931,0.989921
2011-09-26T13:12:16.868689,12900,0.023392,-0.366946,1.168324,-0.034880,-0.001363,0.991593
2011-09-26T13:12:16.878689,12910,0.003207,-0.383076,1.161952,-0.034469,-0.000795,0.993266
2011-09-26T13:12:16.888689,12920,-0.016978,-0.399207,1.155580,-0.034057,-0.000227,0.994938
2011-09-26T13:12:16.898689,12930,-0.037163,-0.415338,1.149208,-0.033645,0.000341,0.996611
2011-09-26T13:12:16.908689,12940,-0.057347,-0.431468,1.142836,-0.033234,0.000909,0.998283
2011-09-26T13:12:16.918689,12950,-0.062760,-0.449048,1.117181,-0.032762,0.000021,0.998250
2011-09-26T13:12:16.928689,12960,-0.067327,-0.466710,1.090424,-0.032286,-0.000950,0.998120
2011-09-26T13:12:16.938689,12970,-0.071895,-0.484372,1.063666,-0.031811,-0.001922,0.997990
2011-09-26T13:12:16.948689,12980,-0.076462,-0.502034,1.036909,-0.031335,-0.002893,0.997860
2011-09-26T13:12:16.958689,12990,-0.081030,-0.519696,1.010151,-0.030860,-0.003865,0.997730
2011-09-26T13:12:16.968689,13000,-0.085597,-0.537358,0.983394,-0.030384,-0.004836,0.997600
2011-09-26T13:12:16.978689,13010,-0.090165,-0.555021,0.956636,-0.029909,-0.005808,0.997470
2011-09-26T13:12:16.988689,13020,-0.094732,-0.572683,0.929878,-0.029433,-0.006779,0.997339
2011-09-26T13:12:16.998689,13030,-0.099300,-0.590345,0.903121,-0.028958,-0.007750,0.997209
2011-09-26T13:12:17.008689,13040,-0.103867,-0.608007,0.876363,-0.028482,-0.008722,0.997079
2011-09-26T13:12:17.018689,13050,-0.078927,-0.605953,0.870936,-0.024864,-0.008583,0.997917
2011-09-26T13:12:17.028689,13060,-0.052280,-0.602758,0.866744,-0.021063,-0.008379,0.998810
2011-09-26T13:12:17.038689,13070,-0.025632,-0.599563,0.862552,-0.017263,-0.008176,0.999704
2011-09-26T13:12:17.048689,13080,0.001016,-0.596369,0.858360,-0.013463,-0.007972,1.000597
2011-09-26T13:12:17.058689,13090,0.027664,-0.593174,0.854168,-0.009662,-0.007768,1.001491
2011-09-26T13:12:17.068689,13100,0.054312,-0.589979,0.849975,-0.005862,-0.007565,1.002384
2011-09-26T13:12:17.078689,13110,0.080960,-0.586784,0.845783,-0.002062,-0.007361,1.003277
2011-09-26T13:12:17.088689,13120,0.107608,-0.583589,0.841591,0.001739,-0.007158,1.004171
2011-09-26T13:12:17.098689,13130,0.134256,-0.580394,0.837399,0.005539,-0.006954,1.005064
2011-09-26T13:12:17.108689,13140,0.160904,-0.577199,0.833207,0.009339,-0.006751,1.005958
2011-09-26T13:12:17.118689,13150,0.176656,-0.575601,0.806831,0.010446,-0.006572,1.006133
2011-09-26T13:12:17.128689,13160,0.191758,-0.574099,0.779130,0.011391,-0.006394,1.006265
2011-09-26T13:12:17.138689,13170,0.206860,-0.572596,0.751429,0.012337,-0.006216,1.006397
2011-09-26T13:12:17.148689,13180,0.221962,-0.571093,0.723728,0.013282,-0.006038,1.006528
2011-09-26T13:12:17.158689,13190,0.237064,-0.569591,0.696027,0.014228,-0.005860,1.006660
2011-09-26T13:12:17.168689,13200,0.252165,-0.568088,0.668326,0.015173,-0.005682,1.006792
2011-09-26T13:12:17.178689,13210,0.267267,-0.566586,0.640625,0.016118,-0.005504,1.006924
2011-09-26T13:12:17.188689,13220,0.282369,-0.565083,0.612924,0.017064,-0.005326,1.007056
2011-09-26T13:12:17.198689,13230,0.297471,-0.563581,0.585222,0.018009,-0.005149,1.007188
2011-09-26T13:12:17.208689,13240,0.312572,-0.562078,0.557521,0.018955,-0.004971,1.007320
2011-09-26T13:12:17.218689,13250,0.327674,-0.560576,0.529820,0.019900,-0.004793,1.007452
2011-09-26T13:12:17.228689,13260,0.296418,-0.553018,0.509373,0.020406,-0.005962,1.007999
2011-09-26T13:12:17.238689,13270,0.260966,-0.544911,0.489582,0.020871,-0.007254,1.008583
2011-09-26T13:12:17.248689,13280,0.225514,-0.536805,0.469791,0.021337,-0.008545,1.009168
2011-09-26T13:12:17.258689,13290,0.190063,-0.528699,0.450000,0.021803,-0.009836,1.009753
2011-09-26T13:12:17.268689,13300,0.154611,-0.520593,0.430209,0.022268,-0.011127,1.010337
2011-09-26T13:12:17.278689,13310,0.119160,-0.512486,0.410418,0.022734,-0.012419,1.010922
2011-09-26T13:12:17.288689,13320,0.083708,-0.504380,0.390627,0.023199,-0.013710,1.011507
2011-09-26T13:12:17.298689,13330,0.048256,-0.496274,0.370836,0.023665,-0.015001,1.012091
2011-09-26T13:12:17.308689,13340,0.012805,-0.488168,0.351045,0.024131,-0.016292,1.012676
2011-09-26T13:12:17.318689,13350,-0.022647,-0.480062,0.331254,0.024596,-0.017584,1.013261
2011-09-26T13:12:17.328689,13360,-0.008960,-0.417171,0.330946,0.024228,-0.017007,1.013223
2011-09-26T13:12:17.338689,13370,0.007676,-0.350992,0.331808,0.023809,-0.016318,1.013148
2011-09-26T13:12:17.348689,13380,0.024312,-0.284814,0.332670,0.023390,-0.015630,1.013073
2011-09-26T13:12:17.358689,13390,0.040948,-0.218635,0.333531,0.022971,-0.014941,1.012998
2011-09-26T13:12:17.368689,13400,0.057584,-0.152457,0.334393,0.022552,-0.014252,1.012923
2011-09-26T13:12:17.378689,13410,0.074220,-0.086278,0.335255,0.022133,-0.013563,1.012847
2011-09-26T13:12:17.388689,13420,0.090856,-0.020100,0.336117,0.021715,-0.012875,1.012772
2011-09-26T13:12:17.398689,13430,0.107492,0.046079,0.336978,0.021296,-0.012186,1.012697
