pc_time,ts_ms,gyroX,gyroY,gyroZ,accelX,accelY,accelZ
2011-09-30T11:54:39.239671,0,1.477081,-0.241711,1.094457,-0.039037,0.026267,0.999101
2011-09-30T11:54:39.249671,10,1.431951,-0.266950,1.070161,-0.039203,0.030524,0.999332
2011-09-30T11:54:39.259671,20,1.386822,-0.292189,1.045866,-0.039369,0.034780,0.999562
2011-09-30T11:54:39.269671,30,1.341692,-0.317427,1.021570,-0.039534,0.039037,0.999793
2011-09-30T11:54:39.279671,40,1.296563,-0.342666,0.997275,-0.039700,0.043294,1.000023
2011-09-30T11:54:39.289671,50,1.251433,-0.367905,0.972979,-0.039866,0.047551,1.000254
2011-09-30T11:54:39.299671,60,1.206303,-0.393144,0.948684,-0.040031,0.051808,1.000484
2011-09-30T11:54:39.309671,70,1.161174,-0.418383,0.924388,-0.040197,0.056065,1.000715
2011-09-30T11:54:39.319671,80,1.116044,-0.443622,0.900092,-0.040363,0.060321,1.000945
2011-09-30T11:54:39.329671,90,1.070915,-0.468861,0.875797,-0.040528,0.064578,1.001175
2011-09-30T11:54:39.339671,100,1.025785,-0.494100,0.851501,-0.040694,0.068835,1.001406
2011-09-30T11:54:39.349671,110,0.962741,-0.512328,0.836466,-0.040525,0.066927,1.002550
2011-09-30T11:54:39.359671,120,0.899690,-0.530555,0.821434,-0.040357,0.065017,1.003695
2011-09-30T11:54:39.369671,130,0.836640,-0.548781,0.806402,-0.040188,0.063106,1.004840
2011-09-30T11:54:39.379671,140,0.773590,-0.567007,0.791370,-0.040020,0.061196,1.005985
2011-09-30T11:54:39.389671,150,0.710539,-0.585233,0.776338,-0.039851,0.059286,1.007130
2011-09-30T11:54:39.399671,160,0.647489,-0.603459,0.761306,-0.039683,0.057376,1.008274
2011-09-30T11:54:39.409671,170,0.584439,-0.621686,0.746274,-0.039514,0.055466,1.009419
2011-09-30T11:54:39.419671,180,0.521389,-0.639912,0.731242,-0.039346,0.053556,1.010564
2011-09-30T11:54:39.429671,190,0.458338,-0.658138,0.716210,-0.039177,0.051645,1.011709
2011-09-30T11:54:39.439671,200,0.395288,-0.676364,0.701178,-0.039009,0.049735,1.012853
2011-09-30T11:54:39.449671,210,0.332238,-0.694590,0.686146,-0.038840,0.047825,1.013998
2011-09-30T11:54:39.459671,220,0.315700,-0.694362,0.719406,-0.038142,0.045146,1.011295
2011-09-30T11:54:39.469671,230,0.299981,-0.693809,0.753516,-0.037434,0.042454,1.008525
2011-09-30T11:54:39.479671,240,0.284262,-0.693256,0.787627,-0.036727,0.039762,1.005754
2011-09-30T11:54:39.489671,250,0.268543,-0.692704,0.821737,-0.036019,0.037070,1.002983
2011-09-30T11:54:39.499671,260,0.252824,-0.692151,0.855848,-0.035312,0.034377,1.000212
2011-09-30T11:54:39.509671,270,0.237106,-0.691598,0.889958,-0.034604,0.031685,0.997441
2011-09-30T11:54:39.519671,280,0.221387,-0.691045,0.924069,-0.033896,0.028993,0.994671
2011-09-30T11:54:39.529671,290,0.205668,-0.690492,0.958179,-0.033189,0.026301,0.991900
2011-09-30T11:54:39.539671,300,0.189949,-0.689939,0.992290,-0.032481,0.023608,0.989129
2011-09-30T11:54:39.549671,310,0.174231,-0.689386,1.026400,-0.031774,0.020916,0.986358
2011-09-30T11:54:39.559671,320,0.260098,-0.717933,1.036719,-0.029704,0.022661,0.987319
2011-09-30T11:54:39.569671,330,0.348338,-0.747160,1.046482,-0.027602,0.024509,0.988366
2011-09-30T11:54:39.579671,340,0.436579,-0.776387,1.056246,-0.025500,0.026358,0.989413
2011-09-30T11:54:39.589671,350,0.524819,-0.805615,1.066009,-0.023398,0.028206,0.990460
2011-09-30T11:54:39.599671,360,0.613060,-0.834842,1.075772,-0.021296,0.030054,0.991508
2011-09-30T11:54:39.609671,370,0.701300,-0.864069,1.085535,-0.019194,0.031902,0.992555
2011-09-30T11:54:39.619671,380,0.789541,-0.893296,1.095298,-0.017093,0.033751,0.993602
2011-09-30T11:54:39.629671,390,0.877781,-0.922523,1.105061,-0.014991,0.035599,0.994649
2011-09-30T11:54:39.639671,400,0.966022,-0.951750,1.114824,-0.012889,0.037447,0.995697
2011-09-30T11:54:39.649671,410,1.054197,-0.980965,1.124559,-0.010785,0.039295,0.996744
2011-09-30T11:54:39.659671,420,1.076069,-0.997499,1.105074,-0.006767,0.040134,0.997878
2011-09-30T11:54:39.669671,430,1.097941,-1.014034,1.085589,-0.002748,0.040974,0.999012
2011-09-30T11:54:39.679671,440,1.119814,-1.030568,1.066104,0.001270,0.041814,1.000146
2011-09-30T11:54:39.689671,450,1.141686,-1.047103,1.046619,0.005288,0.042654,1.001280
2011-09-30T11:54:39.699671,460,1.163558,-1.063637,1.027134,0.009307,0.043494,1.002413
2011-09-30T11:54:39.709671,470,1.185430,-1.080172,1.007648,0.013325,0.044333,1.003547
2011-09-30T11:54:39.719671,480,1.207302,-1.096706,0.988163,0.017344,0.045173,1.004681
2011-09-30T11:54:39.729671,490,1.229174,-1.113241,0.968678,0.021362,0.046013,1.005815
2011-09-30T11:54:39.739671,500,1.251046,-1.129775,0.949193,0.025380,0.046853,1.006949
2011-09-30T11:54:39.749671,510,1.272919,-1.146310,0.929708,0.029399,0.047693,1.008083
2011-09-30T11:54:39.759671,520,1.294791,-1.162844,0.910223,0.033417,0.048533,1.009217
2011-09-30T11:54:39.769671,530,1.244863,-1.113143,0.896511,0.036275,0.049470,1.010245
2011-09-30T11:54:39.779671,540,1.194561,-1.063095,0.882829,0.039127,0.050408,1.011273
2011-09-30T11:54:39.789671,550,1.144258,-1.013048,0.869147,0.041979,0.051347,1.012301
2011-09-30T11:54:39.799671,560,1.093956,-0.963000,0.855465,0.044831,0.052285,1.013328
2011-09-30T11:54:39.809671,570,1.043653,-0.912952,0.841783,0.047683,0.053223,1.014356
2011-09-30T11:54:39.819671,580,0.993351,-0.862905,0.828101,0.050535,0.054161,1.015384
2011-09-30T11:54:39.829671,590,0.943048,-0.812857,0.814420,0.053387,0.055099,1.016412
2011-09-30T11:54:39.839671,600,0.892746,-0.762809,0.800738,0.056239,0.056038,1.017439
2011-09-30T11:54:39.849671,610,0.842443,-0.712762,0.787056,0.059091,0.056976,1.018467
2011-09-30T11:54:39.859671,620,0.792129,-0.662646,0.773402,0.061938,0.057911,1.019493
2011-09-30T11:54:39.869671,630,0.735442,-0.576110,0.774571,0.062138,0.057249,1.019333
2011-09-30T11:54:39.879671,640,0.678755,-0.489574,0.775740,0.062339,0.056587,1.019173
2011-09-30T11:54:39.889671,650,0.622067,-0.403038,0.776910,0.062539,0.055924,1.019013
2011-09-30T11:54:39.899671,660,0.565380,-0.316502,0.778079,0.062740,0.055262,1.018853
2011-09-30T11:54:39.909671,670,0.508693,-0.229966,0.779248,0.062941,0.054600,1.018693
2011-09-30T11:54:39.919671,680,0.452006,-0.143430,0.780417,0.063141,0.053938,1.018534
2011-09-30T11:54:39.929671,690,0.395318,-0.056894,0.781587,0.063342,0.053275,1.018374
2011-09-30T11:54:39.939671,700,0.338631,0.029642,0.782756,0.063543,0.052613,1.018214
2011-09-30T11:54:39.949671,710,0.281944,0.116177,0.783925,0.063743,0.051951,1.018054
2011-09-30T11:54:39.959671,720,0.225257,0.202713,0.785095,0.063944,0.051289,1.017894
2011-09-30T11:54:39.969671,730,0.168569,0.289249,0.786264,0.064144,0.050626,1.017734
2011-09-30T11:54:39.979671,740,0.173125,0.249226,0.772536,0.063724,0.050454,1.015815
2011-09-30T11:54:39.989671,750,0.178740,0.207012,0.758551,0.063294,0.050290,1.013865
2011-09-30T11:54:39.999671,760,0.184355,0.164798,0.744565,0.062863,0.050127,1.011915
2011-09-30T11:54:40.009671,770,0.189971,0.122584,0.730580,0.062433,0.049963,1.009965
2011-09-30T11:54:40.019671,780,0.195586,0.080371,0.716594,0.062002,0.049799,1.008016
2011-09-30T11:54:40.029671,790,0.201202,0.038157,0.702609,0.061571,0.049635,1.006066
2011-09-30T11:54:40.039671,800,0.206817,-0.004057,0.688623,0.061141,0.049472,1.004116
2011-09-30T11:54:40.049671,810,0.212432,-0.046271,0.674638,0.060710,0.049308,1.002166
2011-09-30T11:54:40.059671,820,0.218048,-0.088485,0.660652,0.060279,0.049144,1.000216
2011-09-30T11:54:40.069671,830,0.223663,-0.130699,0.646667,0.059849,0.048980,0.998266
2011-09-30T11:54:40.079671,840,0.180840,-0.234030,0.654223,0.060458,0.049433,0.996295
2011-09-30T11:54:40.089671,850,0.137969,-0.337423,0.661801,0.061068,0.049886,0.994323
2011-09-30T11:54:40.099671,860,0.095097,-0.440816,0.669379,0.061678,0.050339,0.992352
2011-09-30T11:54:40.109671,870,0.052225,-0.544208,0.676957,0.062288,0.050791,0.990380
2011-09-30T11:54:40.119671,880,0.009354,-0.647601,0.684535,0.062898,0.051244,0.988408
2011-09-30T11:54:40.129671,890,-0.033518,-0.750994,0.692112,0.063508,0.051697,0.986437
2011-09-30T11:54:40.139671,900,-0.076390,-0.854386,0.699690,0.064118,0.052150,0.984465
2011-09-30T11:54:40.149671,910,-0.119261,-0.957779,0.707268,0.064728,0.052603,0.982494
2011-09-30T11:54:40.159671,920,-0.162133,-1.061172,0.714846,0.065339,0.053056,0.980522
2011-09-30T11:54:40.169671,930,-0.205005,-1.164564,0.722424,0.065949,0.053509,0.978550
2011-09-30T11:54:40.179671,940,-0.247933,-1.267894,0.729976,0.066561,0.053960,0.976582
2011-09-30T11:54:40.189671,950,-0.313450,-1.346092,0.727439,0.067935,0.053719,0.975810
2011-09-30T11:54:40.199671,960,-0.378967,-1.424290,0.724901,0.069309,0.053478,0.975039
2011-09-30T11:54:40.209671,970,-0.444484,-1.502489,0.722364,0.070683,0.053237,0.974267
2011-09-30T11:54:40.219671,980,-0.510001,-1.580687,0.719826,0.072058,0.052995,0.973495
2011-09-30T11:54:40.229671,990,-0.575518,-1.658885,0.717289,0.073432,0.052754,0.972724
2011-09-30T11:54:40.239671,1000,-0.641035,-1.737083,0.714751,0.074806,0.052513,0.971952
2011-09-30T11:54:40.249671,1010,-0.706552,-1.815281,0.712214,0.076181,0.052272,0.971181
2011-09-30T11:54:40.259671,1020,-0.772069,-1.893479,0.709676,0.077555,0.052030,0.970409
2011-09-30T11:54:40.269671,1030,-0.837586,-1.971677,0.707139,0.078929,0.051789,0.969637
2011-09-30T11:54:40.279671,1040,-0.902854,-2.049615,0.704603,0.080305,0.051545,0.968877
2011-09-30T11:54:40.289671,1050,-0.892678,-2.049024,0.702685,0.082310,0.050362,0.971512
2011-09-30T11:54:40.299671,1060,-0.882503,-2.048433,0.700767,0.084315,0.049179,0.974146
2011-09-30T11:54:40.309671,1070,-0.872327,-2.047842,0.698850,0.086320,0.047996,0.976780
2011-09-30T11:54:40.319671,1080,-0.862151,-2.047251,0.696932,0.088325,0.046813,0.979415
2011-09-30T11:54:40.329671,1090,-0.851976,-2.046660,0.695014,0.090330,0.045630,0.982049
2011-09-30T11:54:40.339671,1100,-0.841800,-2.046069,0.693096,0.092335,0.044446,0.984684
2011-09-30T11:54:40.349671,1110,-0.831624,-2.045478,0.691178,0.094340,0.043263,0.987318
2011-09-30T11:54:40.359671,1120,-0.821448,-2.044887,0.689260,0.096345,0.042080,0.989953
2011-09-30T11:54:40.369671,1130,-0.811273,-2.044296,0.687342,0.098350,0.040897,0.992587
2011-09-30T11:54:40.379671,1140,-0.801141,-2.043284,0.685434,0.100356,0.039719,0.995227
2011-09-30T11:54:40.389671,1150,-0.808553,-1.873903,0.687533,0.102796,0.040611,0.999859
2011-09-30T11:54:40.399671,1160,-0.815964,-1.704521,0.689632,0.105235,0.041502,1.004490
2011-09-30T11:54:40.409671,1170,-0.823376,-1.535140,0.691731,0.107675,0.042393,1.009122
2011-09-30T11:54:40.419671,1180,-0.830788,-1.365759,0.693830,0.110114,0.043284,1.013754
2011-09-30T11:54:40.429671,1190,-0.838200,-1.196377,0.695929,0.112554,0.044176,1.018386
2011-09-30T11:54:40.439671,1200,-0.845612,-1.026996,0.698028,0.114993,0.045067,1.023018
2011-09-30T11:54:40.449671,1210,-0.853024,-0.857615,0.700127,0.117433,0.045958,1.027650
2011-09-30T11:54:40.459671,1220,-0.860436,-0.688233,0.702227,0.119873,0.046849,1.032282
2011-09-30T11:54:40.469671,1230,-0.867847,-0.518852,0.704326,0.122312,0.047740,1.036914
2011-09-30T11:54:40.479671,1240,-0.875259,-0.349470,0.706425,0.124752,0.048632,1.041545
2011-09-30T11:54:40.489671,1250,-0.882671,-0.180089,0.708524,0.127191,0.049523,1.046177
2011-09-30T11:54:40.499671,1260,-0.918327,0.149815,0.694218,0.128276,0.049096,1.047454
2011-09-30T11:54:40.509671,1270,-0.954116,0.480479,0.679835,0.129354,0.048664,1.048714
2011-09-30T11:54:40.519671,1280,-0.989905,0.811143,0.665452,0.130431,0.048231,1.049974
2011-09-30T11:54:40.529671,1290,-1.025694,1.141808,0.651069,0.131509,0.047798,1.051235
2011-09-30T11:54:40.539671,1300,-1.061484,1.472472,0.636686,0.132587,0.047366,1.052495
2011-09-30T11:54:40.549671,1310,-1.097273,1.803136,0.622302,0.133665,0.046933,1.053755
2011-09-30T11:54:40.559671,1320,-1.133062,2.133800,0.607919,0.134743,0.046500,1.055016
2011-09-30T11:54:40.569671,1330,-1.168851,2.464464,0.593536,0.135821,0.046067,1.056276
2011-09-30T11:54:40.579671,1340,-1.204641,2.795128,0.579153,0.136899,0.045635,1.057536
2011-09-30T11:54:40.589671,1350,-1.240216,3.125479,0.564770,0.137968,0.045200,1.058784
2011-09-30T11:54:40.599671,1360,-1.190078,3.330191,0.550239,0.135615,0.044229,1.054716
2011-09-30T11:54:40.609671,1370,-1.139941,3.534903,0.535709,0.133262,0.043258,1.050649
2011-09-30T11:54:40.619671,1380,-1.089803,3.739614,0.521179,0.130908,0.042287,1.046581
2011-09-30T11:54:40.629671,1390,-1.039665,3.944326,0.506648,0.128555,0.041316,1.042514
2011-09-30T11:54:40.639671,1400,-0.989527,4.149038,0.492118,0.126202,0.040345,1.038446
2011-09-30T11:54:40.649671,1410,-0.939390,4.353750,0.477588,0.123848,0.039374,1.034379
2011-09-30T11:54:40.659671,1420,-0.889252,4.558462,0.463057,0.121495,0.038403,1.030311
2011-09-30T11:54:40.669671,1430,-0.839114,4.763174,0.448527,0.119142,0.037432,1.026244
2011-09-30T11:54:40.679671,1440,-0.788977,4.967886,0.433997,0.116788,0.036461,1.022176
2011-09-30T11:54:40.689671,1450,-0.738839,5.172598,0.419467,0.114435,0.035490,1.018109
2011-09-30T11:54:40.699671,1460,-0.688821,5.375879,0.404990,0.112084,0.034525,1.014041
2011-09-30T11:54:40.709671,1470,-0.668126,5.229701,0.403679,0.110291,0.035058,1.009931
2011-09-30T11:54:40.719671,1480,-0.647432,5.083522,0.402367,0.108498,0.035591,1.005821
2011-09-30T11:54:40.729671,1490,-0.626737,4.937343,0.401056,0.106705,0.036124,1.001710
2011-09-30T11:54:40.739671,1500,-0.606042,4.791165,0.399745,0.104913,0.036656,0.997600
2011-09-30T11:54:40.749671,1510,-0.585347,4.644986,0.398433,0.103120,0.037189,0.993490
2011-09-30T11:54:40.759671,1520,-0.564652,4.498808,0.397122,0.101327,0.037722,0.989380
2011-09-30T11:54:40.769671,1530,-0.543957,4.352629,0.395811,0.099534,0.038255,0.985269
2011-09-30T11:54:40.779671,1540,-0.523262,4.206450,0.394499,0.097741,0.038787,0.981159
2011-09-30T11:54:40.789671,1550,-0.502568,4.060272,0.393188,0.095948,0.039320,0.977049
2011-09-30T11:54:40.799671,1560,-0.482170,3.913481,0.391961,0.094163,0.039852,0.972912
2011-09-30T11:54:40.809671,1570,-0.560500,3.563526,0.418653,0.094750,0.040241,0.960072
2011-09-30T11:54:40.819671,1580,-0.638829,3.213571,0.445346,0.095337,0.040630,0.947231
2011-09-30T11:54:40.829671,1590,-0.717159,2.863616,0.472038,0.095924,0.041019,0.934391
2011-09-30T11:54:40.839671,1600,-0.795488,2.513661,0.498731,0.096511,0.041408,0.921550
2011-09-30T11:54:40.849671,1610,-0.873818,2.163706,0.525423,0.097098,0.041797,0.908710
2011-09-30T11:54:40.859671,1620,-0.952147,1.813751,0.552116,0.097686,0.042186,0.895869
2011-09-30T11:54:40.869671,1630,-1.030477,1.463796,0.578809,0.098273,0.042575,0.883029
2011-09-30T11:54:40.879671,1640,-1.108806,1.113840,0.605501,0.098860,0.042965,0.870188
2011-09-30T11:54:40.889671,1650,-1.187136,0.763885,0.632194,0.099447,0.043354,0.857348
2011-09-30T11:54:40.899671,1660,-1.265297,0.413937,0.658799,0.100040,0.043740,0.844548
2011-09-30T11:54:40.909671,1670,-1.262258,0.067111,0.643443,0.103193,0.042698,0.851258
2011-09-30T11:54:40.919671,1680,-1.259219,-0.279714,0.628088,0.106347,0.041656,0.857969
2011-09-30T11:54:40.929671,1690,-1.256180,-0.626539,0.612732,0.109500,0.040614,0.864679
2011-09-30T11:54:40.939671,1700,-1.253141,-0.973364,0.597376,0.112654,0.039572,0.871389
2011-09-30T11:54:40.949671,1710,-1.250102,-1.320189,0.582021,0.115808,0.038531,0.878100
2011-09-30T11:54:40.959671,1720,-1.247063,-1.667015,0.566665,0.118961,0.037489,0.884810
2011-09-30T11:54:40.969671,1730,-1.244025,-2.013840,0.551309,0.122115,0.036447,0.891521
2011-09-30T11:54:40.979671,1740,-1.240986,-2.360665,0.535954,0.125268,0.035405,0.898231
2011-09-30T11:54:40.989671,1750,-1.237947,-2.707490,0.520598,0.128422,0.034364,0.904941
2011-09-30T11:54:40.999671,1760,-1.234908,-3.054316,0.505242,0.131575,0.033322,0.911652
2011-09-30T11:54:41.009671,1770,-1.231869,-3.401141,0.489887,0.134729,0.032280,0.918362
2011-09-30T11:54:41.019671,1780,-1.087088,-3.454252,0.496731,0.136728,0.029009,0.929542
2011-09-30T11:54:41.029671,1790,-0.942023,-3.506773,0.503619,0.138724,0.025733,0.940732
2011-09-30T11:54:41.039671,1800,-0.796957,-3.559295,0.510507,0.140720,0.022458,0.951922
2011-09-30T11:54:41.049671,1810,-0.651892,-3.611817,0.517396,0.142717,0.019182,0.963111
2011-09-30T11:54:41.059671,1820,-0.506826,-3.664338,0.524284,0.144713,0.015907,0.974301
2011-09-30T11:54:41.069671,1830,-0.361761,-3.716860,0.531173,0.146709,0.012631,0.985490
2011-09-30T11:54:41.079671,1840,-0.216695,-3.769382,0.538061,0.148706,0.009356,0.996680
2011-09-30T11:54:41.089671,1850,-0.071630,-3.821903,0.544949,0.150702,0.006080,1.007869
2011-09-30T11:54:41.099671,1860,0.073435,-3.874425,0.551838,0.152698,0.002805,1.019059
2011-09-30T11:54:41.109671,1870,0.218102,-3.923915,0.558721,0.154703,-0.000426,1.030245
2011-09-30T11:54:41.119671,1880,0.305243,-3.536042,0.564837,0.157855,0.002848,1.040909
2011-09-30T11:54:41.129671,1890,0.392384,-3.148170,0.570954,0.161007,0.006121,1.051574
2011-09-30T11:54:41.139671,1900,0.479525,-2.760297,0.577071,0.164159,0.009395,1.062238
2011-09-30T11:54:41.149671,1910,0.566666,-2.372425,0.583187,0.167311,0.012668,1.072903
2011-09-30T11:54:41.159671,1920,0.653808,-1.984552,0.589304,0.170464,0.015942,1.083567
2011-09-30T11:54:41.169671,1930,0.740949,-1.596680,0.595421,0.173616,0.019215,1.094232
2011-09-30T11:54:41.179671,1940,0.828090,-1.208807,0.601537,0.176768,0.022489,1.104897
2011-09-30T11:54:41.189671,1950,0.915231,-0.820934,0.607654,0.179920,0.025762,1.115561
2011-09-30T11:54:41.199671,1960,1.002372,-0.433062,0.613770,0.183072,0.029036,1.126226
2011-09-30T11:54:41.209671,1970,1.089513,-0.045189,0.619887,0.186224,0.032309,1.136890
2011-09-30T11:54:41.219671,1980,1.175929,0.342863,0.625802,0.189349,0.035575,1.147463
2011-09-30T11:54:41.229671,1990,1.105149,0.769862,0.587986,0.186623,0.037318,1.138218
2011-09-30T11:54:41.239671,2000,1.034369,1.196862,0.550171,0.183897,0.039060,1.128973
2011-09-30T11:54:41.249671,2010,0.963588,1.623862,0.512355,0.181171,0.040803,1.119728
2011-09-30T11:54:41.259671,2020,0.892808,2.050861,0.474540,0.178445,0.042545,1.110482
2011-09-30T11:54:41.269671,2030,0.822027,2.477861,0.436724,0.175718,0.044287,1.101237
2011-09-30T11:54:41.279671,2040,0.751247,2.904861,0.398909,0.172992,0.046030,1.091992
2011-09-30T11:54:41.289671,2050,0.680467,3.331860,0.361093,0.170266,0.047772,1.082747
2011-09-30T11:54:41.299671,2060,0.609686,3.758860,0.323278,0.167540,0.049514,1.073502
2011-09-30T11:54:41.309671,2070,0.538906,4.185859,0.285462,0.164814,0.051257,1.064256
2011-09-30T11:54:41.319671,2080,0.468296,4.611627,0.247742,0.162088,0.052991,1.055003
2011-09-30T11:54:41.329671,2090,0.466052,4.543779,0.248069,0.159564,0.051545,1.042345
2011-09-30T11:54:41.339671,2100,0.463808,4.475932,0.248397,0.157041,0.050099,1.029688
2011-09-30T11:54:41.349671,2110,0.461564,4.408085,0.248724,0.154518,0.048653,1.017031
2011-09-30T11:54:41.359671,2120,0.459320,4.340238,0.249052,0.151994,0.047208,1.004373
2011-09-30T11:54:41.369671,2130,0.457075,4.272390,0.249379,0.149471,0.045762,0.991716
2011-09-30T11:54:41.379671,2140,0.454831,4.204543,0.249707,0.146947,0.044316,0.979059
2011-09-30T11:54:41.389671,2150,0.452587,4.136696,0.250034,0.144424,0.042870,0.966402
2011-09-30T11:54:41.399671,2160,0.450343,4.068849,0.250362,0.141901,0.041424,0.953744
2011-09-30T11:54:41.409671,2170,0.448099,4.001001,0.250689,0.139377,0.039978,0.941087
2011-09-30T11:54:41.419671,2180,0.445855,3.933154,0.251017,0.136854,0.038532,0.928430
2011-09-30T11:54:41.429671,2190,0.443707,3.864292,0.251329,0.134346,0.037088,0.915882
2011-09-30T11:54:41.439671,2200,0.454684,3.657003,0.249495,0.133978,0.035933,0.918265
2011-09-30T11:54:41.449671,2210,0.465661,3.449713,0.247661,0.133610,0.034777,0.920649
2011-09-30T11:54:41.459671,2220,0.476639,3.242423,0.245827,0.133242,0.033622,0.923032
2011-09-30T11:54:41.469671,2230,0.487616,3.035134,0.243993,0.132874,0.032466,0.925415
2011-09-30T11:54:41.479671,2240,0.498594,2.827844,0.242159,0.132506,0.031311,0.927799
2011-09-30T11:54:41.489671,2250,0.509571,2.620554,0.240325,0.132138,0.030155,0.930182
2011-09-30T11:54:41.499671,2260,0.520548,2.413265,0.238492,0.131770,0.028999,0.932565
2011-09-30T11:54:41.509671,2270,0.531526,2.205975,0.236658,0.131402,0.027844,0.934949
2011-09-30T11:54:41.519671,2280,0.542503,1.998685,0.234824,0.131034,0.026688,0.937332
2011-09-30T11:54:41.529671,2290,0.553542,1.791396,0.232976,0.130668,0.025536,0.939710
2011-09-30T11:54:41.539671,2300,0.600637,1.584397,0.222613,0.130894,0.025951,0.938995
2011-09-30T11:54:41.549671,2310,0.647732,1.377399,0.212250,0.131121,0.026366,0.938279
2011-09-30T11:54:41.559671,2320,0.694827,1.170400,0.201887,0.131348,0.026781,0.937563
2011-09-30T11:54:41.569671,2330,0.741923,0.963402,0.191524,0.131574,0.027197,0.936847
2011-09-30T11:54:41.579671,2340,0.789018,0.756403,0.181161,0.131801,0.027612,0.936131
2011-09-30T11:54:41.589671,2350,0.836113,0.549404,0.170798,0.132028,0.028027,0.935415
2011-09-30T11:54:41.599671,2360,0.883209,0.342406,0.160435,0.132255,0.028443,0.934699
2011-09-30T11:54:41.609671,2370,0.930304,0.135407,0.150072,0.132481,0.028858,0.933984
2011-09-30T11:54:41.619671,2380,0.977399,-0.071591,0.139709,0.132708,0.029273,0.933268
2011-09-30T11:54:41.629671,2390,1.023717,-0.277785,0.129240,0.132940,0.029696,0.932592
2011-09-30T11:54:41.639671,2400,0.957961,-0.367870,0.103546,0.133913,0.031232,0.937752
2011-09-30T11:54:41.649671,2410,0.892205,-0.457955,0.077852,0.134887,0.032768,0.942911
2011-09-30T11:54:41.659671,2420,0.826449,-0.548039,0.052158,0.135860,0.034304,0.948071
2011-09-30T11:54:41.669671,2430,0.760693,-0.638124,0.026464,0.136833,0.035840,0.953230
2011-09-30T11:54:41.679671,2440,0.694937,-0.728209,0.000770,0.137807,0.037376,0.958389
2011-09-30T11:54:41.689671,2450,0.629181,-0.818294,-0.024924,0.138780,0.038913,0.963549
2011-09-30T11:54:41.699671,2460,0.563425,-0.908379,-0.050618,0.139753,0.040449,0.968708
2011-09-30T11:54:41.709671,2470,0.497669,-0.998464,-0.076312,0.140727,0.041985,0.973868
2011-09-30T11:54:41.719671,2480,0.431913,-1.088548,-0.102006,0.141700,0.043521,0.979027
2011-09-30T11:54:41.729671,2490,0.366157,-1.178633,-0.127700,0.142673,0.045057,0.984187
2011-09-30T11:54:41.739671,2500,0.300099,-1.268619,-0.153354,0.143637,0.046582,0.989334
2011-09-30T11:54:41.749671,2510,0.170045,-1.337629,-0.170501,0.142512,0.045782,0.991964
2011-09-30T11:54:41.759671,2520,0.039990,-1.406638,-0.187648,0.141387,0.044982,0.994595
2011-09-30T11:54:41.769671,2530,-0.090064,-1.475648,-0.204795,0.140262,0.044182,0.997225
2011-09-30T11:54:41.779671,2540,-0.220118,-1.544658,-0.221941,0.139138,0.043381,0.999855
2011-09-30T11:54:41.789671,2550,-0.350173,-1.613667,-0.239088,0.138013,0.042581,1.002485
2011-09-30T11:54:41.799671,2560,-0.480227,-1.682677,-0.256235,0.136888,0.041781,1.005115
2011-09-30T11:54:41.809671,2570,-0.610282,-1.751687,-0.273382,0.135763,0.040981,1.007745
2011-09-30T11:54:41.819671,2580,-0.740336,-1.820696,-0.290529,0.134638,0.040181,1.010376
2011-09-30T11:54:41.829671,2590,-0.870391,-1.889706,-0.307676,0.133513,0.039381,1.013006
2011-09-30T11:54:41.839671,2600,-0.998551,-1.958763,-0.324795,0.132394,0.038563,1.015629
2011-09-30T11:54:41.849671,2610,-0.801177,-2.035974,-0.337135,0.132166,0.034589,1.017084
2011-09-30T11:54:41.859671,2620,-0.603803,-2.113185,-0.349474,0.131939,0.030615,1.018540
2011-09-30T11:54:41.869671,2630,-0.406430,-2.190396,-0.361814,0.131711,0.026642,1.019995
2011-09-30T11:54:41.879671,2640,-0.209056,-2.267607,-0.374154,0.131484,0.022668,1.021451
2011-09-30T11:54:41.889671,2650,-0.011683,-2.344818,-0.386493,0.131256,0.018695,1.022906
2011-09-30T11:54:41.899671,2660,0.185691,-2.422028,-0.398833,0.131029,0.014721,1.024362
2011-09-30T11:54:41.909671,2670,0.383064,-2.499239,-0.411172,0.130801,0.010748,1.025817
2011-09-30T11:54:41.919671,2680,0.580438,-2.576450,-0.423512,0.130573,0.006774,1.027273
2011-09-30T11:54:41.929671,2690,0.777811,-2.653661,-0.435851,0.130346,0.002800,1.028728
2011-09-30T11:54:41.939671,2700,0.975185,-2.730872,-0.448191,0.130118,-0.001173,1.030183
2011-09-30T11:54:41.949671,2710,1.172558,-2.808083,-0.460531,0.129891,-0.005147,1.031639
2011-09-30T11:54:41.959671,2720,1.208828,-2.848217,-0.446894,0.131044,-0.002137,1.030868
2011-09-30T11:54:41.969671,2730,1.244967,-2.888321,-0.433237,0.132198,0.000878,1.030095
2011-09-30T11:54:41.979671,2740,1.281106,-2.928425,-0.419579,0.133352,0.003893,1.029322
2011-09-30T11:54:41.989671,2750,1.317246,-2.968529,-0.405922,0.134506,0.006908,1.028549
2011-09-30T11:54:41.999671,2760,1.353385,-3.008633,-0.392265,0.135660,0.009923,1.027776
2011-09-30T11:54:42.009671,2770,1.389525,-3.048738,-0.378607,0.136814,0.012939,1.027003
2011-09-30T11:54:42.019671,2780,1.425664,-3.088842,-0.364950,0.137968,0.015954,1.026230
2011-09-30T11:54:42.029671,2790,1.461803,-3.128946,-0.351293,0.139122,0.018969,1.025457
2011-09-30T11:54:42.039671,2800,1.497943,-3.169050,-0.337635,0.140276,0.021984,1.024684
2011-09-30T11:54:42.049671,2810,1.534082,-3.209154,-0.323978,0.141430,0.024999,1.023912
2011-09-30T11:54:42.059671,2820,1.352370,-3.196715,-0.341874,0.142140,0.028952,1.026277
2011-09-30T11:54:42.069671,2830,1.169825,-3.184076,-0.359891,0.142848,0.032909,1.028655
2011-09-30T11:54:42.079671,2840,0.987280,-3.171436,-0.377908,0.143557,0.036865,1.031032
2011-09-30T11:54:42.089671,2850,0.804736,-3.158796,-0.395925,0.144265,0.040821,1.033410
2011-09-30T11:54:42.099671,2860,0.622191,-3.146156,-0.413943,0.144973,0.044777,1.035787
2011-09-30T11:54:42.109671,2870,0.439646,-3.133516,-0.431960,0.145682,0.048734,1.038165
2011-09-30T11:54:42.119671,2880,0.257101,-3.120877,-0.449977,0.146390,0.052690,1.040543
2011-09-30T11:54:42.129671,2890,0.074556,-3.108237,-0.467994,0.147099,0.056646,1.042920
2011-09-30T11:54:42.139671,2900,-0.107989,-3.095597,-0.486011,0.147807,0.060603,1.045298
2011-09-30T11:54:42.149671,2910,-0.290533,-3.082957,-0.504028,0.148515,0.064559,1.047675
2011-09-30T11:54:42.159671,2920,-0.472645,-3.069782,-0.521914,0.149220,0.068499,1.050057
2011-09-30T11:54:42.169671,2930,-0.466428,-2.823604,-0.483105,0.148305,0.065186,1.054407
2011-09-30T11:54:42.179671,2940,-0.460212,-2.577426,-0.444296,0.147389,0.061874,1.058757
2011-09-30T11:54:42.189671,2950,-0.453995,-2.331248,-0.405487,0.146474,0.058561,1.063107
2011-09-30T11:54:42.199671,2960,-0.447778,-2.085070,-0.366678,0.145558,0.055249,1.067456
2011-09-30T11:54:42.209671,2970,-0.441561,-1.838893,-0.327869,0.144643,0.051936,1.071806
2011-09-30T11:54:42.219671,2980,-0.435345,-1.592715,-0.289060,0.143727,0.048624,1.076156
2011-09-30T11:54:42.229671,2990,-0.429128,-1.346537,-0.250251,0.142812,0.045312,1.080505
2011-09-30T11:54:42.239671,3000,-0.422911,-1.100359,-0.211442,0.141896,0.041999,1.084855
2011-09-30T11:54:42.249671,3010,-0.416694,-0.854181,-0.172632,0.140981,0.038687,1.089205
2011-09-30T11:54:42.259671,3020,-0.410340,-0.609607,-0.133986,0.140068,0.035404,1.093459
2011-09-30T11:54:42.269671,3030,-0.389826,-0.530511,-0.112085,0.139497,0.035158,1.087851
2011-09-30T11:54:42.279671,3040,-0.369311,-0.451415,-0.090184,0.138926,0.034913,1.082244
2011-09-30T11:54:42.289671,3050,-0.348796,-0.372319,-0.068283,0.138354,0.034667,1.076636
2011-09-30T11:54:42.299671,3060,-0.328281,-0.293223,-0.046383,0.137783,0.034421,1.071028
2011-09-30T11:54:42.309671,3070,-0.307766,-0.214127,-0.024482,0.137212,0.034176,1.065421
2011-09-30T11:54:42.319671,3080,-0.287252,-0.135030,-0.002581,0.136641,0.033930,1.059813
2011-09-30T11:54:42.329671,3090,-0.266737,-0.055934,0.019320,0.136069,0.033685,1.054205
2011-09-30T11:54:42.339671,3100,-0.246222,0.023162,0.041220,0.135498,0.033439,1.048598
2011-09-30T11:54:42.349671,3110,-0.225707,0.102258,0.063121,0.134927,0.033193,1.042990
2011-09-30T11:54:42.359671,3120,-0.205732,0.180088,0.084813,0.134344,0.032963,1.037378
2011-09-30T11:54:42.369671,3130,-0.255375,0.094600,0.079548,0.132356,0.034665,1.031251
2011-09-30T11:54:42.379671,3140,-0.305018,0.009113,0.074283,0.130367,0.036367,1.025124
2011-09-30T11:54:42.389671,3150,-0.354661,-0.076375,0.069018,0.128379,0.038069,1.018997
2011-09-30T11:54:42.399671,3160,-0.404304,-0.161863,0.063753,0.126390,0.039771,1.012870
2011-09-30T11:54:42.409671,3170,-0.453948,-0.247351,0.058488,0.124402,0.041473,1.006743
2011-09-30T11:54:42.419671,3180,-0.503591,-0.332838,0.053223,0.122414,0.043175,1.000615
2011-09-30T11:54:42.429671,3190,-0.553234,-0.418326,0.047958,0.120425,0.044877,0.994488
2011-09-30T11:54:42.439671,3200,-0.602877,-0.503814,0.042694,0.118437,0.046579,0.988361
2011-09-30T11:54:42.449671,3210,-0.652520,-0.589301,0.037429,0.116448,0.048281,0.982234
2011-09-30T11:54:42.459671,3220,-0.702163,-0.674789,0.032164,0.114460,0.049983,0.976107
2011-09-30T11:54:42.469671,3230,-0.751806,-0.760277,0.026899,0.112471,0.051685,0.969980
2011-09-30T11:54:42.479671,3240,-0.822689,-0.791678,0.020615,0.112570,0.051198,0.972558
2011-09-30T11:54:42.489671,3250,-0.893702,-0.822748,0.014326,0.112681,0.050698,0.975190
2011-09-30T11:54:42.499671,3260,-0.964715,-0.853817,0.008036,0.112793,0.050197,0.977821
2011-09-30T11:54:42.509671,3270,-1.035728,-0.884887,0.001746,0.112904,0.049697,0.980453
2011-09-30T11:54:42.519671,3280,-1.106741,-0.915956,-0.004543,0.113015,0.049196,0.983085
2011-09-30T11:54:42.529671,3290,-1.177754,-0.947026,-0.010833,0.113127,0.048696,0.985716
2011-09-30T11:54:42.539671,3300,-1.248767,-0.978095,-0.017123,0.113238,0.048195,0.988348
2011-09-30T11:54:42.549671,3310,-1.319780,-1.009164,-0.023412,0.113350,0.047694,0.990980
2011-09-30T11:54:42.559671,3320,-1.390793,-1.040234,-0.029702,0.113461,0.047194,0.993611
2011-09-30T11:54:42.569671,3330,-1.461622,-1.070848,-0.035903,0.113564,0.046689,0.996251
2011-09-30T11:54:42.579671,3340,-1.498427,-1.017589,-0.025711,0.112163,0.045343,1.000306
2011-09-30T11:54:42.589671,3350,-1.535231,-0.964330,-0.015519,0.110761,0.043997,1.004361
2011-09-30T11:54:42.599671,3360,-1.572036,-0.911070,-0.005327,0.109359,0.042651,1.008416
2011-09-30T11:54:42.609671,3370,-1.608841,-0.857811,0.004865,0.107957,0.041304,1.012471
2011-09-30T11:54:42.619671,3380,-1.645646,-0.804552,0.015057,0.106555,0.039958,1.016526
2011-09-30T11:54:42.629671,3390,-1.682451,-0.751292,0.025249,0.105154,0.038612,1.020581
2011-09-30T11:54:42.639671,3400,-1.719255,-0.698033,0.035440,0.103752,0.037266,1.024636
2011-09-30T11:54:42.649671,3410,-1.756060,-0.644773,0.045632,0.102350,0.035920,1.028691
2011-09-30T11:54:42.659671,3420,-1.792865,-0.591514,0.055824,0.100948,0.034574,1.032746
2011-09-30T11:54:42.669671,3430,-1.829670,-0.538255,0.066016,0.099547,0.033228,1.036801
2011-09-30T11:54:42.679671,3440,-1.865634,-0.485036,0.076072,0.098147,0.031881,1.040813
2011-09-30T11:54:42.689671,3450,-1.794466,-0.436959,0.068809,0.097023,0.030487,1.039394
2011-09-30T11:54:42.699671,3460,-1.723298,-0.388882,0.061547,0.095899,0.029094,1.037974
2011-09-30T11:54:42.709671,3470,-1.652130,-0.340806,0.054284,0.094775,0.027700,1.036554
2011-09-30T11:54:42.719671,3480,-1.580963,-0.292729,0.047022,0.093651,0.026306,1.035135
2011-09-30T11:54:42.729671,3490,-1.509795,-0.244652,0.039759,0.092526,0.024912,1.033715
2011-09-30T11:54:42.739671,3500,-1.438627,-0.196575,0.032496,0.091402,0.023518,1.032296
2011-09-30T11:54:42.749671,3510,-1.367459,-0.148499,0.025234,0.090278,0.022124,1.030876
2011-09-30T11:54:42.759671,3520,-1.296292,-0.100422,0.017971,0.089154,0.020730,1.029457
2011-09-30T11:54:42.769671,3530,-1.225124,-0.052345,0.010709,0.088030,0.019336,1.028037
2011-09-30T11:54:42.779671,3540,-1.154012,-0.004538,0.003537,0.086905,0.017951,1.026608
2011-09-30T11:54:42.789671,3550,-1.092419,-0.002308,0.011788,0.085640,0.018052,1.023458
2011-09-30T11:54:42.799671,3560,-1.030825,-0.000077,0.020038,0.084375,0.018154,1.020308
2011-09-30T11:54:42.809671,3570,-0.969232,0.002153,0.028289,0.083110,0.018255,1.017158
2011-09-30T11:54:42.819671,3580,-0.907638,0.004384,0.036539,0.081845,0.018357,1.014008
2011-09-30T11:54:42.829671,3590,-0.846044,0.006614,0.044790,0.080580,0.018458,1.010858
2011-09-30T11:54:42.839671,3600,-0.784451,0.008845,0.053040,0.079315,0.018560,1.007708
2011-09-30T11:54:42.849671,3610,-0.722857,0.011075,0.061291,0.078050,0.018661,1.004558
2011-09-30T11:54:42.859671,3620,-0.661263,0.013306,0.069541,0.076785,0.018763,1.001408
2011-09-30T11:54:42.869671,3630,-0.599670,0.015536,0.077792,0.075520,0.018864,0.998258
2011-09-30T11:54:42.879671,3640,-0.538076,0.017767,0.086042,0.074255,0.018966,0.995108
2011-09-30T11:54:42.889671,3650,-0.476672,0.019978,0.094265,0.072998,0.019069,0.991991
2011-09-30T11:54:42.899671,3660,-0.443399,0.019330,0.098343,0.072911,0.019458,0.993741
2011-09-30T11:54:42.909671,3670,-0.410126,0.018682,0.102422,0.072824,0.019847,0.995492
2011-09-30T11:54:42.919671,3680,-0.376853,0.018034,0.106500,0.072737,0.020235,0.997242
2011-09-30T11:54:42.929671,3690,-0.343581,0.017386,0.110578,0.072650,0.020624,0.998992
2011-09-30T11:54:42.939671,3700,-0.310308,0.016738,0.114657,0.072563,0.021013,1.000742
2011-09-30T11:54:42.949671,3710,-0.277035,0.016090,0.118735,0.072476,0.021402,1.002493
2011-09-30T11:54:42.959671,3720,-0.243762,0.015442,0.122813,0.072390,0.021790,1.004243
2011-09-30T11:54:42.969671,3730,-0.210489,0.014794,0.126892,0.072303,0.022179,1.005993
2011-09-30T11:54:42.979671,3740,-0.177216,0.014146,0.130970,0.072216,0.022568,1.007743
2011-09-30T11:54:42.989671,3750,-0.143943,0.013498,0.135048,0.072129,0.022957,1.009494
2011-09-30T11:54:42.999671,3760,-0.171573,0.066356,0.142952,0.072324,0.023805,1.008727
2011-09-30T11:54:43.009671,3770,-0.200162,0.120056,0.150917,0.072524,0.024660,1.007921
2011-09-30T11:54:43.019671,3780,-0.228751,0.173756,0.158881,0.072723,0.025515,1.007115
2011-09-30T11:54:43.029671,3790,-0.257341,0.227456,0.166845,0.072922,0.026370,1.006309
2011-09-30T11:54:43.039671,3800,-0.285930,0.281156,0.174810,0.073122,0.027225,1.005503
2011-09-30T11:54:43.049671,3810,-0.314519,0.334855,0.182774,0.073321,0.028080,1.004697
2011-09-30T11:54:43.059671,3820,-0.343108,0.388555,0.190739,0.073521,0.028935,1.003891
2011-09-30T11:54:43.069671,3830,-0.371697,0.442255,0.198703,0.073720,0.029790,1.003085
2011-09-30T11:54:43.079671,3840,-0.400286,0.495955,0.206667,0.073920,0.030645,1.002279
2011-09-30T11:54:43.089671,3850,-0.428604,0.549529,0.214515,0.074118,0.031493,1.001470
2011-09-30T11:54:43.099671,3860,-0.428337,0.589842,0.210119,0.074217,0.031619,1.000286
2011-09-30T11:54:43.109671,3870,-0.428070,0.630154,0.205722,0.074317,0.031745,0.999102
2011-09-30T11:54:43.119671,3880,-0.427803,0.670466,0.201325,0.074416,0.031871,0.997918
2011-09-30T11:54:43.129671,3890,-0.427536,0.710778,0.196928,0.074516,0.031996,0.996734
2011-09-30T11:54:43.139671,3900,-0.427269,0.751090,0.192531,0.074615,0.032122,0.995550
2011-09-30T11:54:43.149671,3910,-0.427003,0.791402,0.188134,0.074714,0.032248,0.994366
2011-09-30T11:54:43.159671,3920,-0.426736,0.831714,0.183737,0.074814,0.032374,0.993182
2011-09-30T11:54:43.169671,3930,-0.426469,0.872027,0.179340,0.074913,0.032500,0.991998
2011-09-30T11:54:43.179671,3940,-0.426202,0.912339,0.174943,0.075013,0.032625,0.990814
2011-09-30T11:54:43.189671,3950,-0.425935,0.952651,0.170546,0.075112,0.032751,0.989630
2011-09-30T11:54:43.199671,3960,-0.425544,0.992331,0.166197,0.075199,0.032872,0.988457
2011-09-30T11:54:43.209671,3970,-0.410964,0.959901,0.167215,0.073877,0.032396,0.988514
2011-09-30T11:54:43.219671,3980,-0.396384,0.927470,0.168233,0.072555,0.031921,0.988572
2011-09-30T11:54:43.229671,3990,-0.381804,0.895040,0.169251,0.071232,0.031445,0.988629
2011-09-30T11:54:43.239671,4000,-0.367224,0.862610,0.170269,0.069910,0.030970,0.988686
2011-09-30T11:54:43.249671,4010,-0.352644,0.830179,0.171286,0.068588,0.030494,0.988743
2011-09-30T11:54:43.259671,4020,-0.338064,0.797749,0.172304,0.067266,0.030019,0.988801
2011-09-30T11:54:43.269671,4030,-0.323484,0.765319,0.173322,0.065944,0.029543,0.988858
2011-09-30T11:54:43.279671,4040,-0.308904,0.732889,0.174340,0.064622,0.029068,0.988915
2011-09-30T11:54:43.289671,4050,-0.294324,0.700458,0.175358,0.063299,0.028592,0.988972
2011-09-30T11:54:43.299671,4060,-0.279677,0.667439,0.176290,0.061994,0.028122,0.989011
2011-09-30T11:54:43.309671,4070,-0.259019,0.581385,0.169430,0.062186,0.028122,0.987406
2011-09-30T11:54:43.319671,4080,-0.238361,0.495331,0.162571,0.062378,0.028122,0.985801
2011-09-30T11:54:43.329671,4090,-0.217703,0.409278,0.155711,0.062570,0.028122,0.984196
2011-09-30T11:54:43.339671,4100,-0.197044,0.323224,0.148852,0.062762,0.028122,0.982591
2011-09-30T11:54:43.349671,4110,-0.176386,0.237170,0.141992,0.062954,0.028122,0.980986
2011-09-30T11:54:43.359671,4120,-0.155728,0.151116,0.135132,0.063146,0.028122,0.979380
2011-09-30T11:54:43.369671,4130,-0.135070,0.065062,0.128273,0.063338,0.028122,0.977775
2011-09-30T11:54:43.379671,4140,-0.114411,-0.020991,0.121413,0.063530,0.028122,0.976170
2011-09-30T11:54:43.389671,4150,-0.093753,-0.107045,0.114554,0.063722,0.028122,0.974565
2011-09-30T11:54:43.399671,4160,-0.073095,-0.193099,0.107694,0.063914,0.028122,0.972960
2011-09-30T11:54:43.409671,4170,-0.052969,-0.278610,0.100895,0.064111,0.028127,0.971385
2011-09-30T11:54:43.419671,4180,-0.094273,-0.301465,0.101047,0.064881,0.028677,0.973356
2011-09-30T11:54:43.429671,4190,-0.135577,-0.324321,0.101198,0.065652,0.029226,0.975328
2011-09-30T11:54:43.439671,4200,-0.176881,-0.347176,0.101350,0.066422,0.029776,0.977299
2011-09-30T11:54:43.449671,4210,-0.218186,-0.370032,0.101502,0.067193,0.030326,0.979270
2011-09-30T11:54:43.459671,4220,-0.259490,-0.392887,0.101654,0.067963,0.030875,0.981241
2011-09-30T11:54:43.469671,4230,-0.300794,-0.415743,0.101805,0.068733,0.031425,0.983212
2011-09-30T11:54:43.479671,4240,-0.342098,-0.438598,0.101957,0.069504,0.031974,0.985183
2011-09-30T11:54:43.489671,4250,-0.383402,-0.461454,0.102109,0.070274,0.032524,0.987154
2011-09-30T11:54:43.499671,4260,-0.424706,-0.484309,0.102261,0.071044,0.033073,0.989125
2011-09-30T11:54:43.509671,4270,-0.465488,-0.506505,0.102429,0.071811,0.033611,0.991110
2011-09-30T11:54:43.519671,4280,-0.411730,-0.409331,0.105618,0.071973,0.031942,0.995625
2011-09-30T11:54:43.529671,4290,-0.357972,-0.312157,0.108808,0.072135,0.030274,1.000140
2011-09-30T11:54:43.539671,4300,-0.304214,-0.214983,0.111997,0.072297,0.028605,1.004655
2011-09-30T11:54:43.549671,4310,-0.250456,-0.117809,0.115186,0.072458,0.026937,1.009170
2011-09-30T11:54:43.559671,4320,-0.196698,-0.020635,0.118376,0.072620,0.025268,1.013685
2011-09-30T11:54:43.569671,4330,-0.142940,0.076539,0.121565,0.072782,0.023600,1.018200
2011-09-30T11:54:43.579671,4340,-0.089182,0.173712,0.124754,0.072944,0.021931,1.022715
2011-09-30T11:54:43.589671,4350,-0.035424,0.270886,0.127944,0.073106,0.020263,1.027230
2011-09-30T11:54:43.599671,4360,0.018334,0.368060,0.131133,0.073267,0.018594,1.031745
2011-09-30T11:54:43.609671,4370,0.071845,0.465116,0.134444,0.073421,0.016951,1.036186
2011-09-30T11:54:43.619671,4380,0.099317,0.549727,0.150594,0.072755,0.017947,1.032847
2011-09-30T11:54:43.629671,4390,0.126790,0.634337,0.166745,0.072089,0.018943,1.029508
2011-09-30T11:54:43.639671,4400,0.154262,0.718947,0.182895,0.071422,0.019939,1.026169
2011-09-30T11:54:43.649671,4410,0.181735,0.803557,0.199045,0.070756,0.020935,1.022829
2011-09-30T11:54:43.659671,4420,0.209208,0.888167,0.215195,0.070090,0.021931,1.019490
2011-09-30T11:54:43.669671,4430,0.236680,0.972778,0.231346,0.069424,0.022928,1.016151
2011-09-30T11:54:43.679671,4440,0.264153,1.057388,0.247496,0.068757,0.023924,1.012812
2011-09-30T11:54:43.689671,4450,0.291626,1.141998,0.263646,0.068091,0.024920,1.009473
2011-09-30T11:54:43.699671,4460,0.319098,1.226608,0.279796,0.067425,0.025916,1.006134
2011-09-30T11:54:43.709671,4470,0.346571,1.311218,0.295947,0.066758,0.026912,1.002794
2011-09-30T11:54:43.719671,4480,0.373606,1.395589,0.311900,0.066092,0.027906,0.999470
2011-09-30T11:54:43.729671,4490,0.335737,1.444422,0.298664,0.065404,0.028613,0.998322
2011-09-30T11:54:43.739671,4500,0.297867,1.493255,0.285428,0.064715,0.029319,0.997175
2011-09-30T11:54:43.749671,4510,0.259997,1.542088,0.272192,0.064027,0.030026,0.996028
2011-09-30T11:54:43.759671,4520,0.222128,1.590920,0.258956,0.063339,0.030732,0.994880
2011-09-30T11:54:43.769671,4530,0.184258,1.639753,0.245720,0.062651,0.031439,0.993733
2011-09-30T11:54:43.779671,4540,0.146388,1.688586,0.232484,0.061963,0.032146,0.992585
2011-09-30T11:54:43.789671,4550,0.108518,1.737419,0.219248,0.061274,0.032852,0.991438
2011-09-30T11:54:43.799671,4560,0.070649,1.786252,0.206012,0.060586,0.033559,0.990291
2011-09-30T11:54:43.809671,4570,0.032779,1.835084,0.192776,0.059898,0.034265,0.989143
2011-09-30T11:54:43.819671,4580,-0.004599,1.882681,0.179798,0.059210,0.034948,0.987989
2011-09-30T11:54:43.829671,4590,-0.002846,1.831836,0.187368,0.058570,0.033757,0.986268
2011-09-30T11:54:43.839671,4600,-0.001093,1.780991,0.194937,0.057930,0.032567,0.984547
2011-09-30T11:54:43.849671,4610,0.000661,1.730146,0.202506,0.057290,0.031376,0.982825
2011-09-30T11:54:43.859671,4620,0.002414,1.679300,0.210076,0.056650,0.030185,0.981104
2011-09-30T11:54:43.869671,4630,0.004167,1.628455,0.217645,0.056010,0.028995,0.979383
2011-09-30T11:54:43.879671,4640,0.005921,1.577610,0.225214,0.055370,0.027804,0.977662
2011-09-30T11:54:43.889671,4650,0.007674,1.526765,0.232784,0.054730,0.026613,0.975941
2011-09-30T11:54:43.899671,4660,0.009427,1.475920,0.240353,0.054090,0.025423,0.974220
2011-09-30T11:54:43.909671,4670,0.011181,1.425074,0.247922,0.053450,0.024232,0.972499
2011-09-30T11:54:43.919671,4680,0.012934,1.374229,0.255492,0.052810,0.023041,0.970778
2011-09-30T11:54:43.929671,4690,0.014641,1.323019,0.263011,0.052171,0.021864,0.969065
2011-09-30T11:54:43.939671,4700,0.011483,1.233760,0.265320,0.051653,0.022108,0.968210
2011-09-30T11:54:43.949671,4710,0.008326,1.144501,0.267628,0.051135,0.022352,0.967355
2011-09-30T11:54:43.959671,4720,0.005169,1.055241,0.269937,0.050617,0.022596,0.966499
2011-09-30T11:54:43.969671,4730,0.002011,0.965982,0.272246,0.050099,0.022840,0.965644
2011-09-30T11:54:43.979671,4740,-0.001146,0.876723,0.274554,0.049582,0.023084,0.964789
2011-09-30T11:54:43.989671,4750,-0.004304,0.787463,0.276863,0.049064,0.023327,0.963933
2011-09-30T11:54:43.999671,4760,-0.007461,0.698204,0.279172,0.048546,0.023571,0.963078
2011-09-30T11:54:44.009671,4770,-0.010618,0.608945,0.281480,0.048028,0.023815,0.962223
2011-09-30T11:54:44.019671,4780,-0.013776,0.519685,0.283789,0.047510,0.024059,0.961367
2011-09-30T11:54:44.029671,4790,-0.016933,0.430426,0.286098,0.046992,0.024303,0.960512
2011-09-30T11:54:44.039671,4800,0.008479,0.335111,0.285106,0.046557,0.024673,0.963265
2011-09-30T11:54:44.049671,4810,0.034085,0.239755,0.284093,0.046123,0.025044,0.966041
2011-09-30T11:54:44.059671,4820,0.059690,0.144399,0.283079,0.045688,0.025415,0.968818
2011-09-30T11:54:44.069671,4830,0.085296,0.049043,0.282065,0.045254,0.025786,0.971595
2011-09-30T11:54:44.079671,4840,0.110901,-0.046312,0.281052,0.044819,0.026157,0.974372
2011-09-30T11:54:44.089671,4850,0.136507,-0.141668,0.280038,0.044385,0.026528,0.977149
2011-09-30T11:54:44.099671,4860,0.162113,-0.237024,0.279024,0.043951,0.026899,0.979926
2011-09-30T11:54:44.109671,4870,0.187718,-0.332380,0.278011,0.043516,0.027270,0.982703
2011-09-30T11:54:44.119671,4880,0.213324,-0.427736,0.276997,0.043082,0.027641,0.985480
2011-09-30T11:54:44.129671,4890,0.238929,-0.523092,0.275983,0.042647,0.028012,0.988257
2011-09-30T11:54:44.139671,4900,0.263919,-0.616851,0.275028,0.042186,0.028386,0.991047
2011-09-30T11:54:44.149671,4910,0.228457,-0.553864,0.279841,0.039139,0.029020,0.995150
2011-09-30T11:54:44.159671,4920,0.192996,-0.490877,0.284654,0.036091,0.029655,0.999252
2011-09-30T11:54:44.169671,4930,0.157535,-0.427890,0.289466,0.033044,0.030289,1.003355
2011-09-30T11:54:44.179671,4940,0.122073,-0.364902,0.294279,0.029996,0.030923,1.007458
2011-09-30T11:54:44.189671,4950,0.086612,-0.301915,0.299092,0.026949,0.031558,1.011561
2011-09-30T11:54:44.199671,4960,0.051150,-0.238928,0.303904,0.023901,0.032192,1.015664
2011-09-30T11:54:44.209671,4970,0.015689,-0.175941,0.308717,0.020854,0.032826,1.019766
2011-09-30T11:54:44.219671,4980,-0.019773,-0.112954,0.313530,0.017806,0.033461,1.023869
2011-09-30T11:54:44.229671,4990,-0.055234,-0.049967,0.318343,0.014759,0.034095,1.027972
2011-09-30T11:54:44.239671,5000,-0.089957,0.012842,0.323081,0.011727,0.034710,1.032018
2011-09-30T11:54:44.249671,5010,-0.063294,0.060852,0.321653,0.010038,0.033744,1.031386
2011-09-30T11:54:44.259671,5020,-0.036632,0.108862,0.320225,0.008349,0.032777,1.030754
2011-09-30T11:54:44.269671,5030,-0.009969,0.156872,0.318797,0.006661,0.031810,1.030121
2011-09-30T11:54:44.279671,5040,0.016694,0.204883,0.317370,0.004972,0.030843,1.029489
2011-09-30T11:54:44.289671,5050,0.043356,0.252893,0.315942,0.003283,0.029876,1.028856
2011-09-30T11:54:44.299671,5060,0.070019,0.300903,0.314514,0.001594,0.028910,1.028224
2011-09-30T11:54:44.309671,5070,0.096681,0.348913,0.313086,-0.000095,0.027943,1.027592
2011-09-30T11:54:44.319671,5080,0.123344,0.396923,0.311658,-0.001784,0.026976,1.026959
2011-09-30T11:54:44.329671,5090,0.150007,0.444933,0.310230,-0.003473,0.026009,1.026327
2011-09-30T11:54:44.339671,5100,0.176355,0.493031,0.308880,-0.005157,0.025063,1.025681
2011-09-30T11:54:44.349671,5110,0.169863,0.550313,0.315664,-0.006365,0.026284,1.023572
2011-09-30T11:54:44.359671,5120,0.163371,0.607594,0.322447,-0.007573,0.027504,1.021464
2011-09-30T11:54:44.369671,5130,0.156880,0.664876,0.329231,-0.008782,0.028725,1.019356
2011-09-30T11:54:44.379671,5140,0.150388,0.722158,0.336014,-0.009990,0.029945,1.017248
2011-09-30T11:54:44.389671,5150,0.143896,0.779439,0.342798,-0.011198,0.031166,1.015140
2011-09-30T11:54:44.399671,5160,0.137405,0.836721,0.349581,-0.012406,0.032386,1.013031
2011-09-30T11:54:44.409671,5170,0.130913,0.894002,0.356365,-0.013615,0.033607,1.010923
2011-09-30T11:54:44.419671,5180,0.124421,0.951284,0.363148,-0.014823,0.034827,1.008815
2011-09-30T11:54:44.429671,5190,0.117930,1.008566,0.369931,-0.016031,0.036048,1.006707
2011-09-30T11:54:44.439671,5200,0.111438,1.065847,0.376715,-0.017239,0.037268,1.004598
2011-09-30T11:54:44.449671,5210,0.104933,1.122773,0.383420,-0.018449,0.038474,1.002491
2011-09-30T11:54:44.459671,5220,0.096641,1.131119,0.379372,-0.019869,0.037649,1.000489
2011-09-30T11:54:44.469671,5230,0.088349,1.139465,0.375325,-0.021289,0.036824,0.998488
2011-09-30T11:54:44.479671,5240,0.080057,1.147811,0.371278,-0.022709,0.036000,0.996486
2011-09-30T11:54:44.489671,5250,0.071765,1.156157,0.367231,-0.024129,0.035175,0.994485
2011-09-30T11:54:44.499671,5260,0.063473,1.164503,0.363184,-0.025549,0.034350,0.992483
2011-09-30T11:54:44.509671,5270,0.055181,1.172849,0.359137,-0.026969,0.033525,0.990482
2011-09-30T11:54:44.519671,5280,0.046889,1.181195,0.355089,-0.028389,0.032700,0.988480
2011-09-30T11:54:44.529671,5290,0.038597,1.189541,0.351042,-0.029809,0.031876,0.986479
2011-09-30T11:54:44.539671,5300,0.030305,1.197887,0.346995,-0.031229,0.031051,0.984477
2011-09-30T11:54:44.549671,5310,0.021586,1.205470,0.342929,-0.032634,0.030232,0.982476
2011-09-30T11:54:44.559671,5320,-0.046852,1.106388,0.336260,-0.032007,0.030245,0.980535
2011-09-30T11:54:44.569671,5330,-0.115290,1.007307,0.329591,-0.031380,0.030259,0.978594
2011-09-30T11:54:44.579671,5340,-0.183728,0.908225,0.322922,-0.030753,0.030273,0.976652
2011-09-30T11:54:44.589671,5350,-0.252166,0.809144,0.316253,-0.030126,0.030286,0.974711
2011-09-30T11:54:44.599671,5360,-0.320604,0.710063,0.309584,-0.029499,0.030300,0.972770
2011-09-30T11:54:44.609671,5370,-0.389042,0.610981,0.302915,-0.028872,0.030313,0.970829
2011-09-30T11:54:44.619671,5380,-0.457480,0.511900,0.296246,-0.028245,0.030327,0.968887
2011-09-30T11:54:44.629671,5390,-0.525918,0.412818,0.289577,-0.027618,0.030340,0.966946
2011-09-30T11:54:44.639671,5400,-0.594356,0.313737,0.282908,-0.026991,0.030354,0.965005
2011-09-30T11:54:44.649671,5410,-0.662794,0.214655,0.276239,-0.026364,0.030367,0.963064
2011-09-30T11:54:44.659671,5420,-0.730200,0.114201,0.269611,-0.025737,0.030372,0.961171
2011-09-30T11:54:44.669671,5430,-0.717924,-0.092179,0.266166,-0.025065,0.029703,0.963029
2011-09-30T11:54:44.679671,5440,-0.705648,-0.298559,0.262720,-0.024392,0.029034,0.964888
2011-09-30T11:54:44.689671,5450,-0.693372,-0.504939,0.259274,-0.023720,0.028365,0.966746
2011-09-30T11:54:44.699671,5460,-0.681096,-0.711319,0.255829,-0.023048,0.027697,0.968605
2011-09-30T11:54:44.709671,5470,-0.668820,-0.917699,0.252383,-0.022375,0.027028,0.970463
2011-09-30T11:54:44.719671,5480,-0.656544,-1.124079,0.248938,-0.021703,0.026359,0.972322
2011-09-30T11:54:44.729671,5490,-0.644268,-1.330459,0.245492,-0.021031,0.025690,0.974180
2011-09-30T11:54:44.739671,5500,-0.631993,-1.536839,0.242047,-0.020359,0.025021,0.976039
2011-09-30T11:54:44.749671,5510,-0.619717,-1.743220,0.238601,-0.019686,0.024352,0.977897
2011-09-30T11:54:44.759671,5520,-0.607788,-1.947567,0.234965,-0.018999,0.023690,0.979780
2011-09-30T11:54:44.769671,5530,-0.625486,-1.978290,0.215026,-0.017012,0.023656,0.983738
2011-09-30T11:54:44.779671,5540,-0.643184,-2.009014,0.195088,-0.015025,0.023621,0.987696
2011-09-30T11:54:44.789671,5550,-0.660882,-2.039737,0.175149,-0.013038,0.023587,0.991654
2011-09-30T11:54:44.799671,5560,-0.678580,-2.070461,0.155210,-0.011051,0.023552,0.995613
2011-09-30T11:54:44.809671,5570,-0.696278,-2.101184,0.135272,-0.009064,0.023518,0.999571
2011-09-30T11:54:44.819671,5580,-0.713976,-2.131908,0.115333,-0.007077,0.023483,1.003529
2011-09-30T11:54:44.829671,5590,-0.731674,-2.162631,0.095394,-0.005090,0.023449,1.007487
2011-09-30T11:54:44.839671,5600,-0.749372,-2.193355,0.075456,-0.003103,0.023414,1.011445
2011-09-30T11:54:44.849671,5610,-0.767070,-2.224078,0.055517,-0.001116,0.023379,1.015403
2011-09-30T11:54:44.859671,5620,-0.784768,-2.254802,0.035579,0.000871,0.023345,1.019361
2011-09-30T11:54:44.869671,5630,-0.802466,-2.285525,0.015640,0.002858,0.023310,1.023320
2011-09-30T11:54:44.879671,5640,-0.748472,-2.101302,0.019246,0.005029,0.020878,1.029233
2011-09-30T11:54:44.889671,5650,-0.694112,-1.915977,0.022973,0.007202,0.018433,1.035156
2011-09-30T11:54:44.899671,5660,-0.639751,-1.730651,0.026700,0.009375,0.015988,1.041080
2011-09-30T11:54:44.909671,5670,-0.585390,-1.545326,0.030428,0.011547,0.013542,1.047003
2011-09-30T11:54:44.919671,5680,-0.531029,-1.360000,0.034155,0.013720,0.011097,1.052926
2011-09-30T11:54:44.929671,5690,-0.476668,-1.174675,0.037882,0.015893,0.008652,1.058850
2011-09-30T11:54:44.939671,5700,-0.422307,-0.989350,0.041609,0.018065,0.006207,1.064773
2011-09-30T11:54:44.949671,5710,-0.367946,-0.804024,0.045336,0.020238,0.003762,1.070696
2011-09-30T11:54:44.959671,5720,-0.313585,-0.618699,0.049063,0.022411,0.001317,1.076620
2011-09-30T11:54:44.969671,5730,-0.259225,-0.433373,0.052790,0.024584,-0.001128,1.082543
2011-09-30T11:54:44.979671,5740,-0.255803,-0.295273,0.044287,0.021999,-0.000003,1.075085
2011-09-30T11:54:44.989671,5750,-0.252390,-0.157183,0.035782,0.019414,0.001123,1.067625
2011-09-30T11:54:44.999671,5760,-0.248978,-0.019092,0.027277,0.016828,0.002249,1.060164
2011-09-30T11:54:45.009671,5770,-0.245566,0.118998,0.018771,0.014243,0.003374,1.052704
2011-09-30T11:54:45.019671,5780,-0.242154,0.257089,0.010266,0.011658,0.004500,1.045244
2011-09-30T11:54:45.029671,5790,-0.238742,0.395180,0.001761,0.009072,0.005626,1.037783
2011-09-30T11:54:45.039671,5800,-0.235330,0.533270,-0.006744,0.006487,0.006751,1.030323
2011-09-30T11:54:45.049671,5810,-0.231918,0.671361,-0.015250,0.003902,0.007877,1.022863
2011-09-30T11:54:45.059671,5820,-0.228506,0.809452,-0.023755,0.001316,0.009003,1.015402
2011-09-30T11:54:45.069671,5830,-0.225125,0.946575,-0.032295,-0.001254,0.010119,1.007992
2011-09-30T11:54:45.079671,5840,-0.225519,0.965002,-0.045038,-0.001947,0.009997,1.006804
2011-09-30T11:54:45.089671,5850,-0.225913,0.983429,-0.057781,-0.002640,0.009876,1.005615
2011-09-30T11:54:45.099671,5860,-0.226307,1.001856,-0.070524,-0.003334,0.009755,1.004427
2011-09-30T11:54:45.109671,5870,-0.226701,1.020283,-0.083267,-0.004027,0.009634,1.003238
2011-09-30T11:54:45.119671,5880,-0.227095,1.038709,-0.096011,-0.004720,0.009513,1.002049
2011-09-30T11:54:45.129671,5890,-0.227489,1.057136,-0.108754,-0.005413,0.009392,1.000861
2011-09-30T11:54:45.139671,5900,-0.227883,1.075563,-0.121497,-0.006107,0.009271,0.999672
2011-09-30T11:54:45.149671,5910,-0.228277,1.093990,-0.134240,-0.006800,0.009150,0.998483
2011-09-30T11:54:45.159671,5920,-0.228671,1.112417,-0.146984,-0.007493,0.009029,0.997295
2011-09-30T11:54:45.169671,5930,-0.229066,1.130843,-0.159727,-0.008186,0.008908,0.996106
2011-09-30T11:54:45.179671,5940,-0.227649,1.148359,-0.172144,-0.008902,0.008835,0.994884
2011-09-30T11:54:45.189671,5950,-0.078241,1.091405,-0.157891,-0.011494,0.012732,0.990905
2011-09-30T11:54:45.199671,5960,0.071167,1.034452,-0.143639,-0.014085,0.016629,0.986927
2011-09-30T11:54:45.209671,5970,0.220575,0.977498,-0.129386,-0.016676,0.020526,0.982948
2011-09-30T11:54:45.219671,5980,0.369983,0.920544,-0.115134,-0.019267,0.024423,0.978969
2011-09-30T11:54:45.229671,5990,0.519391,0.863590,-0.100881,-0.021859,0.028320,0.974991
2011-09-30T11:54:45.239671,6000,0.668799,0.806636,-0.086629,-0.024450,0.032216,0.971012
2011-09-30T11:54:45.249671,6010,0.818207,0.749682,-0.072376,-0.027041,0.036113,0.967034
2011-09-30T11:54:45.259671,6020,0.967615,0.692729,-0.058124,-0.029632,0.040010,0.963055
2011-09-30T11:54:45.269671,6030,1.117023,0.635775,-0.043871,-0.032224,0.043907,0.959076
2011-09-30T11:54:45.279671,6040,1.266431,0.578821,-0.029619,-0.034815,0.047804,0.955098
2011-09-30T11:54:45.289671,6050,1.159303,0.575151,-0.048253,-0.033916,0.046991,0.956762
2011-09-30T11:54:45.299671,6060,1.049530,0.572031,-0.067226,-0.032982,0.046130,0.958484
2011-09-30T11:54:45.309671,6070,0.939757,0.568911,-0.086199,-0.032048,0.045269,0.960207
2011-09-30T11:54:45.319671,6080,0.829984,0.565790,-0.105172,-0.031113,0.044408,0.961929
2011-09-30T11:54:45.329671,6090,0.720211,0.562670,-0.124145,-0.030179,0.043547,0.963651
2011-09-30T11:54:45.339671,6100,0.610438,0.559549,-0.143119,-0.029244,0.042685,0.965374
2011-09-30T11:54:45.349671,6110,0.500665,0.556429,-0.162092,-0.028310,0.041824,0.967096
2011-09-30T11:54:45.359671,6120,0.390892,0.553309,-0.181065,-0.027375,0.040963,0.968818
2011-09-30T11:54:45.369671,6130,0.281119,0.550188,-0.200038,-0.026441,0.040102,0.970541
2011-09-30T11:54:45.379671,6140,0.171346,0.547068,-0.219011,-0.025507,0.039241,0.972263
2011-09-30T11:54:45.389671,6150,0.064664,0.541910,-0.237757,-0.024601,0.038414,0.974013
2011-09-30T11:54:45.399671,6160,0.175796,0.393123,-0.240474,-0.025726,0.039971,0.977736
2011-09-30T11:54:45.409671,6170,0.286929,0.244336,-0.243191,-0.026850,0.041529,0.981458
2011-09-30T11:54:45.419671,6180,0.398062,0.095549,-0.245908,-0.027975,0.043086,0.985180
2011-09-30T11:54:45.429671,6190,0.509194,-0.053238,-0.248626,-0.029100,0.044643,0.988903
2011-09-30T11:54:45.439671,6200,0.620327,-0.202025,-0.251343,-0.030225,0.046201,0.992625
2011-09-30T11:54:45.449671,6210,0.731459,-0.350812,-0.254060,-0.031349,0.047758,0.996347
2011-09-30T11:54:45.459671,6220,0.842592,-0.499599,-0.256777,-0.032474,0.049316,1.000070
2011-09-30T11:54:45.469671,6230,0.953725,-0.648386,-0.259494,-0.033599,0.050873,1.003792
2011-09-30T11:54:45.479671,6240,1.064857,-0.797173,-0.262212,-0.034724,0.052431,1.007514
2011-09-30T11:54:45.489671,6250,1.175990,-0.945960,-0.264929,-0.035848,0.053988,1.011237
2011-09-30T11:54:45.499671,6260,1.060585,-0.988526,-0.249402,-0.033800,0.049557,1.013003
2011-09-30T11:54:45.509671,6270,0.943053,-1.030094,-0.233705,-0.031722,0.045069,1.014750
2011-09-30T11:54:45.519671,6280,0.825522,-1.071663,-0.218007,-0.029645,0.040581,1.016497
2011-09-30T11:54:45.529671,6290,0.707990,-1.113232,-0.202310,-0.027567,0.036093,1.018245
2011-09-30T11:54:45.539671,6300,0.590458,-1.154800,-0.186612,-0.025489,0.031605,1.019992
2011-09-30T11:54:45.549671,6310,0.472926,-1.196369,-0.170914,-0.023411,0.027118,1.021740
2011-09-30T11:54:45.559671,6320,0.355394,-1.237938,-0.155217,-0.021333,0.022630,1.023487
2011-09-30T11:54:45.569671,6330,0.237863,-1.279506,-0.139519,-0.019255,0.018142,1.025235
2011-09-30T11:54:45.579671,6340,0.120331,-1.321075,-0.123822,-0.017177,0.013654,1.026982
2011-09-30T11:54:45.589671,6350,0.005083,-1.361911,-0.108222,-0.015130,0.009214,1.028698
2011-09-30T11:54:45.599671,6360,0.050846,-1.351106,-0.099565,-0.015235,0.008152,1.028225
2011-09-30T11:54:45.609671,6370,0.096608,-1.340300,-0.090907,-0.015340,0.007091,1.027751
2011-09-30T11:54:45.619671,6380,0.142370,-1.329495,-0.082250,-0.015446,0.006029,1.027278
2011-09-30T11:54:45.629671,6390,0.188132,-1.318689,-0.073592,-0.015551,0.004967,1.026804
2011-09-30T11:54:45.639671,6400,0.233895,-1.307884,-0.064934,-0.015656,0.003905,1.026331
2011-09-30T11:54:45.649671,6410,0.279657,-1.297078,-0.056277,-0.015761,0.002843,1.025857
2011-09-30T11:54:45.659671,6420,0.325419,-1.286273,-0.047619,-0.015866,0.001781,1.025383
2011-09-30T11:54:45.669671,6430,0.371182,-1.275468,-0.038962,-0.015972,0.000719,1.024910
2011-09-30T11:54:45.679671,6440,0.416944,-1.264662,-0.030304,-0.016077,-0.000342,1.024436
2011-09-30T11:54:45.689671,6450,0.462706,-1.253857,-0.021646,-0.016182,-0.001404,1.023963
2011-09-30T11:54:45.699671,6460,0.508287,-1.243475,-0.013193,-0.016277,-0.002421,1.023472
2011-09-30T11:54:45.709671,6470,0.541891,-1.261144,-0.018218,-0.015706,-0.000460,1.021844
2011-09-30T11:54:45.719671,6480,0.575496,-1.278812,-0.023244,-0.015135,0.001501,1.020216
2011-09-30T11:54:45.729671,6490,0.609100,-1.296481,-0.028270,-0.014564,0.003462,1.018589
2011-09-30T11:54:45.739671,6500,0.642704,-1.314149,-0.033296,-0.013992,0.005423,1.016961
2011-09-30T11:54:45.749671,6510,0.676308,-1.331818,-0.038321,-0.013421,0.007385,1.015333
2011-09-30T11:54:45.759671,6520,0.709912,-1.349486,-0.043347,-0.012850,0.009346,1.013705
2011-09-30T11:54:45.769671,6530,0.743516,-1.367155,-0.048373,-0.012279,0.011307,1.012078
2011-09-30T11:54:45.779671,6540,0.777120,-1.384823,-0.053399,-0.011708,0.013268,1.010450
2011-09-30T11:54:45.789671,6550,0.810725,-1.402492,-0.058424,-0.011136,0.015229,1.008822
2011-09-30T11:54:45.799671,6560,0.843780,-1.419348,-0.063471,-0.010552,0.017165,1.007271
2011-09-30T11:54:45.809671,6570,0.843511,-1.386867,-0.069781,-0.009170,0.017564,1.010372
2011-09-30T11:54:45.819671,6580,0.843241,-1.354386,-0.076092,-0.007788,0.017962,1.013473
2011-09-30T11:54:45.829671,6590,0.842971,-1.321905,-0.082402,-0.006406,0.018361,1.016574
2011-09-30T11:54:45.839671,6600,0.842701,-1.289424,-0.088713,-0.005024,0.018759,1.019676
2011-09-30T11:54:45.849671,6610,0.842431,-1.256943,-0.095023,-0.003642,0.019158,1.022777
2011-09-30T11:54:45.859671,6620,0.842162,-1.224462,-0.101334,-0.002260,0.019556,1.025878
2011-09-30T11:54:45.869671,6630,0.841892,-1.191981,-0.107644,-0.000878,0.019955,1.028979
2011-09-30T11:54:45.879671,6640,0.841622,-1.159500,-0.113955,0.000504,0.020353,1.032080
2011-09-30T11:54:45.889671,6650,0.841352,-1.127019,-0.120266,0.001886,0.020752,1.035182
2011-09-30T11:54:45.899671,6660,0.841083,-1.094538,-0.126576,0.003268,0.021150,1.038283
2011-09-30T11:54:45.909671,6670,0.840900,-1.060007,-0.132895,0.004643,0.021544,1.041340
2011-09-30T11:54:45.919671,6680,0.847594,-0.864775,-0.139914,0.005489,0.021574,1.040958
2011-09-30T11:54:45.929671,6690,0.854287,-0.669543,-0.146932,0.006336,0.021604,1.040577
2011-09-30T11:54:45.939671,6700,0.860981,-0.474311,-0.153951,0.007182,0.021633,1.040195
2011-09-30T11:54:45.949671,6710,0.867674,-0.279078,-0.160969,0.008028,0.021663,1.039813
2011-09-30T11:54:45.959671,6720,0.874367,-0.083846,-0.167988,0.008875,0.021693,1.039431
2011-09-30T11:54:45.969671,6730,0.881061,0.111386,-0.175006,0.009721,0.021723,1.039049
2011-09-30T11:54:45.979671,6740,0.887754,0.306618,-0.182025,0.010567,0.021752,1.038668
2011-09-30T11:54:45.989671,6750,0.894447,0.501850,-0.189043,0.011414,0.021782,1.038286
2011-09-30T11:54:45.999671,6760,0.901141,0.697082,-0.196062,0.012260,0.021812,1.037904
2011-09-30T11:54:46.009671,6770,0.907826,0.892317,-0.203070,0.013106,0.021842,1.037520
2011-09-30T11:54:46.019671,6780,0.900258,1.092081,-0.192659,0.012646,0.022092,1.033772
2011-09-30T11:54:46.029671,6790,0.892690,1.291846,-0.182247,0.012186,0.022341,1.030023
2011-09-30T11:54:46.039671,6800,0.885123,1.491610,-0.171836,0.011726,0.022591,1.026275
2011-09-30T11:54:46.049671,6810,0.877555,1.691375,-0.161425,0.011266,0.022841,1.022527
2011-09-30T11:54:46.059671,6820,0.869987,1.891139,-0.151013,0.010806,0.023091,1.018778
2011-09-30T11:54:46.069671,6830,0.862420,2.090904,-0.140602,0.010346,0.023341,1.015030
2011-09-30T11:54:46.079671,6840,0.854852,2.290668,-0.130190,0.009887,0.023591,1.011281
2011-09-30T11:54:46.089671,6850,0.847284,2.490433,-0.119779,0.009427,0.023841,1.007533
2011-09-30T11:54:46.099671,6860,0.839717,2.690197,-0.109368,0.008967,0.024091,1.003785
2011-09-30T11:54:46.109671,6870,0.832149,2.889962,-0.098956,0.008507,0.024341,1.000036
2011-09-30T11:54:46.119671,6880,0.824607,3.087703,-0.088708,0.008035,0.024589,0.996265
2011-09-30T11:54:46.129671,6890,0.819595,3.086786,-0.094437,0.006347,0.024719,0.990278
2011-09-30T11:54:46.139671,6900,0.814582,3.085870,-0.100167,0.004660,0.024848,0.984290
2011-09-30T11:54:46.149671,6910,0.809569,3.084954,-0.105897,0.002973,0.024977,0.978303
2011-09-30T11:54:46.159671,6920,0.804557,3.084037,-0.111627,0.001285,0.025106,0.972315
2011-09-30T11:54:46.169671,6930,0.799544,3.083121,-0.117356,-0.000402,0.025235,0.966328
2011-09-30T11:54:46.179671,6940,0.794532,3.082205,-0.123086,-0.002090,0.025365,0.960340
2011-09-30T11:54:46.189671,6950,0.789519,3.081289,-0.128816,-0.003777,0.025494,0.954353
2011-09-30T11:54:46.199671,6960,0.784506,3.080372,-0.134546,-0.005464,0.025623,0.948365
2011-09-30T11:54:46.209671,6970,0.779494,3.079456,-0.140275,-0.007152,0.025752,0.942378
2011-09-30T11:54:46.219671,6980,0.774964,3.075144,-0.145844,-0.008837,0.025873,0.936457
2011-09-30T11:54:46.229671,6990,0.800530,2.859270,-0.141411,-0.010393,0.025481,0.934731
2011-09-30T11:54:46.239671,7000,0.826096,2.643395,-0.136977,-0.011949,0.025089,0.933004
2011-09-30T11:54:46.249671,7010,0.851661,2.427521,-0.132543,-0.013505,0.024698,0.931277
2011-09-30T11:54:46.259671,7020,0.877227,2.211646,-0.128110,-0.015061,0.024306,0.929550
2011-09-30T11:54:46.269671,7030,0.902793,1.995771,-0.123676,-0.016617,0.023914,0.927823
2011-09-30T11:54:46.279671,7040,0.928359,1.779897,-0.119242,-0.018173,0.023522,0.926097
2011-09-30T11:54:46.289671,7050,0.953924,1.564022,-0.114809,-0.019728,0.023130,0.924370
2011-09-30T11:54:46.299671,7060,0.979490,1.348148,-0.110375,-0.021284,0.022738,0.922643
2011-09-30T11:54:46.309671,7070,1.005056,1.132273,-0.105941,-0.022840,0.022346,0.920916
2011-09-30T11:54:46.319671,7080,1.031146,0.916492,-0.101679,-0.024341,0.021959,0.919276
2011-09-30T11:54:46.329671,7090,1.089079,0.706379,-0.107845,-0.022471,0.021859,0.922899
2011-09-30T11:54:46.339671,7100,1.147012,0.496266,-0.114011,-0.020602,0.021759,0.926522
2011-09-30T11:54:46.349671,7110,1.204945,0.286153,-0.120178,-0.018732,0.021659,0.930145
2011-09-30T11:54:46.359671,7120,1.262879,0.076040,-0.126344,-0.016863,0.021559,0.933768
2011-09-30T11:54:46.369671,7130,1.320812,-0.134073,-0.132510,-0.014993,0.021459,0.937392
2011-09-30T11:54:46.379671,7140,1.378745,-0.344186,-0.138676,-0.013124,0.021359,0.941015
2011-09-30T11:54:46.389671,7150,1.436678,-0.554299,-0.144842,-0.011255,0.021259,0.944638
2011-09-30T11:54:46.399671,7160,1.494612,-0.764412,-0.151009,-0.009385,0.021159,0.948261
2011-09-30T11:54:46.409671,7170,1.552545,-0.974525,-0.157175,-0.007516,0.021059,0.951884
2011-09-30T11:54:46.419671,7180,1.610478,-1.184638,-0.163341,-0.005646,0.020959,0.955507
2011-09-30T11:54:46.429671,7190,1.666584,-1.391785,-0.169260,-0.003815,0.020912,0.959162
2011-09-30T11:54:46.439671,7200,1.602626,-1.404081,-0.158939,-0.004478,0.024375,0.964879
2011-09-30T11:54:46.449671,7210,1.538667,-1.416377,-0.148618,-0.005142,0.027838,0.970596
2011-09-30T11:54:46.459671,7220,1.474709,-1.428673,-0.138297,-0.005806,0.031301,0.976313
2011-09-30T11:54:46.469671,7230,1.410750,-1.440969,-0.127976,-0.006470,0.034764,0.982031
2011-09-30T11:54:46.479671,7240,1.346792,-1.453265,-0.117654,-0.007133,0.038227,0.987748
2011-09-30T11:54:46.489671,7250,1.282833,-1.465560,-0.107333,-0.007797,0.041690,0.993465
2011-09-30T11:54:46.499671,7260,1.218874,-1.477856,-0.097012,-0.008461,0.045153,0.999182
2011-09-30T11:54:46.509671,7270,1.154916,-1.490152,-0.086691,-0.009125,0.048617,1.004900
2011-09-30T11:54:46.519671,7280,1.090957,-1.502448,-0.076370,-0.009788,0.052080,1.010617
2011-09-30T11:54:46.529671,7290,1.025903,-1.515005,-0.066096,-0.010442,0.055507,1.016301
2011-09-30T11:54:46.539671,7300,0.851172,-1.553712,-0.060520,-0.010054,0.055330,1.018650
2011-09-30T11:54:46.549671,7310,0.676441,-1.592418,-0.054944,-0.009667,0.055154,1.021000
2011-09-30T11:54:46.559671,7320,0.501709,-1.631125,-0.049369,-0.009280,0.054978,1.023350
2011-09-30T11:54:46.569671,7330,0.326978,-1.669832,-0.043793,-0.008893,0.054802,1.025700
2011-09-30T11:54:46.579671,7340,0.152246,-1.708538,-0.038217,-0.008505,0.054625,1.028050
2011-09-30T11:54:46.589671,7350,-0.022485,-1.747245,-0.032641,-0.008118,0.054449,1.030399
2011-09-30T11:54:46.599671,7360,-0.197217,-1.785951,-0.027066,-0.007731,0.054273,1.032749
2011-09-30T11:54:46.609671,7370,-0.371948,-1.824658,-0.021490,-0.007343,0.054097,1.035099
2011-09-30T11:54:46.619671,7380,-0.546680,-1.863365,-0.015914,-0.006956,0.053920,1.037449
2011-09-30T11:54:46.629671,7390,-0.721411,-1.902071,-0.010339,-0.006569,0.053744,1.039798
2011-09-30T11:54:46.639671,7400,-0.890778,-1.941049,-0.004854,-0.006188,0.053614,1.042092
2011-09-30T11:54:46.649671,7410,-0.738060,-1.996287,-0.004875,-0.006215,0.056291,1.041001
2011-09-30T11:54:46.659671,7420,-0.585341,-2.051526,-0.004895,-0.006241,0.058968,1.039911
2011-09-30T11:54:46.669671,7430,-0.432622,-2.106765,-0.004916,-0.006267,0.061645,1.038820
2011-09-30T11:54:46.679671,7440,-0.279904,-2.162003,-0.004936,-0.006293,0.064322,1.037729
2011-09-30T11:54:46.689671,7450,-0.127185,-2.217242,-0.004956,-0.006319,0.066999,1.036639
2011-09-30T11:54:46.699671,7460,0.025534,-2.272481,-0.004977,-0.006345,0.069676,1.035548
2011-09-30T11:54:46.709671,7470,0.178253,-2.327719,-0.004997,-0.006372,0.072353,1.034457
2011-09-30T11:54:46.719671,7480,0.330971,-2.382958,-0.005018,-0.006398,0.075030,1.033367
2011-09-30T11:54:46.729671,7490,0.483690,-2.438197,-0.005038,-0.006424,0.077707,1.032276
2011-09-30T11:54:46.739671,7500,0.631405,-2.489715,-0.005331,-0.006426,0.080304,1.031257
2011-09-30T11:54:46.749671,7510,0.443702,-2.291808,-0.023889,-0.004814,0.077593,1.034998
2011-09-30T11:54:46.759671,7520,0.255999,-2.093901,-0.042448,-0.003202,0.074881,1.038739
2011-09-30T11:54:46.769671,7530,0.068296,-1.895994,-0.061007,-0.001590,0.072169,1.042481
2011-09-30T11:54:46.779671,7540,-0.119408,-1.698087,-0.079565,0.000022,0.069458,1.046222
2011-09-30T11:54:46.789671,7550,-0.307111,-1.500180,-0.098124,0.001635,0.066746,1.049963
2011-09-30T11:54:46.799671,7560,-0.494814,-1.302273,-0.116682,0.003247,0.064034,1.053705
2011-09-30T11:54:46.809671,7570,-0.682517,-1.104366,-0.135241,0.004859,0.061323,1.057446
2011-09-30T11:54:46.819671,7580,-0.870220,-0.906459,-0.153799,0.006471,0.058611,1.061188
2011-09-30T11:54:46.829671,7590,-1.057924,-0.708552,-0.172358,0.008083,0.055899,1.064929
2011-09-30T11:54:46.839671,7600,-1.244732,-0.510581,-0.190939,0.009677,0.053175,1.068605
2011-09-30T11:54:46.849671,7610,-1.323017,-0.304808,-0.212277,0.009053,0.048933,1.064384
2011-09-30T11:54:46.859671,7620,-1.401302,-0.099035,-0.233616,0.008429,0.044692,1.060162
2011-09-30T11:54:46.869671,7630,-1.479587,0.106738,-0.254954,0.007805,0.040450,1.055940
2011-09-30T11:54:46.879671,7640,-1.557872,0.312511,-0.276293,0.007180,0.036208,1.051719
2011-09-30T11:54:46.889671,7650,-1.636157,0.518284,-0.297631,0.006556,0.031966,1.047497
2011-09-30T11:54:46.899671,7660,-1.714442,0.724057,-0.318970,0.005932,0.027725,1.043276
2011-09-30T11:54:46.909671,7670,-1.792727,0.929830,-0.340308,0.005308,0.023483,1.039054
2011-09-30T11:54:46.919671,7680,-1.871012,1.135603,-0.361647,0.004684,0.019241,1.034832
2011-09-30T11:54:46.929671,7690,-1.949297,1.341376,-0.382985,0.004060,0.014999,1.030611
2011-09-30T11:54:46.939671,7700,-2.027582,1.547149,-0.404323,0.003436,0.010758,1.026389
2011-09-30T11:54:46.949671,7710,-2.104090,1.750642,-0.425172,0.002809,0.006537,1.022140
2011-09-30T11:54:46.959671,7720,-1.988878,1.708106,-0.393174,0.001851,0.004574,1.014874
2011-09-30T11:54:46.969671,7730,-1.873666,1.665570,-0.361175,0.000893,0.002611,1.007608
2011-09-30T11:54:46.979671,7740,-1.758453,1.623034,-0.329176,-0.000064,0.000649,1.000342
2011-09-30T11:54:46.989671,7750,-1.643241,1.580497,-0.297177,-0.001022,-0.001314,0.993076
2011-09-30T11:54:46.999671,7760,-1.528029,1.537961,-0.265179,-0.001979,-0.003277,0.985810
2011-09-30T11:54:47.009671,7770,-1.412816,1.495425,-0.233180,-0.002937,-0.005239,0.978544
2011-09-30T11:54:47.019671,7780,-1.297604,1.452889,-0.201181,-0.003894,-0.007202,0.971278
2011-09-30T11:54:47.029671,7790,-1.182392,1.410353,-0.169183,-0.004852,-0.009165,0.964012
2011-09-30T11:54:47.039671,7800,-1.067179,1.367817,-0.137184,-0.005810,-0.011127,0.956746
2011-09-30T11:54:47.049671,7810,-0.952011,1.325044,-0.105279,-0.006765,-0.013059,0.949550
2011-09-30T11:54:47.059671,7820,-0.844657,1.240261,-0.090073,-0.007295,-0.009530,0.954791
2011-09-30T11:54:47.069671,7830,-0.737304,1.155477,-0.074868,-0.007826,-0.006001,0.960031
2011-09-30T11:54:47.079671,7840,-0.629950,1.070693,-0.059662,-0.008357,-0.002471,0.965271
2011-09-30T11:54:47.089671,7850,-0.522597,0.985910,-0.044456,-0.008887,0.001058,0.970511
2011-09-30T11:54:47.099671,7860,-0.415243,0.901126,-0.029251,-0.009418,0.004587,0.975751
2011-09-30T11:54:47.109671,7870,-0.307890,0.816343,-0.014045,-0.009948,0.008117,0.980991
2011-09-30T11:54:47.119671,7880,-0.200536,0.731559,0.001161,-0.010479,0.011646,0.986231
2011-09-30T11:54:47.129671,7890,-0.093183,0.646775,0.016366,-0.011009,0.015175,0.991471
2011-09-30T11:54:47.139671,7900,0.014170,0.561992,0.031572,-0.011540,0.018705,0.996711
2011-09-30T11:54:47.149671,7910,0.121524,0.477208,0.046778,-0.012071,0.022234,1.001951
2011-09-30T11:54:47.159671,7920,0.228109,0.393856,0.061612,-0.012602,0.025705,1.007106
2011-09-30T11:54:47.169671,7930,0.286515,0.400280,0.053170,-0.013170,0.025499,1.006902
2011-09-30T11:54:47.179671,7940,0.344920,0.406704,0.044728,-0.013738,0.025294,1.006699
2011-09-30T11:54:47.189671,7950,0.403326,0.413128,0.036285,-0.014306,0.025088,1.006495
2011-09-30T11:54:47.199671,7960,0.461732,0.419552,0.027843,-0.014874,0.024882,1.006292
2011-09-30T11:54:47.209671,7970,0.520137,0.425976,0.019401,-0.015443,0.024677,1.006088
2011-09-30T11:54:47.219671,7980,0.578543,0.432400,0.010959,-0.016011,0.024471,1.005884
2011-09-30T11:54:47.229671,7990,0.636949,0.438824,0.002516,-0.016579,0.024265,1.005681
2011-09-30T11:54:47.239671,8000,0.695354,0.445248,-0.005926,-0.017147,0.024060,1.005477
2011-09-30T11:54:47.249671,8010,0.753760,0.451672,-0.014368,-0.017715,0.023854,1.005274
2011-09-30T11:54:47.259671,8020,0.810847,0.458409,-0.022431,-0.018281,0.023663,1.005048
2011-09-30T11:54:47.269671,8030,0.796771,0.482085,-0.009998,-0.018703,0.024288,1.003630
2011-09-30T11:54:47.279671,8040,0.782694,0.505760,0.002435,-0.019125,0.024913,1.002212
2011-09-30T11:54:47.289671,8050,0.768618,0.529436,0.014868,-0.019547,0.025538,1.000794
2011-09-30T11:54:47.299671,8060,0.754541,0.553111,0.027300,-0.019969,0.026163,0.999376
2011-09-30T11:54:47.309671,8070,0.740465,0.576786,0.039733,-0.020391,0.026788,0.997958
2011-09-30T11:54:47.319671,8080,0.726388,0.600462,0.052166,-0.020813,0.027413,0.996539
2011-09-30T11:54:47.329671,8090,0.712312,0.624137,0.064599,-0.021235,0.028038,0.995121
2011-09-30T11:54:47.339671,8100,0.698235,0.647813,0.077031,-0.021658,0.028663,0.993703
2011-09-30T11:54:47.349671,8110,0.684159,0.671488,0.089464,-0.022080,0.029288,0.992285
2011-09-30T11:54:47.359671,8120,0.670082,0.695164,0.101897,-0.022502,0.029913,0.990867
2011-09-30T11:54:47.369671,8130,0.656108,0.718842,0.114305,-0.022923,0.030536,0.989455
2011-09-30T11:54:47.379671,8140,0.684807,0.743616,0.116285,-0.023031,0.029958,0.990478
2011-09-30T11:54:47.389671,8150,0.713505,0.768391,0.118266,-0.023138,0.029380,0.991501
2011-09-30T11:54:47.399671,8160,0.742204,0.793165,0.120247,-0.023246,0.028803,0.992524
2011-09-30T11:54:47.409671,8170,0.770903,0.817939,0.122228,-0.023353,0.028225,0.993547
2011-09-30T11:54:47.419671,8180,0.799602,0.842714,0.124208,-0.023461,0.027648,0.994570
2011-09-30T11:54:47.429671,8190,0.828300,0.867488,0.126189,-0.023569,0.027070,0.995592
2011-09-30T11:54:47.439671,8200,0.856999,0.892263,0.128170,-0.023676,0.026492,0.996615
2011-09-30T11:54:47.449671,8210,0.885698,0.917037,0.130151,-0.023784,0.025915,0.997638
2011-09-30T11:54:47.459671,8220,0.914397,0.941812,0.132131,-0.023891,0.025337,0.998661
2011-09-30T11:54:47.469671,8230,0.942962,0.966526,0.134155,-0.024006,0.024764,0.999679
2011-09-30T11:54:47.479671,8240,0.920267,0.968010,0.152743,-0.026794,0.026112,0.998583
2011-09-30T11:54:47.489671,8250,0.897571,0.969494,0.171331,-0.029583,0.027460,0.997487
2011-09-30T11:54:47.499671,8260,0.874876,0.970978,0.189919,-0.032371,0.028808,0.996392
2011-09-30T11:54:47.509671,8270,0.852180,0.972462,0.208507,-0.035160,0.030155,0.995296
2011-09-30T11:54:47.519671,8280,0.829485,0.973946,0.227094,-0.037948,0.031503,0.994200
2011-09-30T11:54:47.529671,8290,0.806790,0.975429,0.245682,-0.040736,0.032851,0.993105
2011-09-30T11:54:47.539671,8300,0.784094,0.976913,0.264270,-0.043525,0.034198,0.992009
2011-09-30T11:54:47.549671,8310,0.761399,0.978397,0.282858,-0.046313,0.035546,0.990913
2011-09-30T11:54:47.559671,8320,0.738703,0.979881,0.301446,-0.049101,0.036894,0.989818
2011-09-30T11:54:47.569671,8330,0.715925,0.979083,0.319844,-0.051839,0.038223,0.988717
2011-09-30T11:54:47.579671,8340,0.687744,0.829280,0.325852,-0.051292,0.038373,0.987302
2011-09-30T11:54:47.589671,8350,0.659563,0.679478,0.331860,-0.050744,0.038523,0.985887
2011-09-30T11:54:47.599671,8360,0.631383,0.529676,0.337868,-0.050196,0.038673,0.984472
2011-09-30T11:54:47.609671,8370,0.603202,0.379873,0.343877,-0.049649,0.038822,0.983056
2011-09-30T11:54:47.619671,8380,0.575021,0.230071,0.349885,-0.049101,0.038972,0.981641
2011-09-30T11:54:47.629671,8390,0.546840,0.080269,0.355893,-0.048553,0.039122,0.980226
2011-09-30T11:54:47.639671,8400,0.518660,-0.069533,0.361901,-0.048005,0.039272,0.978811
2011-09-30T11:54:47.649671,8410,0.490479,-0.219336,0.367909,-0.047458,0.039421,0.977396
2011-09-30T11:54:47.659671,8420,0.462298,-0.369138,0.373917,-0.046910,0.039571,0.975981
2011-09-30T11:54:47.669671,8430,0.434117,-0.518940,0.379925,-0.046362,0.039721,0.974566
2011-09-30T11:54:47.679671,8440,0.405794,-0.668573,0.385791,-0.045817,0.039874,0.973183
2011-09-30T11:54:47.689671,8450,0.364841,-0.803225,0.379030,-0.045523,0.040358,0.974676
2011-09-30T11:54:47.699671,8460,0.323887,-0.937878,0.372270,-0.045228,0.040842,0.976169
2011-09-30T11:54:47.709671,8470,0.282934,-1.072530,0.365509,-0.044933,0.041326,0.977662
2011-09-30T11:54:47.719671,8480,0.241981,-1.207182,0.358748,-0.044638,0.041810,0.979155
2011-09-30T11:54:47.729671,8490,0.201028,-1.341834,0.351988,-0.044343,0.042294,0.980648
2011-09-30T11:54:47.739671,8500,0.160075,-1.476486,0.345227,-0.044048,0.042779,0.982141
2011-09-30T11:54:47.749671,8510,0.119122,-1.611138,0.338467,-0.043753,0.043263,0.983634
2011-09-30T11:54:47.759671,8520,0.078169,-1.745790,0.331706,-0.043458,0.043747,0.985127
2011-09-30T11:54:47.769671,8530,0.037216,-1.880442,0.324945,-0.043163,0.044231,0.986619
2011-09-30T11:54:47.779671,8540,-0.003493,-2.011045,0.318432,-0.042855,0.044702,0.988191
2011-09-30T11:54:47.789671,8550,-0.031535,-1.931406,0.324768,-0.041901,0.044522,0.993856
2011-09-30T11:54:47.799671,8560,-0.059577,-1.851767,0.331103,-0.040947,0.044341,0.999520
2011-09-30T11:54:47.809671,8570,-0.087619,-1.772128,0.337439,-0.039993,0.044160,1.005185
2011-09-30T11:54:47.819671,8580,-0.115661,-1.692489,0.343775,-0.039038,0.043980,1.010850
2011-09-30T11:54:47.829671,8590,-0.143704,-1.612850,0.350110,-0.038084,0.043799,1.016514
2011-09-30T11:54:47.839671,8600,-0.171746,-1.533211,0.356446,-0.037130,0.043618,1.022179
2011-09-30T11:54:47.849671,8610,-0.199788,-1.453572,0.362782,-0.036176,0.043438,1.027843
2011-09-30T11:54:47.859671,8620,-0.227830,-1.373933,0.369117,-0.035221,0.043257,1.033508
2011-09-30T11:54:47.869671,8630,-0.255872,-1.294294,0.375453,-0.034267,0.043076,1.039173
2011-09-30T11:54:47.879671,8640,-0.283914,-1.214655,0.381789,-0.033313,0.042896,1.044837
2011-09-30T11:54:47.889671,8650,-0.312624,-1.133083,0.387836,-0.032353,0.042724,1.050357
2011-09-30T11:54:47.899671,8660,-0.376197,-0.950636,0.378824,-0.031115,0.043012,1.048312
2011-09-30T11:54:47.909671,8670,-0.439771,-0.768189,0.369811,-0.029877,0.043299,1.046267
2011-09-30T11:54:47.919671,8680,-0.503344,-0.585742,0.360799,-0.028639,0.043586,1.044222
2011-09-30T11:54:47.929671,8690,-0.566918,-0.403295,0.351787,-0.027401,0.043874,1.042177
2011-09-30T11:54:47.939671,8700,-0.630492,-0.220848,0.342774,-0.026162,0.044161,1.040132
2011-09-30T11:54:47.949671,8710,-0.694065,-0.038400,0.333762,-0.024924,0.044449,1.038087
2011-09-30T11:54:47.959671,8720,-0.757639,0.144047,0.324750,-0.023686,0.044736,1.036042
2011-09-30T11:54:47.969671,8730,-0.821212,0.326494,0.315737,-0.022448,0.045024,1.033997
2011-09-30T11:54:47.979671,8740,-0.884786,0.508941,0.306725,-0.021210,0.045311,1.031952
2011-09-30T11:54:47.989671,8750,-0.948309,0.691365,0.297718,-0.019973,0.045598,1.029906
2011-09-30T11:54:47.999671,8760,-0.909554,0.826527,0.298824,-0.021164,0.043909,1.026236
2011-09-30T11:54:48.009671,8770,-0.870799,0.961689,0.299930,-0.022356,0.042220,1.022565
2011-09-30T11:54:48.019671,8780,-0.832044,1.096851,0.301036,-0.023548,0.040531,1.018895
2011-09-30T11:54:48.029671,8790,-0.793289,1.232013,0.302143,-0.024740,0.038842,1.015224
2011-09-30T11:54:48.039671,8800,-0.754534,1.367175,0.303249,-0.025932,0.037153,1.011554
2011-09-30T11:54:48.049671,8810,-0.715779,1.502337,0.304355,-0.027124,0.035464,1.007884
2011-09-30T11:54:48.059671,8820,-0.677024,1.637498,0.305461,-0.028315,0.033775,1.004213
2011-09-30T11:54:48.069671,8830,-0.638269,1.772660,0.306568,-0.029507,0.032086,1.000543
2011-09-30T11:54:48.079671,8840,-0.599514,1.907822,0.307674,-0.030699,0.030397,0.996872
2011-09-30T11:54:48.089671,8850,-0.561642,2.040858,0.308789,-0.031900,0.028755,0.993241
2011-09-30T11:54:48.099671,8860,-0.573962,2.053038,0.310434,-0.033628,0.029779,0.991802
2011-09-30T11:54:48.109671,8870,-0.586283,2.065218,0.312079,-0.035356,0.030804,0.990364
2011-09-30T11:54:48.119671,8880,-0.598603,2.077398,0.313724,-0.037084,0.031828,0.988925
2011-09-30T11:54:48.129671,8890,-0.610923,2.089578,0.315369,-0.038812,0.032852,0.987487
2011-09-30T11:54:48.139671,8900,-0.623244,2.101758,0.317014,-0.040540,0.033876,0.986049
2011-09-30T11:54:48.149671,8910,-0.635564,2.113938,0.318659,-0.042268,0.034900,0.984610
2011-09-30T11:54:48.159671,8920,-0.647885,2.126118,0.320304,-0.043996,0.035924,0.983172
2011-09-30T11:54:48.169671,8930,-0.660205,2.138297,0.321949,-0.045724,0.036948,0.981733
2011-09-30T11:54:48.179671,8940,-0.672526,2.150477,0.323594,-0.047451,0.037972,0.980295
2011-09-30T11:54:48.189671,8950,-0.684846,2.162657,0.325239,-0.049179,0.038996,0.978856
2011-09-30T11:54:48.199671,8960,-0.696558,2.171688,0.326702,-0.050913,0.039967,0.977334
2011-09-30T11:54:48.209671,8970,-0.677154,2.019740,0.318853,-0.052920,0.038207,0.971536
2011-09-30T11:54:48.219671,8980,-0.657750,1.867792,0.311005,-0.054927,0.036447,0.965738
2011-09-30T11:54:48.229671,8990,-0.638346,1.715844,0.303156,-0.056935,0.034687,0.959940
2011-09-30T11:54:48.239671,9000,-0.618942,1.563896,0.295307,-0.058942,0.032928,0.954142
2011-09-30T11:54:48.249671,9010,-0.599539,1.411948,0.287459,-0.060950,0.031168,0.948344
2011-09-30T11:54:48.259671,9020,-0.580135,1.260001,0.279610,-0.062957,0.029408,0.942546
2011-09-30T11:54:48.269671,9030,-0.560731,1.108053,0.271761,-0.064964,0.027648,0.936748
2011-09-30T11:54:48.279671,9040,-0.541327,0.956105,0.263913,-0.066972,0.025888,0.930950
2011-09-30T11:54:48.289671,9050,-0.521923,0.804157,0.256064,-0.068979,0.024128,0.925152
2011-09-30T11:54:48.299671,9060,-0.501947,0.652440,0.248426,-0.070958,0.022395,0.919561
2011-09-30T11:54:48.309671,9070,-0.447407,0.514635,0.253493,-0.071204,0.022276,0.926517
2011-09-30T11:54:48.319671,9080,-0.392868,0.376829,0.258560,-0.071449,0.022156,0.933472
2011-09-30T11:54:48.329671,9090,-0.338328,0.239024,0.263628,-0.071695,0.022037,0.940428
2011-09-30T11:54:48.339671,9100,-0.283788,0.101219,0.268695,-0.071941,0.021918,0.947384
2011-09-30T11:54:48.349671,9110,-0.229248,-0.036586,0.273762,-0.072186,0.021798,0.954339
2011-09-30T11:54:48.359671,9120,-0.174708,-0.174391,0.278830,-0.072432,0.021679,0.961295
2011-09-30T11:54:48.369671,9130,-0.120168,-0.312196,0.283897,-0.072678,0.021560,0.968250
2011-09-30T11:54:48.379671,9140,-0.065629,-0.450002,0.288964,-0.072924,0.021440,0.975206
2011-09-30T11:54:48.389671,9150,-0.011089,-0.587807,0.294032,-0.073169,0.021321,0.982162
2011-09-30T11:54:48.399671,9160,0.043451,-0.725612,0.299099,-0.073415,0.021202,0.989117
2011-09-30T11:54:48.409671,9170,0.096699,-0.859843,0.304079,-0.073679,0.021091,0.995986
2011-09-30T11:54:48.419671,9180,0.087556,-0.821502,0.304868,-0.074798,0.021387,0.998639
2011-09-30T11:54:48.429671,9190,0.078413,-0.783161,0.305657,-0.075917,0.021682,1.001293
2011-09-30T11:54:48.439671,9200,0.069270,-0.744819,0.306445,-0.077036,0.021978,1.003946
2011-09-30T11:54:48.449671,9210,0.060127,-0.706478,0.307234,-0.078155,0.022273,1.006600
2011-09-30T11:54:48.459671,9220,0.050983,-0.668137,0.308023,-0.079274,0.022569,1.009253
2011-09-30T11:54:48.469671,9230,0.041840,-0.629795,0.308811,-0.080393,0.022864,1.011907
2011-09-30T11:54:48.479671,9240,0.032697,-0.591454,0.309600,-0.081512,0.023160,1.014560
2011-09-30T11:54:48.489671,9250,0.023554,-0.553113,0.310389,-0.082631,0.023455,1.017214
2011-09-30T11:54:48.499671,9260,0.014411,-0.514771,0.311177,-0.083750,0.023751,1.019867
2011-09-30T11:54:48.509671,9270,0.005603,-0.476267,0.311921,-0.084906,0.024048,1.022492
2011-09-30T11:54:48.519671,9280,0.026354,-0.423374,0.308687,-0.089343,0.024522,1.022536
2011-09-30T11:54:48.529671,9290,0.047104,-0.370481,0.305453,-0.093780,0.024995,1.022580
2011-09-30T11:54:48.539671,9300,0.067855,-0.317588,0.302219,-0.098217,0.025468,1.022624
2011-09-30T11:54:48.549671,9310,0.088606,-0.264694,0.298985,-0.102655,0.025942,1.022668
2011-09-30T11:54:48.559671,9320,0.109356,-0.211801,0.295751,-0.107092,0.026415,1.022712
2011-09-30T11:54:48.569671,9330,0.130107,-0.158908,0.292516,-0.111529,0.026889,1.022757
2011-09-30T11:54:48.579671,9340,0.150857,-0.106015,0.289282,-0.115966,0.027362,1.022801
2011-09-30T11:54:48.589671,9350,0.171608,-0.053122,0.286048,-0.120403,0.027836,1.022845
2011-09-30T11:54:48.599671,9360,0.192359,-0.000229,0.282814,-0.124840,0.028309,1.022889
2011-09-30T11:54:48.609671,9370,0.213109,0.052664,0.279580,-0.129277,0.028782,1.022933
2011-09-30T11:54:48.619671,9380,0.234221,0.104646,0.276638,-0.133658,0.029245,1.022927
2011-09-30T11:54:48.629671,9390,0.272355,0.113731,0.287452,-0.135389,0.029175,1.020556
2011-09-30T11:54:48.639671,9400,0.310488,0.122815,0.298266,-0.137121,0.029106,1.018185
2011-09-30T11:54:48.649671,9410,0.348621,0.131899,0.309080,-0.138853,0.029036,1.015815
2011-09-30T11:54:48.659671,9420,0.386754,0.140984,0.319894,-0.140585,0.028967,1.013444
2011-09-30T11:54:48.669671,9430,0.424887,0.150068,0.330708,-0.142316,0.028898,1.011073
2011-09-30T11:54:48.679671,9440,0.463021,0.159152,0.341522,-0.144048,0.028828,1.008702
2011-09-30T11:54:48.689671,9450,0.501154,0.168237,0.352335,-0.145780,0.028759,1.006331
2011-09-30T11:54:48.699671,9460,0.539287,0.177321,0.363149,-0.147512,0.028689,1.003960
2011-09-30T11:54:48.709671,9470,0.577420,0.186405,0.373963,-0.149243,0.028620,1.001589
2011-09-30T11:54:48.719671,9480,0.615261,0.196715,0.384493,-0.151015,0.028614,0.999311
2011-09-30T11:54:48.729671,9490,0.640493,0.259816,0.382782,-0.154488,0.031341,1.000999
2011-09-30T11:54:48.739671,9500,0.665724,0.322918,0.381072,-0.157962,0.034069,1.002687
2011-09-30T11:54:48.749671,9510,0.690956,0.386019,0.379362,-0.161435,0.036796,1.004375
2011-09-30T11:54:48.759671,9520,0.716187,0.449121,0.377651,-0.164909,0.039524,1.006064
2011-09-30T11:54:48.769671,9530,0.741419,0.512222,0.375941,-0.168382,0.042251,1.007752
2011-09-30T11:54:48.779671,9540,0.766650,0.575324,0.374230,-0.171855,0.044978,1.009440
2011-09-30T11:54:48.789671,9550,0.791882,0.638425,0.372520,-0.175329,0.047706,1.011129
2011-09-30T11:54:48.799671,9560,0.817114,0.701527,0.370810,-0.178802,0.050433,1.012817
2011-09-30T11:54:48.809671,9570,0.842345,0.764628,0.369099,-0.182276,0.053161,1.014505
2011-09-30T11:54:48.819671,9580,0.865718,0.827403,0.367219,-0.185691,0.055818,1.016126
2011-09-30T11:54:48.829671,9590,0.796967,0.873987,0.356950,-0.186234,0.055010,1.014388
2011-09-30T11:54:48.839671,9600,0.728216,0.920570,0.346681,-0.186777,0.054202,1.012650
2011-09-30T11:54:48.849671,9610,0.659464,0.967154,0.336412,-0.187320,0.053394,1.010912
2011-09-30T11:54:48.859671,9620,0.590713,1.013738,0.326143,-0.187863,0.052586,1.009174
2011-09-30T11:54:48.869671,9630,0.521962,1.060321,0.315873,-0.188405,0.051778,1.007436
2011-09-30T11:54:48.879671,9640,0.453210,1.106905,0.305604,-0.188948,0.050970,1.005698
2011-09-30T11:54:48.889671,9650,0.384459,1.153489,0.295335,-0.189491,0.050162,1.003960
2011-09-30T11:54:48.899671,9660,0.315708,1.200072,0.285066,-0.190034,0.049354,1.002222
2011-09-30T11:54:48.909671,9670,0.246957,1.246656,0.274797,-0.190577,0.048546,1.000484
2011-09-30T11:54:48.919671,9680,0.178205,1.293240,0.264527,-0.191120,0.047738,0.998746
2011-09-30T11:54:48.929671,9690,0.111326,1.337927,0.254857,-0.191698,0.046908,0.996983
2011-09-30T11:54:48.939671,9700,0.147762,1.277981,0.278241,-0.194251,0.044850,0.993842
2011-09-30T11:54:48.949671,9710,0.184199,1.218035,0.301624,-0.196803,0.042793,0.990702
2011-09-30T11:54:48.959671,9720,0.220635,1.158089,0.325008,-0.199355,0.040735,0.987562
2011-09-30T11:54:48.969671,9730,0.257071,1.098144,0.348392,-0.201908,0.038677,0.984422
2011-09-30T11:54:48.979671,9740,0.293508,1.038198,0.371775,-0.204460,0.036619,0.981281
2011-09-30T11:54:48.989671,9750,0.329944,0.978252,0.395159,-0.207013,0.034562,0.978141
2011-09-30T11:54:48.999671,9760,0.366380,0.918306,0.418542,-0.209565,0.032504,0.975001
2011-09-30T11:54:49.009671,9770,0.402816,0.858360,0.441926,-0.212117,0.030446,0.971861
2011-09-30T11:54:49.019671,9780,0.439253,0.798414,0.465309,-0.214670,0.028389,0.968721
2011-09-30T11:54:49.029671,9790,0.475554,0.738448,0.488867,-0.217217,0.026345,0.965604
2011-09-30T11:54:49.039671,9800,0.483846,0.674456,0.548536,-0.218646,0.027340,0.967480
2011-09-30T11:54:49.049671,9810,0.492137,0.610463,0.608206,-0.220076,0.028334,0.969355
2011-09-30T11:54:49.059671,9820,0.500428,0.546470,0.667876,-0.221505,0.029328,0.971231
2011-09-30T11:54:49.069671,9830,0.508720,0.482477,0.727546,-0.222934,0.030322,0.973106
2011-09-30T11:54:49.079671,9840,0.517011,0.418485,0.787215,-0.224364,0.031316,0.974982
2011-09-30T11:54:49.089671,9850,0.525303,0.354492,0.846885,-0.225793,0.032310,0.976857
2011-09-30T11:54:49.099671,9860,0.533594,0.290499,0.906555,-0.227223,0.033304,0.978733
2011-09-30T11:54:49.109671,9870,0.541885,0.226507,0.966224,-0.228652,0.034298,0.980608
2011-09-30T11:54:49.119671,9880,0.550177,0.162514,1.025894,-0.230081,0.035292,0.982484
2011-09-30T11:54:49.129671,9890,0.558468,0.098521,1.085564,-0.231511,0.036286,0.984359
2011-09-30T11:54:49.139671,9900,0.566246,0.035279,1.145190,-0.232928,0.037301,0.986204
2011-09-30T11:54:49.149671,9910,0.549379,0.008085,1.202740,-0.233778,0.039343,0.986575
2011-09-30T11:54:49.159671,9920,0.532511,-0.019109,1.260290,-0.234628,0.041385,0.986947
2011-09-30T11:54:49.169671,9930,0.515644,-0.046303,1.317840,-0.235478,0.043427,0.987318
2011-09-30T11:54:49.179671,9940,0.498776,-0.073497,1.375390,-0.236327,0.045468,0.987690
2011-09-30T11:54:49.189671,9950,0.481908,-0.100691,1.432940,-0.237177,0.047510,0.988061
2011-09-30T11:54:49.199671,9960,0.465041,-0.127884,1.490490,-0.238027,0.049552,0.988432
2011-09-30T11:54:49.209671,9970,0.448173,-0.155078,1.548040,-0.238877,0.051594,0.988804
2011-09-30T11:54:49.219671,9980,0.431305,-0.182272,1.605590,-0.239727,0.053635,0.989175
2011-09-30T11:54:49.229671,9990,0.414438,-0.209466,1.663140,-0.240577,0.055677,0.989546
2011-09-30T11:54:49.239671,10000,0.397335,-0.236575,1.719921,-0.241415,0.057679,0.989908
2011-09-30T11:54:49.249671,10010,0.366725,-0.258846,1.732462,-0.241609,0.057382,0.989708
2011-09-30T11:54:49.259671,10020,0.336115,-0.281117,1.745002,-0.241804,0.057085,0.989509
2011-09-30T11:54:49.269671,10030,0.305504,-0.303388,1.757543,-0.241998,0.056788,0.989310
2011-09-30T11:54:49.279671,10040,0.274894,-0.325659,1.770084,-0.242192,0.056491,0.989110
2011-09-30T11:54:49.289671,10050,0.244284,-0.347929,1.782625,-0.242386,0.056195,0.988911
2011-09-30T11:54:49.299671,10060,0.213674,-0.370200,1.795166,-0.242580,0.055898,0.988712
2011-09-30T11:54:49.309671,10070,0.183063,-0.392471,1.807707,-0.242775,0.055601,0.988512
2011-09-30T11:54:49.319671,10080,0.152453,-0.414742,1.820248,-0.242969,0.055304,0.988313
2011-09-30T11:54:49.329671,10090,0.121843,-0.437013,1.832788,-0.243163,0.055007,0.988113
2011-09-30T11:54:49.339671,10100,0.091721,-0.457974,1.844890,-0.243360,0.054725,0.987971
2011-09-30T11:54:49.349671,10110,0.084832,-0.416686,1.836113,-0.243689,0.055150,0.990545
2011-09-30T11:54:49.359671,10120,0.077943,-0.375398,1.827336,-0.244019,0.055576,0.993118
2011-09-30T11:54:49.369671,10130,0.071054,-0.334111,1.818559,-0.244349,0.056001,0.995692
2011-09-30T11:54:49.379671,10140,0.064165,-0.292823,1.809781,-0.244678,0.056426,0.998266
2011-09-30T11:54:49.389671,10150,0.057276,-0.251535,1.801004,-0.245008,0.056851,1.000839
2011-09-30T11:54:49.399671,10160,0.050387,-0.210248,1.792227,-0.245337,0.057276,1.003413
2011-09-30T11:54:49.409671,10170,0.043497,-0.168960,1.783450,-0.245667,0.057702,1.005987
2011-09-30T11:54:49.419671,10180,0.036608,-0.127672,1.774673,-0.245996,0.058127,1.008560
2011-09-30T11:54:49.429671,10190,0.029719,-0.086384,1.765896,-0.246326,0.058552,1.011134
2011-09-30T11:54:49.439671,10200,0.022830,-0.045097,1.757118,-0.246655,0.058977,1.013708
2011-09-30T11:54:49.449671,10210,0.015520,-0.003528,1.748407,-0.246985,0.059401,1.016235
2011-09-30T11:54:49.459671,10220,-0.029000,0.062911,1.745465,-0.247319,0.059674,1.014644
2011-09-30T11:54:49.469671,10230,-0.073520,0.129351,1.742524,-0.247653,0.059947,1.013054
2011-09-30T11:54:49.479671,10240,-0.118040,0.195790,1.739583,-0.247987,0.060219,1.011463
2011-09-30T11:54:49.489671,10250,-0.162560,0.262229,1.736642,-0.248321,0.060492,1.009873
2011-09-30T11:54:49.499671,10260,-0.207080,0.328669,1.733701,-0.248655,0.060765,1.008282
2011-09-30T11:54:49.509671,10270,-0.251601,0.395108,1.730760,-0.248989,0.061038,1.006692
2011-09-30T11:54:49.519671,10280,-0.296121,0.461547,1.727819,-0.249323,0.061311,1.005101
2011-09-30T11:54:49.529671,10290,-0.340641,0.527986,1.724878,-0.249657,0.061584,1.003510
2011-09-30T11:54:49.539671,10300,-0.385161,0.594426,1.721937,-0.249991,0.061857,1.001920
2011-09-30T11:54:49.549671,10310,-0.429578,0.660696,1.718993,-0.250325,0.062127,1.000332
2011-09-30T11:54:49.559671,10320,-0.431186,0.656494,1.714889,-0.250948,0.061169,0.999672
2011-09-30T11:54:49.569671,10330,-0.432794,0.652292,1.710785,-0.251572,0.060211,0.999012
2011-09-30T11:54:49.579671,10340,-0.434401,0.648090,1.706681,-0.252195,0.059254,0.998353
2011-09-30T11:54:49.589671,10350,-0.436009,0.643889,1.702577,-0.252818,0.058296,0.997693
2011-09-30T11:54:49.599671,10360,-0.437616,0.639687,1.698473,-0.253441,0.057339,0.997033
2011-09-30T11:54:49.609671,10370,-0.439224,0.635485,1.694369,-0.254064,0.056381,0.996374
2011-09-30T11:54:49.619671,10380,-0.440831,0.631283,1.690265,-0.254687,0.055423,0.995714
2011-09-30T11:54:49.629671,10390,-0.442439,0.627081,1.686161,-0.255310,0.054466,0.995055
2011-09-30T11:54:49.639671,10400,-0.444047,0.622879,1.682057,-0.255933,0.053508,0.994395
2011-09-30T11:54:49.649671,10410,-0.445654,0.618677,1.677953,-0.256556,0.052550,0.993735
2011-09-30T11:54:49.659671,10420,-0.447203,0.614759,1.673887,-0.257192,0.051603,0.993030
2011-09-30T11:54:49.669671,10430,-0.445679,0.625631,1.671847,-0.258503,0.051169,0.989935
2011-09-30T11:54:49.679671,10440,-0.444156,0.636503,1.669807,-0.259813,0.050734,0.986839
2011-09-30T11:54:49.689671,10450,-0.442633,0.647375,1.667767,-0.261123,0.050300,0.983744
2011-09-30T11:54:49.699671,10460,-0.441109,0.658247,1.665727,-0.262433,0.049866,0.980649
2011-09-30T11:54:49.709671,10470,-0.439586,0.669120,1.663686,-0.263744,0.049432,0.977553
2011-09-30T11:54:49.719671,10480,-0.438062,0.679992,1.661646,-0.265054,0.048998,0.974458
2011-09-30T11:54:49.729671,10490,-0.436539,0.690864,1.659606,-0.266364,0.048564,0.971362
2011-09-30T11:54:49.739671,10500,-0.435015,0.701736,1.657566,-0.267674,0.048130,0.968267
2011-09-30T11:54:49.749671,10510,-0.433492,0.712608,1.655526,-0.268984,0.047696,0.965172
2011-09-30T11:54:49.759671,10520,-0.432681,0.722636,1.653258,-0.270291,0.047297,0.962219
2011-09-30T11:54:49.769671,10530,-0.461242,0.697847,1.641609,-0.271431,0.048377,0.965151
2011-09-30T11:54:49.779671,10540,-0.489804,0.673058,1.629961,-0.272572,0.049457,0.968083
2011-09-30T11:54:49.789671,10550,-0.518365,0.648269,1.618312,-0.273712,0.050537,0.971015
2011-09-30T11:54:49.799671,10560,-0.546926,0.623481,1.606663,-0.274852,0.051617,0.973946
2011-09-30T11:54:49.809671,10570,-0.575487,0.598692,1.595015,-0.275993,0.052697,0.976878
2011-09-30T11:54:49.819671,10580,-0.604049,0.573903,1.583366,-0.277133,0.053777,0.979810
2011-09-30T11:54:49.829671,10590,-0.632610,0.549114,1.571718,-0.278274,0.054857,0.982742
2011-09-30T11:54:49.839671,10600,-0.661171,0.524326,1.560069,-0.279414,0.055936,0.985674
2011-09-30T11:54:49.849671,10610,-0.689732,0.499537,1.548420,-0.280554,0.057016,0.988606
2011-09-30T11:54:49.859671,10620,-0.718294,0.474748,1.536772,-0.281695,0.058096,0.991537
2011-09-30T11:54:49.869671,10630,-0.746887,0.450095,1.525122,-0.282831,0.059161,0.994447
2011-09-30T11:54:49.879671,10640,-0.779325,0.441930,1.513352,-0.283434,0.058381,0.994643
2011-09-30T11:54:49.889671,10650,-0.811763,0.433765,1.501582,-0.284037,0.057602,0.994840
2011-09-30T11:54:49.899671,10660,-0.844201,0.425600,1.489812,-0.284639,0.056823,0.995036
2011-09-30T11:54:49.909671,10670,-0.876640,0.417435,1.478042,-0.285242,0.056043,0.995233
2011-09-30T11:54:49.919671,10680,-0.909078,0.409270,1.466272,-0.285845,0.055264,0.995429
2011-09-30T11:54:49.929671,10690,-0.941516,0.401105,1.454502,-0.286448,0.054485,0.995626
2011-09-30T11:54:49.939671,10700,-0.973955,0.392939,1.442732,-0.287051,0.053705,0.995822
2011-09-30T11:54:49.949671,10710,-1.006393,0.384774,1.430962,-0.287654,0.052926,0.996018
2011-09-30T11:54:49.959671,10720,-1.038831,0.376609,1.419191,-0.288256,0.052147,0.996215
2011-09-30T11:54:49.969671,10730,-1.070786,0.367410,1.407722,-0.288883,0.051366,0.996375
2011-09-30T11:54:49.979671,10740,-1.069791,0.287829,1.416713,-0.291103,0.050486,0.994065
2011-09-30T11:54:49.989671,10750,-1.068797,0.208248,1.425705,-0.293324,0.049606,0.991755
2011-09-30T11:54:49.999671,10760,-1.067803,0.128667,1.434696,-0.295544,0.048726,0.989445
2011-09-30T11:54:50.009671,10770,-1.066808,0.049086,1.443688,-0.297765,0.047846,0.987135
2011-09-30T11:54:50.019671,10780,-1.065814,-0.030496,1.452679,-0.299985,0.046966,0.984824
2011-09-30T11:54:50.029671,10790,-1.064819,-0.110077,1.461671,-0.302206,0.046086,0.982514
2011-09-30T11:54:50.039671,10800,-1.063825,-0.189658,1.470662,-0.304426,0.045206,0.980204
2011-09-30T11:54:50.049671,10810,-1.062831,-0.269239,1.479654,-0.306647,0.044326,0.977894
2011-09-30T11:54:50.059671,10820,-1.061836,-0.348820,1.488645,-0.308867,0.043446,0.975584
2011-09-30T11:54:50.069671,10830,-1.060464,-0.429259,1.497333,-0.311047,0.042578,0.973342
2011-09-30T11:54:50.079671,10840,-1.042071,-0.548367,1.492313,-0.311403,0.042270,0.974156
2011-09-30T11:54:50.089671,10850,-1.023677,-0.667475,1.487293,-0.311758,0.041962,0.974970
2011-09-30T11:54:50.099671,10860,-1.005284,-0.786583,1.482273,-0.312114,0.041654,0.975784
2011-09-30T11:54:50.109671,10870,-0.986891,-0.905691,1.477253,-0.312470,0.041345,0.976598
2011-09-30T11:54:50.119671,10880,-0.968497,-1.024799,1.472233,-0.312825,0.041037,0.977412
2011-09-30T11:54:50.129671,10890,-0.950104,-1.143907,1.467213,-0.313181,0.040729,0.978226
2011-09-30T11:54:50.139671,10900,-0.931710,-1.263015,1.462193,-0.313536,0.040421,0.979040
2011-09-30T11:54:50.149671,10910,-0.913317,-1.382124,1.457173,-0.313892,0.040113,0.979854
2011-09-30T11:54:50.159671,10920,-0.894923,-1.501232,1.452153,-0.314248,0.039805,0.980669
2011-09-30T11:54:50.169671,10930,-0.876530,-1.620340,1.447133,-0.314603,0.039496,0.981483
2011-09-30T11:54:50.179671,10940,-0.859842,-1.737227,1.442148,-0.314930,0.039206,0.982305
2011-09-30T11:54:50.189671,10950,-0.911112,-1.765658,1.438541,-0.314100,0.039618,0.983450
2011-09-30T11:54:50.199671,10960,-0.962381,-1.794088,1.434935,-0.313271,0.040031,0.984596
2011-09-30T11:54:50.209671,10970,-1.013651,-1.822519,1.431329,-0.312441,0.040444,0.985741
2011-09-30T11:54:50.219671,10980,-1.064920,-1.850949,1.427722,-0.311611,0.040856,0.986886
2011-09-30T11:54:50.229671,10990,-1.116190,-1.879380,1.424116,-0.310782,0.041269,0.988031
2011-09-30T11:54:50.239671,11000,-1.167459,-1.907810,1.420510,-0.309952,0.041681,0.989177
2011-09-30T11:54:50.249671,11010,-1.218729,-1.936240,1.416904,-0.309123,0.042094,0.990322
2011-09-30T11:54:50.259671,11020,-1.269998,-1.964671,1.413297,-0.308293,0.042507,0.991467
2011-09-30T11:54:50.269671,11030,-1.321268,-1.993101,1.409691,-0.307463,0.042919,0.992613
2011-09-30T11:54:50.279671,11040,-1.371008,-2.019678,1.405511,-0.306633,0.043263,0.993784
2011-09-30T11:54:50.289671,11050,-1.357171,-1.969199,1.377459,-0.305773,0.040733,0.996024
2011-09-30T11:54:50.299671,11060,-1.343334,-1.918719,1.349408,-0.304913,0.038204,0.998265
2011-09-30T11:54:50.309671,11070,-1.329497,-1.868240,1.321357,-0.304054,0.035675,1.000506
2011-09-30T11:54:50.319671,11080,-1.315659,-1.817760,1.293305,-0.303194,0.033145,1.002747
2011-09-30T11:54:50.329671,11090,-1.301822,-1.767281,1.265254,-0.302334,0.030616,1.004987
2011-09-30T11:54:50.339671,11100,-1.287985,-1.716802,1.237203,-0.301474,0.028086,1.007228
2011-09-30T11:54:50.349671,11110,-1.274148,-1.666322,1.209151,-0.300614,0.025557,1.009469
2011-09-30T11:54:50.359671,11120,-1.260311,-1.615843,1.181100,-0.299754,0.023028,1.011710
2011-09-30T11:54:50.369671,11130,-1.246473,-1.565363,1.153049,-0.298895,0.020498,1.013950
2011-09-30T11:54:50.379671,11140,-1.232636,-1.514884,1.124997,-0.298035,0.017969,1.016191
2011-09-30T11:54:50.389671,11150,-1.218856,-1.464056,1.096367,-0.297149,0.015525,1.018416
2011-09-30T11:54:50.399671,11160,-1.207609,-1.397770,1.041976,-0.295132,0.016875,1.019943
2011-09-30T11:54:50.409671,11170,-1.196362,-1.331484,0.987585,-0.293116,0.018224,1.021470
2011-09-30T11:54:50.419671,11180,-1.185116,-1.265197,0.933194,-0.291099,0.019574,1.022997
2011-09-30T11:54:50.429671,11190,-1.173869,-1.198911,0.878803,-0.289082,0.020923,1.024525
2011-09-30T11:54:50.439671,11200,-1.162622,-1.132625,0.824412,-0.287065,0.022273,1.026052
2011-09-30T11:54:50.449671,11210,-1.151375,-1.066339,0.770021,-0.285048,0.023623,1.027579
2011-09-30T11:54:50.459671,11220,-1.140128,-1.000052,0.715629,-0.283031,0.024972,1.029106
2011-09-30T11:54:50.469671,11230,-1.128881,-0.933766,0.661238,-0.281014,0.026322,1.030633
2011-09-30T11:54:50.479671,11240,-1.117634,-0.867480,0.606847,-0.278997,0.027672,1.032160
2011-09-30T11:54:50.489671,11250,-1.106388,-0.801193,0.552456,-0.276980,0.029021,1.033687
2011-09-30T11:54:50.499671,11260,-1.125562,-0.708802,0.462591,-0.273875,0.028455,1.032601
2011-09-30T11:54:50.509671,11270,-1.144918,-0.616256,0.372514,-0.270765,0.027878,1.031500
2011-09-30T11:54:50.519671,11280,-1.164274,-0.523710,0.282438,-0.267654,0.027301,1.030398
2011-09-30T11:54:50.529671,11290,-1.183629,-0.431164,0.192361,-0.264543,0.026723,1.029296
2011-09-30T11:54:50.539671,11300,-1.202985,-0.338618,0.102285,-0.261432,0.026146,1.028195
2011-09-30T11:54:50.549671,11310,-1.222341,-0.246072,0.012208,-0.258322,0.025568,1.027093
2011-09-30T11:54:50.559671,11320,-1.241696,-0.153526,-0.077868,-0.255211,0.024991,1.025991
2011-09-30T11:54:50.569671,11330,-1.261052,-0.060979,-0.167945,-0.252100,0.024414,1.024890
2011-09-30T11:54:50.579671,11340,-1.280408,0.031567,-0.258021,-0.248989,0.023836,1.023788
2011-09-30T11:54:50.589671,11350,-1.300755,0.123510,-0.348494,-0.245932,0.023246,1.022665
2011-09-30T11:54:50.599671,11360,-1.361315,0.191011,-0.455019,-0.245018,0.022150,1.020681
2011-09-30T11:54:50.609671,11370,-1.421875,0.258511,-0.561544,-0.244104,0.021054,1.018698
2011-09-30T11:54:50.619671,11380,-1.482434,0.326012,-0.668069,-0.243190,0.019958,1.016714
2011-09-30T11:54:50.629671,11390,-1.542994,0.393513,-0.774594,-0.242277,0.018862,1.014731
2011-09-30T11:54:50.639671,11400,-1.603554,0.461014,-0.881119,-0.241363,0.017766,1.012747
2011-09-30T11:54:50.649671,11410,-1.664114,0.528514,-0.987644,-0.240449,0.016670,1.010763
2011-09-30T11:54:50.659671,11420,-1.724674,0.596015,-1.094169,-0.239535,0.015574,1.008780
2011-09-30T11:54:50.669671,11430,-1.785233,0.663516,-1.200694,-0.238621,0.014478,1.006796
2011-09-30T11:54:50.679671,11440,-1.845793,0.731017,-1.307219,-0.237708,0.013382,1.004812
2011-09-30T11:54:50.689671,11450,-1.906353,0.798517,-1.413744,-0.236794,0.012286,1.002829
2011-09-30T11:54:50.699671,11460,-1.964352,0.864544,-1.520747,-0.235890,0.011132,1.000867
2011-09-30T11:54:50.709671,11470,-1.919933,0.871617,-1.646882,-0.235365,0.007654,0.999776
2011-09-30T11:54:50.719671,11480,-1.875513,0.878691,-1.773017,-0.234840,0.004177,0.998686
2011-09-30T11:54:50.729671,11490,-1.831093,0.885764,-1.899151,-0.234315,0.000699,0.997595
2011-09-30T11:54:50.739671,11500,-1.786673,0.892837,-2.025286,-0.233790,-0.002779,0.996505
2011-09-30T11:54:50.749671,11510,-1.742253,0.899910,-2.151421,-0.233265,-0.006256,0.995414
2011-09-30T11:54:50.759671,11520,-1.697833,0.906983,-2.277556,-0.232740,-0.009734,0.994323
2011-09-30T11:54:50.769671,11530,-1.653413,0.914056,-2.403691,-0.232215,-0.013212,0.993233
2011-09-30T11:54:50.779671,11540,-1.608993,0.921129,-2.529825,-0.231690,-0.016689,0.992142
2011-09-30T11:54:50.789671,11550,-1.564573,0.928202,-2.655960,-0.231165,-0.020167,0.991052
2011-09-30T11:54:50.799671,11560,-1.519084,0.935408,-2.781603,-0.230630,-0.023620,0.989972
2011-09-30T11:54:50.809671,11570,-1.420575,0.949210,-2.882850,-0.229586,-0.025868,0.989448
2011-09-30T11:54:50.819671,11580,-1.322067,0.963011,-2.984097,-0.228542,-0.028116,0.988923
2011-09-30T11:54:50.829671,11590,-1.223559,0.976812,-3.085344,-0.227499,-0.030363,0.988398
2011-09-30T11:54:50.839671,11600,-1.125051,0.990614,-3.186591,-0.226455,-0.032611,0.987874
2011-09-30T11:54:50.849671,11610,-1.026542,1.004415,-3.287839,-0.225411,-0.034859,0.987349
2011-09-30T11:54:50.859671,11620,-0.928034,1.018217,-3.389086,-0.224367,-0.037107,0.986825
2011-09-30T11:54:50.869671,11630,-0.829526,1.032018,-3.490333,-0.223324,-0.039354,0.986300
2011-09-30T11:54:50.879671,11640,-0.731018,1.045819,-3.591580,-0.222280,-0.041602,0.985775
2011-09-30T11:54:50.889671,11650,-0.632510,1.059621,-3.692827,-0.221236,-0.043850,0.985251
2011-09-30T11:54:50.899671,11660,-0.534001,1.073422,-3.794074,-0.220193,-0.046098,0.984726
2011-09-30T11:54:50.909671,11670,-0.436692,1.087566,-3.895797,-0.219178,-0.048253,0.984237
2011-09-30T11:54:50.919671,11680,-0.389009,1.115903,-4.017207,-0.219366,-0.046595,0.985218
2011-09-30T11:54:50.929671,11690,-0.341327,1.144240,-4.138617,-0.219554,-0.044938,0.986199
2011-09-30T11:54:50.939671,11700,-0.293644,1.172577,-4.260026,-0.219743,-0.043280,0.987181
2011-09-30T11:54:50.949671,11710,-0.245962,1.200914,-4.381436,-0.219931,-0.041622,0.988162
2011-09-30T11:54:50.959671,11720,-0.198279,1.229251,-4.502846,-0.220119,-0.039964,0.989143
2011-09-30T11:54:50.969671,11730,-0.150597,1.257588,-4.624256,-0.220307,-0.038306,0.990125
2011-09-30T11:54:50.979671,11740,-0.102914,1.285924,-4.745666,-0.220496,-0.036648,0.991106
2011-09-30T11:54:50.989671,11750,-0.055232,1.314261,-4.867076,-0.220684,-0.034990,0.992087
2011-09-30T11:54:50.999671,11760,-0.007549,1.342598,-4.988485,-0.220872,-0.033333,0.993068
2011-09-30T11:54:51.009671,11770,0.039636,1.369782,-5.109756,-0.221065,-0.031715,0.994029
2011-09-30T11:54:51.019671,11780,0.053409,1.319574,-5.221692,-0.221548,-0.032795,0.993582
2011-09-30T11:54:51.029671,11790,0.067182,1.269365,-5.333627,-0.222032,-0.033875,0.993135
2011-09-30T11:54:51.039671,11800,0.080956,1.219156,-5.445562,-0.222516,-0.034956,0.992688
2011-09-30T11:54:51.049671,11810,0.094729,1.168948,-5.557498,-0.222999,-0.036036,0.992241
2011-09-30T11:54:51.059671,11820,0.108503,1.118739,-5.669433,-0.223483,-0.037116,0.991794
2011-09-30T11:54:51.069671,11830,0.122276,1.068530,-5.781368,-0.223967,-0.038196,0.991347
2011-09-30T11:54:51.079671,11840,0.136049,1.018322,-5.893304,-0.224450,-0.039277,0.990900
2011-09-30T11:54:51.089671,11850,0.149823,0.968113,-6.005239,-0.224934,-0.040357,0.990453
2011-09-30T11:54:51.099671,11860,0.163596,0.917904,-6.117175,-0.225418,-0.041437,0.990006
2011-09-30T11:54:51.109671,11870,0.177370,0.867696,-6.229110,-0.225901,-0.042517,0.989559
2011-09-30T11:54:51.119671,11880,0.191243,0.817314,-6.340338,-0.226329,-0.043590,0.989127
2011-09-30T11:54:51.129671,11890,0.208879,0.760426,-6.424981,-0.224642,-0.044381,0.989244
2011-09-30T11:54:51.139671,11900,0.226514,0.703538,-6.509624,-0.222955,-0.045173,0.989361
2011-09-30T11:54:51.149671,11910,0.244150,0.646650,-6.594266,-0.221269,-0.045964,0.989478
2011-09-30T11:54:51.159671,11920,0.261786,0.589762,-6.678909,-0.219582,-0.046756,0.989595
2011-09-30T11:54:51.169671,11930,0.279421,0.532874,-6.763551,-0.217895,-0.047547,0.989713
2011-09-30T11:54:51.179671,11940,0.297057,0.475986,-6.848194,-0.216208,-0.048339,0.989830
2011-09-30T11:54:51.189671,11950,0.314692,0.419098,-6.932836,-0.214522,-0.049130,0.989947
2011-09-30T11:54:51.199671,11960,0.332328,0.362210,-7.017479,-0.212835,-0.049922,0.990064
2011-09-30T11:54:51.209671,11970,0.349964,0.305322,-7.102121,-0.211148,-0.050713,0.990181
2011-09-30T11:54:51.219671,11980,0.366298,0.248630,-7.187136,-0.209386,-0.051501,0.990298
2011-09-30T11:54:51.229671,11990,0.332467,0.199477,-7.286500,-0.204730,-0.052133,0.990403
2011-09-30T11:54:51.239671,12000,0.298636,0.150324,-7.385865,-0.200073,-0.052765,0.990508
2011-09-30T11:54:51.249671,12010,0.264805,0.101170,-7.485229,-0.195416,-0.053397,0.990613
2011-09-30T11:54:51.259671,12020,0.230975,0.052017,-7.584593,-0.190760,-0.054029,0.990718
2011-09-30T11:54:51.269671,12030,0.197144,0.002864,-7.683957,-0.186103,-0.054662,0.990823
2011-09-30T11:54:51.279671,12040,0.163313,-0.046289,-7.783322,-0.181446,-0.055294,0.990928
2011-09-30T11:54:51.289671,12050,0.129482,-0.095443,-7.882686,-0.176790,-0.055926,0.991033
2011-09-30T11:54:51.299671,12060,0.095652,-0.144596,-7.982050,-0.172133,-0.056558,0.991138
2011-09-30T11:54:51.309671,12070,0.061821,-0.193749,-8.081414,-0.167477,-0.057190,0.991243
2011-09-30T11:54:51.319671,12080,0.027990,-0.242903,-8.180779,-0.162820,-0.057823,0.991348
2011-09-30T11:54:51.329671,12090,-0.003841,-0.293235,-8.281256,-0.158139,-0.058450,0.991409
2011-09-30T11:54:51.339671,12100,0.041395,-0.389016,-8.424648,-0.152533,-0.058908,0.989774
2011-09-30T11:54:51.349671,12110,0.086631,-0.484796,-8.568039,-0.146927,-0.059365,0.988140
2011-09-30T11:54:51.359671,12120,0.131868,-0.580577,-8.711431,-0.141322,-0.059823,0.986506
2011-09-30T11:54:51.369671,12130,0.177104,-0.676358,-8.854822,-0.135716,-0.060280,0.984871
2011-09-30T11:54:51.379671,12140,0.222340,-0.772138,-8.998213,-0.130110,-0.060737,0.983237
2011-09-30T11:54:51.389671,12150,0.267576,-0.867919,-9.141605,-0.124504,-0.061195,0.981603
2011-09-30T11:54:51.399671,12160,0.312812,-0.963700,-9.284996,-0.118898,-0.061652,0.979968
2011-09-30T11:54:51.409671,12170,0.358048,-1.059480,-9.428388,-0.113292,-0.062109,0.978334
2011-09-30T11:54:51.419671,12180,0.403284,-1.155261,-9.571779,-0.107686,-0.062567,0.976700
2011-09-30T11:54:51.429671,12190,0.447112,-1.250890,-9.715663,-0.102168,-0.063039,0.975106
2011-09-30T11:54:51.439671,12200,0.435075,-1.340487,-9.879097,-0.100150,-0.064101,0.975131
2011-09-30T11:54:51.449671,12210,0.423038,-1.430085,-10.042532,-0.098132,-0.065163,0.975156
2011-09-30T11:54:51.459671,12220,0.411001,-1.519683,-10.205966,-0.096113,-0.066225,0.975181
2011-09-30T11:54:51.469671,12230,0.398964,-1.609280,-10.369400,-0.094095,-0.067286,0.975206
2011-09-30T11:54:51.479671,12240,0.386927,-1.698878,-10.532834,-0.092077,-0.068348,0.975231
2011-09-30T11:54:51.489671,12250,0.374890,-1.788476,-10.696268,-0.090059,-0.069410,0.975256
2011-09-30T11:54:51.499671,12260,0.362854,-1.878073,-10.859702,-0.088040,-0.070472,0.975281
2011-09-30T11:54:51.509671,12270,0.350817,-1.967671,-11.023137,-0.086022,-0.071534,0.975306
2011-09-30T11:54:51.519671,12280,0.338780,-2.057269,-11.186571,-0.084004,-0.072596,0.975331
2011-09-30T11:54:51.529671,12290,0.328729,-2.145212,-11.349948,-0.082031,-0.073665,0.975434
2011-09-30T11:54:51.539671,12300,0.402334,-2.163478,-11.510927,-0.081973,-0.075042,0.978848
2011-09-30T11:54:51.549671,12310,0.475938,-2.181745,-11.671906,-0.081916,-0.076418,0.982262
2011-09-30T11:54:51.559671,12320,0.549543,-2.200011,-11.832885,-0.081859,-0.077795,0.985676
2011-09-30T11:54:51.569671,12330,0.623147,-2.218277,-11.993863,-0.081801,-0.079172,0.989090
2011-09-30T11:54:51.579671,12340,0.696752,-2.236543,-12.154842,-0.081744,-0.080548,0.992504
2011-09-30T11:54:51.589671,12350,0.770357,-2.254810,-12.315821,-0.081686,-0.081925,0.995918
2011-09-30T11:54:51.599671,12360,0.843961,-2.273076,-12.476800,-0.081629,-0.083302,0.999332
2011-09-30T11:54:51.609671,12370,0.917566,-2.291342,-12.637779,-0.081571,-0.084678,1.002746
2011-09-30T11:54:51.619671,12380,0.991170,-2.309609,-12.798758,-0.081514,-0.086055,1.006159
2011-09-30T11:54:51.629671,12390,1.064775,-2.327875,-12.959736,-0.081457,-0.087432,1.009573
2011-09-30T11:54:51.639671,12400,1.137107,-2.343869,-13.120631,-0.081399,-0.088780,1.012934
2011-09-30T11:54:51.649671,12410,1.147673,-2.249613,-13.277432,-0.081331,-0.088782,1.013718
2011-09-30T11:54:51.659671,12420,1.158239,-2.155357,-13.434233,-0.081263,-0.088784,1.014502
2011-09-30T11:54:51.669671,12430,1.168806,-2.061101,-13.591033,-0.081194,-0.088786,1.015287
2011-09-30T11:54:51.679671,12440,1.179372,-1.966844,-13.747834,-0.081126,-0.088788,1.016071
2011-09-30T11:54:51.689671,12450,1.189938,-1.872588,-13.904635,-0.081058,-0.088790,1.016855
2011-09-30T11:54:51.699671,12460,1.200505,-1.778332,-14.061436,-0.080990,-0.088791,1.017639
2011-09-30T11:54:51.709671,12470,1.211071,-1.684076,-14.218237,-0.080922,-0.088793,1.018423
2011-09-30T11:54:51.719671,12480,1.221638,-1.589819,-14.375037,-0.080854,-0.088795,1.019207
2011-09-30T11:54:51.729671,12490,1.232204,-1.495563,-14.531838,-0.080785,-0.088797,1.019991
2011-09-30T11:54:51.739671,12500,1.242735,-1.401994,-14.688356,-0.080704,-0.088817,1.020730
2011-09-30T11:54:51.749671,12510,1.251892,-1.335347,-14.833774,-0.080121,-0.089543,1.019680
2011-09-30T11:54:51.759671,12520,1.261049,-1.268700,-14.979192,-0.079538,-0.090268,1.018631
2011-09-30T11:54:51.769671,12530,1.270205,-1.202054,-15.124610,-0.078955,-0.090994,1.017582
2011-09-30T11:54:51.779671,12540,1.279362,-1.135407,-15.270028,-0.078372,-0.091720,1.016532
2011-09-30T11:54:51.789671,12550,1.288518,-1.068761,-15.415446,-0.077789,-0.092446,1.015483
2011-09-30T11:54:51.799671,12560,1.297675,-1.002114,-15.560864,-0.077205,-0.093171,1.014434
2011-09-30T11:54:51.809671,12570,1.306832,-0.935467,-15.706282,-0.076622,-0.093897,1.013384
2011-09-30T11:54:51.819671,12580,1.315988,-0.868821,-15.851699,-0.076039,-0.094623,1.012335
2011-09-30T11:54:51.829671,12590,1.325145,-0.802174,-15.997117,-0.075456,-0.095349,1.011285
2011-09-30T11:54:51.839671,12600,1.334302,-0.735528,-16.142535,-0.074873,-0.096075,1.010236
2011-09-30T11:54:51.849671,12610,1.343212,-0.669856,-16.287834,-0.074264,-0.096786,1.009171
2011-09-30T11:54:51.859671,12620,1.333094,-0.679570,-16.423927,-0.071699,-0.096362,1.006897
2011-09-30T11:54:51.869671,12630,1.322975,-0.689283,-16.560021,-0.069133,-0.095938,1.004624
2011-09-30T11:54:51.879671,12640,1.312856,-0.698997,-16.696114,-0.066568,-0.095515,1.002350
2011-09-30T11:54:51.889671,12650,1.302738,-0.708711,-16.832207,-0.064002,-0.095091,1.000077
2011-09-30T11:54:51.899671,12660,1.292619,-0.718425,-16.968300,-0.061437,-0.094668,0.997803
2011-09-30T11:54:51.909671,12670,1.282500,-0.728138,-17.104393,-0.058871,-0.094244,0.995530
2011-09-30T11:54:51.919671,12680,1.272382,-0.737852,-17.240486,-0.056306,-0.093821,0.993256
2011-09-30T11:54:51.929671,12690,1.262263,-0.747566,-17.376579,-0.053740,-0.093397,0.990983
2011-09-30T11:54:51.939671,12700,1.252144,-0.757279,-17.512672,-0.051175,-0.092973,0.988709
2011-09-30T11:54:51.949671,12710,1.242776,-0.766401,-17.649665,-0.048663,-0.092590,0.986563
2011-09-30T11:54:51.959671,12720,1.267612,-0.748551,-17.827627,-0.048592,-0.094049,0.990214
2011-09-30T11:54:51.969671,12730,1.292447,-0.730701,-18.005588,-0.048522,-0.095508,0.993865
2011-09-30T11:54:51.979671,12740,1.317283,-0.712851,-18.183550,-0.048452,-0.096967,0.997516
2011-09-30T11:54:51.989671,12750,1.342118,-0.695002,-18.361511,-0.048381,-0.098425,1.001168
2011-09-30T11:54:51.999671,12760,1.366954,-0.677152,-18.539473,-0.048311,-0.099884,1.004819
2011-09-30T11:54:52.009671,12770,1.391789,-0.659302,-18.717434,-0.048241,-0.101343,1.008470
2011-09-30T11:54:52.019671,12780,1.416625,-0.641452,-18.895395,-0.048170,-0.102802,1.012121
2011-09-30T11:54:52.029671,12790,1.441460,-0.623603,-19.073357,-0.048100,-0.104260,1.015772
2011-09-30T11:54:52.039671,12800,1.466295,-0.605753,-19.251318,-0.048030,-0.105719,1.019424
2011-09-30T11:54:52.049671,12810,1.491131,-0.587903,-19.429280,-0.047959,-0.107178,1.023075
2011-09-30T11:54:52.059671,12820,1.515997,-0.569673,-19.606723,-0.047904,-0.108646,1.026608
2011-09-30T11:54:52.069671,12830,1.542182,-0.535254,-19.762120,-0.048503,-0.110530,1.025120
2011-09-30T11:54:52.079671,12840,1.568366,-0.500835,-19.917516,-0.049102,-0.112414,1.023632
2011-09-30T11:54:52.089671,12850,1.594551,-0.466416,-20.072913,-0.049701,-0.114298,1.022145
2011-09-30T11:54:52.099671,12860,1.620735,-0.431997,-20.228310,-0.050300,-0.116182,1.020657
2011-09-30T11:54:52.109671,12870,1.646920,-0.397578,-20.383707,-0.050899,-0.118066,1.019169
2011-09-30T11:54:52.119671,12880,1.673104,-0.363160,-20.539103,-0.051497,-0.119950,1.017682
2011-09-30T11:54:52.129671,12890,1.699289,-0.328741,-20.694500,-0.052096,-0.121834,1.016194
2011-09-30T11:54:52.139671,12900,1.725474,-0.294322,-20.849897,-0.052695,-0.123717,1.014706
2011-09-30T11:54:52.149671,12910,1.751658,-0.259903,-21.005294,-0.053294,-0.125601,1.013218
2011-09-30T11:54:52.159671,12920,1.775497,-0.227241,-21.159564,-0.053870,-0.127382,1.011720
2011-09-30T11:54:52.169671,12930,1.721817,-0.252641,-21.276595,-0.053706,-0.125760,1.009879
2011-09-30T11:54:52.179671,12940,1.668136,-0.278040,-21.393627,-0.053542,-0.124137,1.008038
2011-09-30T11:54:52.189671,12950,1.614456,-0.303440,-21.510658,-0.053378,-0.122515,1.006197
2011-09-30T11:54:52.199671,12960,1.560776,-0.328839,-21.627690,-0.053214,-0.120893,1.004356
2011-09-30T11:54:52.209671,12970,1.507095,-0.354239,-21.744721,-0.053050,-0.119270,1.002515
2011-09-30T11:54:52.219671,12980,1.453415,-0.379638,-21.861752,-0.052886,-0.117648,1.000674
2011-09-30T11:54:52.229671,12990,1.399735,-0.405038,-21.978784,-0.052722,-0.116025,0.998833
2011-09-30T11:54:52.239671,13000,1.346054,-0.430437,-22.095815,-0.052558,-0.114403,0.996992
2011-09-30T11:54:52.249671,13010,1.292374,-0.455837,-22.212847,-0.052394,-0.112781,0.995151
2011-09-30T11:54:52.259671,13020,1.238693,-0.481236,-22.329878,-0.052230,-0.111158,0.993310
2011-09-30T11:54:52.269671,13030,1.182392,-0.506140,-22.446857,-0.052063,-0.109553,0.991525
2011-09-30T11:54:52.279671,13040,1.035045,-0.513819,-22.561996,-0.051815,-0.108551,0.991688
2011-09-30T11:54:52.289671,13050,0.887698,-0.521498,-22.677135,-0.051566,-0.107550,0.991851
2011-09-30T11:54:52.299671,13060,0.740351,-0.529177,-22.792274,-0.051318,-0.106548,0.992015
2011-09-30T11:54:52.309671,13070,0.593004,-0.536856,-22.907413,-0.051069,-0.105546,0.992178
2011-09-30T11:54:52.319671,13080,0.445657,-0.544535,-23.022552,-0.050820,-0.104544,0.992341
2011-09-30T11:54:52.329671,13090,0.298310,-0.552213,-23.137691,-0.050572,-0.103543,0.992504
2011-09-30T11:54:52.339671,13100,0.150962,-0.559892,-23.252830,-0.050323,-0.102541,0.992667
2011-09-30T11:54:52.349671,13110,0.003615,-0.567571,-23.367969,-0.050075,-0.101539,0.992830
2011-09-30T11:54:52.359671,13120,-0.143732,-0.575250,-23.483108,-0.049826,-0.100538,0.992993
2011-09-30T11:54:52.369671,13130,-0.289850,-0.582337,-23.599212,-0.049550,-0.099599,0.993147
2011-09-30T11:54:52.379671,13140,-0.367778,-0.556561,-23.768888,-0.047731,-0.102172,0.992782
2011-09-30T11:54:52.389671,13150,-0.445705,-0.530785,-23.938565,-0.045913,-0.104745,0.992416
2011-09-30T11:54:52.399671,13160,-0.523633,-0.505010,-24.108241,-0.044094,-0.107318,0.992051
2011-09-30T11:54:52.409671,13170,-0.601560,-0.479234,-24.277917,-0.042276,-0.109892,0.991685
2011-09-30T11:54:52.419671,13180,-0.679488,-0.453458,-24.447593,-0.040458,-0.112465,0.991320
2011-09-30T11:54:52.429671,13190,-0.757415,-0.427682,-24.617270,-0.038639,-0.115038,0.990954
2011-09-30T11:54:52.439671,13200,-0.835343,-0.401907,-24.786946,-0.036821,-0.117611,0.990589
2011-09-30T11:54:52.449671,13210,-0.913270,-0.376131,-24.956622,-0.035002,-0.120184,0.990223
2011-09-30T11:54:52.459671,13220,-0.991198,-0.350355,-25.126298,-0.033184,-0.122757,0.989858
2011-09-30T11:54:52.469671,13230,-1.068804,-0.324491,-25.295725,-0.031372,-0.125335,0.989495
2011-09-30T11:54:52.479671,13240,-1.017785,-0.263219,-25.365174,-0.031909,-0.129673,0.990302
2011-09-30T11:54:52.489671,13250,-0.966766,-0.201947,-25.434622,-0.032446,-0.134011,0.991109
2011-09-30T11:54:52.499671,13260,-0.915747,-0.140675,-25.504071,-0.032984,-0.138349,0.991916
2011-09-30T11:54:52.509671,13270,-0.864728,-0.079403,-25.573520,-0.033521,-0.142688,0.992723
2011-09-30T11:54:52.519671,13280,-0.813709,-0.018131,-25.642968,-0.034058,-0.147026,0.993529
2011-09-30T11:54:52.529671,13290,-0.762690,0.043141,-25.712417,-0.034596,-0.151364,0.994336
2011-09-30T11:54:52.539671,13300,-0.711671,0.104413,-25.781866,-0.035133,-0.155702,0.995143
2011-09-30T11:54:52.549671,13310,-0.660652,0.165685,-25.851315,-0.035670,-0.160040,0.995950
2011-09-30T11:54:52.559671,13320,-0.609632,0.226958,-25.920763,-0.036208,-0.164379,0.996757
2011-09-30T11:54:52.569671,13330,-0.558613,0.288230,-25.990212,-0.036745,-0.168717,0.997564
2011-09-30T11:54:52.579671,13340,-0.507488,0.348181,-26.059145,-0.037280,-0.172855,0.998378
2011-09-30T11:54:52.589671,13350,-0.452623,0.361749,-26.109982,-0.037748,-0.169970,0.999457
2011-09-30T11:54:52.599671,13360,-0.397757,0.375317,-26.160818,-0.038216,-0.167084,1.000536
2011-09-30T11:54:52.609671,13370,-0.342892,0.388885,-26.211654,-0.038683,-0.164199,1.001615
2011-09-30T11:54:52.619671,13380,-0.288027,0.402454,-26.262491,-0.039151,-0.161314,1.002694
2011-09-30T11:54:52.629671,13390,-0.233162,0.416022,-26.313327,-0.039618,-0.158429,1.003773
2011-09-30T11:54:52.639671,13400,-0.178296,0.429590,-26.364163,-0.040086,-0.155543,1.004852
2011-09-30T11:54:52.649671,13410,-0.123431,0.443158,-26.414999,-0.040554,-0.152658,1.005931
2011-09-30T11:54:52.659671,13420,-0.068566,0.456726,-26.465836,-0.041021,-0.149773,1.007010
2011-09-30T11:54:52.669671,13430,-0.013701,0.470294,-26.516672,-0.041489,-0.146888,1.008089
2011-09-30T11:54:52.679671,13440,0.041227,0.481249,-26.568070,-0.041956,-0.144113,1.009136
2011-09-30T11:54:52.689671,13450,0.098197,0.406499,-26.637895,-0.042398,-0.144973,1.009152
2011-09-30T11:54:52.699671,13460,0.155167,0.331749,-26.707720,-0.042839,-0.145834,1.009168
2011-09-30T11:54:52.709671,13470,0.212136,0.256999,-26.777545,-0.043281,-0.146694,1.009184
2011-09-30T11:54:52.719671,13480,0.269106,0.182249,-26.847370,-0.043723,-0.147554,1.009200
2011-09-30T11:54:52.729671,13490,0.326076,0.107499,-26.917195,-0.044165,-0.148414,1.009216
2011-09-30T11:54:52.739671,13500,0.383046,0.032749,-26.987020,-0.044606,-0.149274,1.009232
2011-09-30T11:54:52.749671,13510,0.440016,-0.042001,-27.056845,-0.045048,-0.150134,1.009249
2011-09-30T11:54:52.759671,13520,0.496986,-0.116751,-27.126670,-0.045490,-0.150995,1.009265
2011-09-30T11:54:52.769671,13530,0.553955,-0.191501,-27.196495,-0.045932,-0.151855,1.009281
2011-09-30T11:54:52.779671,13540,0.610925,-0.266251,-27.266320,-0.046373,-0.152715,1.009297
2011-09-30T11:54:52.789671,13550,0.664920,-0.341116,-27.333753,-0.046762,-0.153542,1.009295
