pc_time,ts_ms,gyroX,gyroY,gyroZ,accelX,accelY,accelZ
2011-09-26T14:33:49.504094,0,0.164473,-0.163436,0.534120,-0.079592,0.043454,1.010828
2011-09-26T14:33:49.514094,10,0.196129,-0.146497,0.524014,-0.079587,0.044194,1.009910
2011-09-26T14:33:49.524094,20,0.227786,-0.129558,0.513908,-0.079582,0.044934,1.008992
2011-09-26T14:33:49.534094,30,0.259442,-0.112619,0.503801,-0.079576,0.045674,1.008074
2011-09-26T14:33:49.544094,40,0.291098,-0.095679,0.493695,-0.079571,0.046414,1.007156
2011-09-26T14:33:49.554094,50,0.322755,-0.078740,0.483589,-0.079566,0.047154,1.006238
2011-09-26T14:33:49.564094,60,0.354411,-0.061801,0.473482,-0.079561,0.047894,1.005320
2011-09-26T14:33:49.574094,70,0.386067,-0.044862,0.463376,-0.079556,0.048634,1.004402
2011-09-26T14:33:49.584094,80,0.417724,-0.027923,0.453270,-0.079550,0.049374,1.003484
2011-09-26T14:33:49.594094,90,0.449380,-0.010984,0.443163,-0.079545,0.050114,1.002566
2011-09-26T14:33:49.604094,100,0.481037,0.005956,0.433057,-0.079540,0.050854,1.001648
2011-09-26T14:33:49.614094,110,0.452086,-0.020996,0.433210,-0.079943,0.051062,0.999602
2011-09-26T14:33:49.624094,120,0.422270,-0.048576,0.433510,-0.080352,0.051263,0.997540
2011-09-26T14:33:49.634094,130,0.392454,-0.076155,0.433811,-0.080761,0.051463,0.995478
2011-09-26T14:33:49.644094,140,0.362637,-0.103734,0.434111,-0.081170,0.051663,0.993416
2011-09-26T14:33:49.654094,150,0.332821,-0.131313,0.434411,-0.081578,0.051864,0.991354
2011-09-26T14:33:49.664094,160,0.303005,-0.158893,0.434711,-0.081987,0.052064,0.989292
2011-09-26T14:33:49.674094,170,0.273189,-0.186472,0.435011,-0.082396,0.052264,0.987230
2011-09-26T14:33:49.684094,180,0.243372,-0.214051,0.435311,-0.082805,0.052465,0.985168
2011-09-26T14:33:49.694094,190,0.213556,-0.241630,0.435612,-0.083214,0.052665,0.983106
2011-09-26T14:33:49.704094,200,0.183740,-0.269209,0.435912,-0.083622,0.052865,0.981044
2011-09-26T14:33:49.714094,210,0.153923,-0.296789,0.436212,-0.084031,0.053066,0.978983
2011-09-26T14:33:49.724094,220,0.127343,-0.330952,0.437119,-0.083877,0.052820,0.980881
2011-09-26T14:33:49.734094,230,0.100789,-0.365171,0.438031,-0.083717,0.052571,0.982813
2011-09-26T14:33:49.744094,240,0.074236,-0.399390,0.438944,-0.083558,0.052322,0.984744
2011-09-26T14:33:49.754094,250,0.047682,-0.433609,0.439856,-0.083399,0.052072,0.986676
2011-09-26T14:33:49.764094,260,0.021128,-0.467828,0.440768,-0.083239,0.051823,0.988607
2011-09-26T14:33:49.774094,270,-0.005425,-0.502047,0.441680,-0.083080,0.051574,0.990539
2011-09-26T14:33:49.784094,280,-0.031979,-0.536266,0.442593,-0.082921,0.051325,0.992471
2011-09-26T14:33:49.794094,290,-0.058532,-0.570484,0.443505,-0.082761,0.051075,0.994402
2011-09-26T14:33:49.804094,300,-0.085086,-0.604703,0.444417,-0.082602,0.050826,0.996334
2011-09-26T14:33:49.814094,310,-0.111640,-0.638922,0.445330,-0.082443,0.050577,0.998265
2011-09-26T14:33:49.824094,320,-0.077427,-0.605278,0.440564,-0.083133,0.049936,0.999466
2011-09-26T14:33:49.834094,330,-0.042853,-0.571231,0.435765,-0.083828,0.049292,1.000663
2011-09-26T14:33:49.844094,340,-0.008279,-0.537184,0.430965,-0.084524,0.048649,1.001859
2011-09-26T14:33:49.854094,350,0.026295,-0.503136,0.426166,-0.085219,0.048005,1.003056
2011-09-26T14:33:49.864094,360,0.060869,-0.469089,0.421367,-0.085915,0.047361,1.004252
2011-09-26T14:33:49.874094,370,0.095443,-0.435042,0.416568,-0.086610,0.046718,1.005449
2011-09-26T14:33:49.884094,380,0.130017,-0.400995,0.411768,-0.087306,0.046074,1.006645
2011-09-26T14:33:49.894094,390,0.164591,-0.366948,0.406969,-0.088001,0.045431,1.007842
2011-09-26T14:33:49.904094,400,0.199165,-0.332900,0.402170,-0.088697,0.044787,1.009038
2011-09-26T14:33:49.914094,410,0.233739,-0.298853,0.397370,-0.089392,0.044143,1.010235
2011-09-26T14:33:49.924094,420,0.268313,-0.264812,0.392572,-0.090087,0.043500,1.011431
2011-09-26T14:33:49.934094,430,0.300379,-0.260150,0.390697,-0.090822,0.043410,1.011019
2011-09-26T14:33:49.944094,440,0.332445,-0.255488,0.388822,-0.091557,0.043321,1.010607
2011-09-26T14:33:49.954094,450,0.364512,-0.250827,0.386947,-0.092291,0.043231,1.010195
2011-09-26T14:33:49.964094,460,0.396578,-0.246165,0.385072,-0.093026,0.043142,1.009784
2011-09-26T14:33:49.974094,470,0.428644,-0.241504,0.383197,-0.093760,0.043052,1.009372
2011-09-26T14:33:49.984094,480,0.460710,-0.236842,0.381322,-0.094495,0.042963,1.008960
2011-09-26T14:33:49.994094,490,0.492777,-0.232181,0.379447,-0.095229,0.042873,1.008548
2011-09-26T14:33:50.004094,500,0.524843,-0.227519,0.377572,-0.095964,0.042783,1.008136
2011-09-26T14:33:50.014094,510,0.556909,-0.222858,0.375697,-0.096698,0.042694,1.007724
2011-09-26T14:33:50.024094,520,0.588975,-0.218196,0.373822,-0.097433,0.042604,1.007313
2011-09-26T14:33:50.034094,530,0.595203,-0.188143,0.380567,-0.097796,0.043004,1.006628
2011-09-26T14:33:50.044094,540,0.601232,-0.157896,0.387379,-0.098157,0.043408,1.005941
2011-09-26T14:33:50.054094,550,0.607262,-0.127648,0.394191,-0.098517,0.043812,1.005254
2011-09-26T14:33:50.064094,560,0.613291,-0.097401,0.401002,-0.098878,0.044216,1.004567
2011-09-26T14:33:50.074094,570,0.619321,-0.067154,0.407814,-0.099238,0.044620,1.003880
2011-09-26T14:33:50.084094,580,0.625350,-0.036906,0.414626,-0.099599,0.045023,1.003193
2011-09-26T14:33:50.094094,590,0.631380,-0.006659,0.421437,-0.099959,0.045427,1.002506
2011-09-26T14:33:50.104094,600,0.637409,0.023589,0.428249,-0.100319,0.045831,1.001820
2011-09-26T14:33:50.114094,610,0.643439,0.053836,0.435061,-0.100680,0.046235,1.001133
2011-09-26T14:33:50.124094,620,0.649468,0.084083,0.441872,-0.101040,0.046639,1.000446
2011-09-26T14:33:50.134094,630,0.605711,0.152864,0.438566,-0.101682,0.048504,1.000414
2011-09-26T14:33:50.144094,640,0.560824,0.222520,0.435029,-0.102330,0.050403,1.000398
2011-09-26T14:33:50.154094,650,0.515937,0.292176,0.431493,-0.102978,0.052302,1.000381
2011-09-26T14:33:50.164094,660,0.471050,0.361831,0.427956,-0.103626,0.054201,1.000365
2011-09-26T14:33:50.174094,670,0.426163,0.431487,0.424420,-0.104274,0.056100,1.000348
2011-09-26T14:33:50.184094,680,0.381275,0.501143,0.420884,-0.104922,0.057999,1.000332
2011-09-26T14:33:50.194094,690,0.336388,0.570799,0.417347,-0.105570,0.059898,1.000315
2011-09-26T14:33:50.204094,700,0.291501,0.640454,0.413811,-0.106218,0.061797,1.000299
2011-09-26T14:33:50.214094,710,0.246614,0.710110,0.410274,-0.106866,0.063696,1.000282
2011-09-26T14:33:50.224094,720,0.201727,0.779766,0.406738,-0.107514,0.065595,1.000266
2011-09-26T14:33:50.234094,730,0.156840,0.849421,0.403202,-0.108162,0.067494,1.000249
2011-09-26T14:33:50.244094,740,0.119513,0.876169,0.389844,-0.109431,0.066235,0.999900
2011-09-26T14:33:50.254094,750,0.082270,0.902444,0.376378,-0.110706,0.064941,0.999548
2011-09-26T14:33:50.264094,760,0.045027,0.928719,0.362913,-0.111981,0.063647,0.999195
2011-09-26T14:33:50.274094,770,0.007784,0.954994,0.349447,-0.113256,0.062352,0.998843
2011-09-26T14:33:50.284094,780,-0.029460,0.981268,0.335981,-0.114531,0.061058,0.998490
2011-09-26T14:33:50.294094,790,-0.066703,1.007543,0.322515,-0.115806,0.059764,0.998138
2011-09-26T14:33:50.304094,800,-0.103946,1.033818,0.309050,-0.117081,0.058470,0.997785
2011-09-26T14:33:50.314094,810,-0.141189,1.060093,0.295584,-0.118356,0.057176,0.997432
2011-09-26T14:33:50.324094,820,-0.178432,1.086367,0.282118,-0.119631,0.055882,0.997080
2011-09-26T14:33:50.334094,830,-0.215675,1.112642,0.268652,-0.120906,0.054588,0.996727
2011-09-26T14:33:50.344094,840,-0.203026,1.060154,0.274995,-0.122266,0.053244,0.996570
2011-09-26T14:33:50.354094,850,-0.189874,1.006872,0.281537,-0.123626,0.051900,0.996414
2011-09-26T14:33:50.364094,860,-0.176721,0.953590,0.288079,-0.124987,0.050556,0.996258
2011-09-26T14:33:50.374094,870,-0.163569,0.900307,0.294622,-0.126348,0.049211,0.996103
2011-09-26T14:33:50.384094,880,-0.150417,0.847025,0.301164,-0.127709,0.047867,0.995947
2011-09-26T14:33:50.394094,890,-0.137264,0.793743,0.307706,-0.129070,0.046523,0.995791
2011-09-26T14:33:50.404094,900,-0.124112,0.740460,0.314249,-0.130430,0.045178,0.995636
2011-09-26T14:33:50.414094,910,-0.110960,0.687178,0.320791,-0.131791,0.043834,0.995480
2011-09-26T14:33:50.424094,920,-0.097807,0.633896,0.327333,-0.133152,0.042490,0.995324
2011-09-26T14:33:50.434094,930,-0.084655,0.580614,0.333875,-0.134513,0.041145,0.995169
2011-09-26T14:33:50.444094,940,-0.064076,0.556746,0.329224,-0.134814,0.041254,0.995186
2011-09-26T14:33:50.454094,950,-0.043401,0.533259,0.324427,-0.135101,0.041382,0.995206
2011-09-26T14:33:50.464094,960,-0.022726,0.509773,0.319631,-0.135388,0.041510,0.995226
2011-09-26T14:33:50.474094,970,-0.002051,0.486286,0.314834,-0.135675,0.041638,0.995246
2011-09-26T14:33:50.484094,980,0.018624,0.462799,0.310037,-0.135962,0.041766,0.995266
2011-09-26T14:33:50.494094,990,0.039299,0.439313,0.305241,-0.136249,0.041894,0.995286
2011-09-26T14:33:50.504094,1000,0.059974,0.415826,0.300444,-0.136536,0.042021,0.995306
2011-09-26T14:33:50.514094,1010,0.080650,0.392340,0.295647,-0.136823,0.042149,0.995326
2011-09-26T14:33:50.524094,1020,0.101325,0.368853,0.290851,-0.137110,0.042277,0.995346
2011-09-26T14:33:50.534094,1030,0.122000,0.345367,0.286054,-0.137397,0.042405,0.995366
2011-09-26T14:33:50.544094,1040,0.142675,0.321880,0.281258,-0.137684,0.042533,0.995385
2011-09-26T14:33:50.554094,1050,0.156636,0.330222,0.266103,-0.138102,0.043204,0.994875
2011-09-26T14:33:50.564094,1060,0.170573,0.338675,0.250911,-0.138521,0.043878,0.994363
2011-09-26T14:33:50.574094,1070,0.184510,0.347128,0.235720,-0.138940,0.044552,0.993851
2011-09-26T14:33:50.584094,1080,0.198447,0.355581,0.220529,-0.139359,0.045225,0.993339
2011-09-26T14:33:50.594094,1090,0.212385,0.364034,0.205337,-0.139777,0.045899,0.992827
2011-09-26T14:33:50.604094,1100,0.226322,0.372487,0.190146,-0.140196,0.046572,0.992314
2011-09-26T14:33:50.614094,1110,0.240259,0.380940,0.174955,-0.140615,0.047246,0.991802
2011-09-26T14:33:50.624094,1120,0.254197,0.389394,0.159764,-0.141034,0.047919,0.991290
2011-09-26T14:33:50.634094,1130,0.268134,0.397847,0.144572,-0.141452,0.048593,0.990778
2011-09-26T14:33:50.644094,1140,0.282071,0.406300,0.129381,-0.141871,0.049266,0.990266
2011-09-26T14:33:50.654094,1150,0.287656,0.382088,0.110162,-0.142443,0.049547,0.989336
2011-09-26T14:33:50.664094,1160,0.293033,0.357063,0.090843,-0.143018,0.049818,0.988395
2011-09-26T14:33:50.674094,1170,0.298410,0.332039,0.071524,-0.143593,0.050088,0.987455
2011-09-26T14:33:50.684094,1180,0.303786,0.307014,0.052205,-0.144168,0.050359,0.986515
2011-09-26T14:33:50.694094,1190,0.309163,0.281989,0.032886,-0.144744,0.050630,0.985574
2011-09-26T14:33:50.704094,1200,0.314540,0.256964,0.013567,-0.145319,0.050901,0.984634
2011-09-26T14:33:50.714094,1210,0.319917,0.231939,-0.005752,-0.145894,0.051172,0.983694
2011-09-26T14:33:50.724094,1220,0.325294,0.206914,-0.025071,-0.146469,0.051442,0.982753
2011-09-26T14:33:50.734094,1230,0.330671,0.181890,-0.044389,-0.147045,0.051713,0.981813
2011-09-26T14:33:50.744094,1240,0.336047,0.156865,-0.063708,-0.147620,0.051984,0.980872
2011-09-26T14:33:50.754094,1250,0.322538,0.087151,-0.070665,-0.145705,0.051700,0.980345
2011-09-26T14:33:50.764094,1260,0.308832,0.016972,-0.077494,-0.143763,0.051410,0.979822
2011-09-26T14:33:50.774094,1270,0.295127,-0.053206,-0.084322,-0.141822,0.051120,0.979299
2011-09-26T14:33:50.784094,1280,0.281421,-0.123384,-0.091150,-0.139881,0.050830,0.978776
2011-09-26T14:33:50.794094,1290,0.267715,-0.193563,-0.097979,-0.137939,0.050540,0.978253
2011-09-26T14:33:50.804094,1300,0.254010,-0.263741,-0.104807,-0.135998,0.050251,0.977730
2011-09-26T14:33:50.814094,1310,0.240304,-0.333919,-0.111635,-0.134057,0.049961,0.977207
2011-09-26T14:33:50.824094,1320,0.226598,-0.404097,-0.118464,-0.132115,0.049671,0.976684
2011-09-26T14:33:50.834094,1330,0.212893,-0.474276,-0.125292,-0.130174,0.049381,0.976161
2011-09-26T14:33:50.844094,1340,0.199187,-0.544454,-0.132120,-0.128233,0.049091,0.975638
2011-09-26T14:33:50.854094,1350,0.185481,-0.614632,-0.138949,-0.126291,0.048801,0.975115
2011-09-26T14:33:50.864094,1360,0.181948,-0.670982,-0.142050,-0.121464,0.048465,0.976765
2011-09-26T14:33:50.874094,1370,0.178574,-0.727114,-0.145093,-0.116592,0.048129,0.978450
2011-09-26T14:33:50.884094,1380,0.175201,-0.783246,-0.148136,-0.111720,0.047792,0.980134
2011-09-26T14:33:50.894094,1390,0.171828,-0.839378,-0.151180,-0.106848,0.047456,0.981819
2011-09-26T14:33:50.904094,1400,0.168454,-0.895510,-0.154223,-0.101975,0.047119,0.983503
2011-09-26T14:33:50.914094,1410,0.165081,-0.951642,-0.157266,-0.097103,0.046783,0.985188
2011-09-26T14:33:50.924094,1420,0.161707,-1.007774,-0.160309,-0.092231,0.046446,0.986872
2011-09-26T14:33:50.934094,1430,0.158334,-1.063906,-0.163352,-0.087359,0.046109,0.988557
2011-09-26T14:33:50.944094,1440,0.154961,-1.120038,-0.166395,-0.082487,0.045773,0.990242
2011-09-26T14:33:50.954094,1450,0.151587,-1.176170,-0.169438,-0.077614,0.045436,0.991926
2011-09-26T14:33:50.964094,1460,0.155206,-1.156191,-0.165596,-0.074384,0.045657,0.994566
2011-09-26T14:33:50.974094,1470,0.158889,-1.135521,-0.161692,-0.071168,0.045882,0.997216
2011-09-26T14:33:50.984094,1480,0.162572,-1.114850,-0.157788,-0.067953,0.046108,0.999865
2011-09-26T14:33:50.994094,1490,0.166254,-1.094180,-0.153883,-0.064737,0.046333,1.002514
2011-09-26T14:33:51.004094,1500,0.169937,-1.073509,-0.149979,-0.061522,0.046558,1.005163
2011-09-26T14:33:51.014094,1510,0.173620,-1.052839,-0.146075,-0.058306,0.046784,1.007812
2011-09-26T14:33:51.024094,1520,0.177302,-1.032168,-0.142171,-0.055090,0.047009,1.010461
2011-09-26T14:33:51.034094,1530,0.180985,-1.011498,-0.138267,-0.051875,0.047235,1.013110
2011-09-26T14:33:51.044094,1540,0.184668,-0.990827,-0.134363,-0.048659,0.047460,1.015759
2011-09-26T14:33:51.054094,1550,0.188350,-0.970157,-0.130458,-0.045444,0.047686,1.018408
2011-09-26T14:33:51.064094,1560,0.184874,-0.924679,-0.132741,-0.044460,0.047820,1.017993
2011-09-26T14:33:51.074094,1570,0.181324,-0.878950,-0.135087,-0.043499,0.047953,1.017546
2011-09-26T14:33:51.084094,1580,0.177775,-0.833222,-0.137432,-0.042538,0.048087,1.017100
2011-09-26T14:33:51.094094,1590,0.174226,-0.787493,-0.139777,-0.041576,0.048220,1.016653
2011-09-26T14:33:51.104094,1600,0.170676,-0.741765,-0.142123,-0.040615,0.048354,1.016207
2011-09-26T14:33:51.114094,1610,0.167127,-0.696036,-0.144468,-0.039654,0.048487,1.015761
2011-09-26T14:33:51.124094,1620,0.163578,-0.650308,-0.146813,-0.038693,0.048620,1.015314
2011-09-26T14:33:51.134094,1630,0.160028,-0.604579,-0.149159,-0.037732,0.048754,1.014868
2011-09-26T14:33:51.144094,1640,0.156479,-0.558851,-0.151504,-0.036771,0.048887,1.014421
2011-09-26T14:33:51.154094,1650,0.152930,-0.513122,-0.153849,-0.035809,0.049021,1.013975
2011-09-26T14:33:51.164094,1660,0.149380,-0.467393,-0.156195,-0.034848,0.049154,1.013528
2011-09-26T14:33:51.174094,1670,0.161181,-0.415869,-0.158907,-0.034562,0.049442,1.012677
2011-09-26T14:33:51.184094,1680,0.173180,-0.364268,-0.161624,-0.034285,0.049732,1.011821
2011-09-26T14:33:51.194094,1690,0.185180,-0.312668,-0.164342,-0.034008,0.050022,1.010965
2011-09-26T14:33:51.204094,1700,0.197179,-0.261068,-0.167059,-0.033732,0.050313,1.010109
2011-09-26T14:33:51.214094,1710,0.209178,-0.209468,-0.169776,-0.033455,0.050603,1.009253
2011-09-26T14:33:51.224094,1720,0.221178,-0.157868,-0.172493,-0.033178,0.050893,1.008397
2011-09-26T14:33:51.234094,1730,0.233177,-0.106268,-0.175210,-0.032901,0.051183,1.007541
2011-09-26T14:33:51.244094,1740,0.245176,-0.054668,-0.177927,-0.032624,0.051473,1.006684
2011-09-26T14:33:51.254094,1750,0.257176,-0.003068,-0.180645,-0.032347,0.051764,1.005828
2011-09-26T14:33:51.264094,1760,0.269175,0.048532,-0.183362,-0.032070,0.052054,1.004972
2011-09-26T14:33:51.274094,1770,0.215534,0.059500,-0.175115,-0.032697,0.052389,1.003838
2011-09-26T14:33:51.284094,1780,0.161443,0.070190,-0.166793,-0.033331,0.052724,1.002702
2011-09-26T14:33:51.294094,1790,0.107352,0.080880,-0.158471,-0.033965,0.053059,1.001566
2011-09-26T14:33:51.304094,1800,0.053260,0.091569,-0.150149,-0.034598,0.053394,1.000430
2011-09-26T14:33:51.314094,1810,-0.000831,0.102259,-0.141826,-0.035232,0.053729,0.999293
2011-09-26T14:33:51.324094,1820,-0.054922,0.112949,-0.133504,-0.035866,0.054064,0.998157
2011-09-26T14:33:51.334094,1830,-0.109013,0.123638,-0.125182,-0.036499,0.054400,0.997021
2011-09-26T14:33:51.344094,1840,-0.163105,0.134328,-0.116860,-0.037133,0.054735,0.995885
2011-09-26T14:33:51.354094,1850,-0.217196,0.145018,-0.108538,-0.037767,0.055070,0.994749
2011-09-26T14:33:51.364094,1860,-0.271287,0.155707,-0.100216,-0.038401,0.055405,0.993613
2011-09-26T14:33:51.374094,1870,-0.325378,0.166397,-0.091894,-0.039034,0.055740,0.992477
2011-09-26T14:33:51.384094,1880,-0.347949,0.149225,-0.086118,-0.039507,0.055322,0.993110
2011-09-26T14:33:51.394094,1890,-0.370195,0.131765,-0.080368,-0.039977,0.054895,0.993762
2011-09-26T14:33:51.404094,1900,-0.392440,0.114306,-0.074618,-0.040448,0.054468,0.994414
2011-09-26T14:33:51.414094,1910,-0.414686,0.096847,-0.068869,-0.040918,0.054042,0.995066
2011-09-26T14:33:51.424094,1920,-0.436932,0.079387,-0.063119,-0.041389,0.053615,0.995718
2011-09-26T14:33:51.434094,1930,-0.459177,0.061928,-0.057369,-0.041860,0.053189,0.996370
2011-09-26T14:33:51.444094,1940,-0.481423,0.044468,-0.051620,-0.042330,0.052762,0.997022
2011-09-26T14:33:51.454094,1950,-0.503669,0.027009,-0.045870,-0.042801,0.052336,0.997674
2011-09-26T14:33:51.464094,1960,-0.525915,0.009550,-0.040120,-0.043272,0.051909,0.998326
2011-09-26T14:33:51.474094,1970,-0.548160,-0.007910,-0.034370,-0.043742,0.051483,0.998978
2011-09-26T14:33:51.484094,1980,-0.571776,-0.012683,-0.032786,-0.043796,0.050921,0.999091
2011-09-26T14:33:51.494094,1990,-0.595408,-0.017313,-0.031248,-0.043844,0.050358,0.999197
2011-09-26T14:33:51.504094,2000,-0.619040,-0.021943,-0.029711,-0.043893,0.049795,0.999303
2011-09-26T14:33:51.514094,2010,-0.642671,-0.026573,-0.028174,-0.043942,0.049232,0.999409
2011-09-26T14:33:51.524094,2020,-0.666303,-0.031203,-0.026636,-0.043991,0.048669,0.999515
2011-09-26T14:33:51.534094,2030,-0.689934,-0.035833,-0.025099,-0.044040,0.048106,0.999620
2011-09-26T14:33:51.544094,2040,-0.713566,-0.040463,-0.023561,-0.044088,0.047543,0.999726
2011-09-26T14:33:51.554094,2050,-0.737198,-0.045093,-0.022024,-0.044137,0.046980,0.999832
2011-09-26T14:33:51.564094,2060,-0.760829,-0.049723,-0.020487,-0.044186,0.046417,0.999938
2011-09-26T14:33:51.574094,2070,-0.784461,-0.054353,-0.018949,-0.044235,0.045854,1.000044
2011-09-26T14:33:51.584094,2080,-0.729619,-0.066757,-0.022459,-0.043861,0.045397,1.000141
2011-09-26T14:33:51.594094,2090,-0.673371,-0.079301,-0.026059,-0.043481,0.044942,1.000237
2011-09-26T14:33:51.604094,2100,-0.617123,-0.091845,-0.029659,-0.043100,0.044487,1.000333
2011-09-26T14:33:51.614094,2110,-0.560876,-0.104388,-0.033259,-0.042719,0.044032,1.000429
2011-09-26T14:33:51.624094,2120,-0.504628,-0.116932,-0.036859,-0.042338,0.043577,1.000525
2011-09-26T14:33:51.634094,2130,-0.448380,-0.129476,-0.040459,-0.041957,0.043122,1.000621
2011-09-26T14:33:51.644094,2140,-0.392132,-0.142019,-0.044059,-0.041577,0.042667,1.000717
2011-09-26T14:33:51.654094,2150,-0.335884,-0.154563,-0.047659,-0.041196,0.042212,1.000813
2011-09-26T14:33:51.664094,2160,-0.279637,-0.167107,-0.051259,-0.040815,0.041757,1.000909
2011-09-26T14:33:51.674094,2170,-0.223389,-0.179651,-0.054859,-0.040434,0.041302,1.001005
2011-09-26T14:33:51.684094,2180,-0.167141,-0.192194,-0.058459,-0.040053,0.040847,1.001101
2011-09-26T14:33:51.694094,2190,-0.152033,-0.193973,-0.057612,-0.039718,0.041055,1.000389
2011-09-26T14:33:51.704094,2200,-0.137689,-0.195552,-0.056682,-0.039383,0.041274,0.999663
2011-09-26T14:33:51.714094,2210,-0.123344,-0.197131,-0.055753,-0.039048,0.041494,0.998937
2011-09-26T14:33:51.724094,2220,-0.109000,-0.198710,-0.054823,-0.038713,0.041714,0.998210
2011-09-26T14:33:51.734094,2230,-0.094655,-0.200289,-0.053894,-0.038378,0.041934,0.997484
2011-09-26T14:33:51.744094,2240,-0.080311,-0.201868,-0.052964,-0.038044,0.042154,0.996757
2011-09-26T14:33:51.754094,2250,-0.065966,-0.203447,-0.052035,-0.037709,0.042374,0.996031
2011-09-26T14:33:51.764094,2260,-0.051622,-0.205026,-0.051105,-0.037374,0.042594,0.995305
2011-09-26T14:33:51.774094,2270,-0.037277,-0.206606,-0.050175,-0.037039,0.042814,0.994578
2011-09-26T14:33:51.784094,2280,-0.022933,-0.208185,-0.049246,-0.036704,0.043034,0.993852
2011-09-26T14:33:51.794094,2290,-0.013662,-0.219603,-0.047861,-0.036822,0.043189,0.993953
2011-09-26T14:33:51.804094,2300,-0.004453,-0.231142,-0.046470,-0.036945,0.043344,0.994064
2011-09-26T14:33:51.814094,2310,0.004756,-0.242681,-0.045079,-0.037069,0.043499,0.994175
2011-09-26T14:33:51.824094,2320,0.013965,-0.254220,-0.043689,-0.037192,0.043653,0.994287
2011-09-26T14:33:51.834094,2330,0.023174,-0.265760,-0.042298,-0.037315,0.043808,0.994398
2011-09-26T14:33:51.844094,2340,0.032382,-0.277299,-0.040907,-0.037438,0.043963,0.994509
2011-09-26T14:33:51.854094,2350,0.041591,-0.288838,-0.039517,-0.037562,0.044118,0.994620
2011-09-26T14:33:51.864094,2360,0.050800,-0.300378,-0.038126,-0.037685,0.044272,0.994732
2011-09-26T14:33:51.874094,2370,0.060009,-0.311917,-0.036735,-0.037808,0.044427,0.994843
2011-09-26T14:33:51.884094,2380,0.069218,-0.323456,-0.035345,-0.037932,0.044582,0.994954
2011-09-26T14:33:51.894094,2390,0.053018,-0.337855,-0.032764,-0.037612,0.044819,0.995014
2011-09-26T14:33:51.904094,2400,0.036410,-0.352299,-0.030164,-0.037286,0.045058,0.995073
2011-09-26T14:33:51.914094,2410,0.019802,-0.366743,-0.027564,-0.036959,0.045296,0.995132
2011-09-26T14:33:51.924094,2420,0.003195,-0.381187,-0.024964,-0.036633,0.045535,0.995191
2011-09-26T14:33:51.934094,2430,-0.013413,-0.395631,-0.022363,-0.036306,0.045773,0.995250
2011-09-26T14:33:51.944094,2440,-0.030021,-0.410075,-0.019763,-0.035979,0.046012,0.995309
2011-09-26T14:33:51.954094,2450,-0.046628,-0.424519,-0.017163,-0.035653,0.046251,0.995368
2011-09-26T14:33:51.964094,2460,-0.063236,-0.438963,-0.014563,-0.035326,0.046489,0.995427
2011-09-26T14:33:51.974094,2470,-0.079844,-0.453408,-0.011963,-0.035000,0.046728,0.995486
2011-09-26T14:33:51.984094,2480,-0.096451,-0.467852,-0.009363,-0.034673,0.046966,0.995545
2011-09-26T14:33:51.994094,2490,-0.113059,-0.482296,-0.006763,-0.034347,0.047205,0.995604
2011-09-26T14:33:52.004094,2500,-0.131547,-0.462001,-0.010945,-0.033818,0.048207,0.996484
2011-09-26T14:33:52.014094,2510,-0.150062,-0.441203,-0.015225,-0.033287,0.049221,0.997377
2011-09-26T14:33:52.024094,2520,-0.168578,-0.420404,-0.019506,-0.032755,0.050235,0.998270
2011-09-26T14:33:52.034094,2530,-0.187093,-0.399606,-0.023786,-0.032223,0.051248,0.999162
2011-09-26T14:33:52.044094,2540,-0.205609,-0.378807,-0.028067,-0.031692,0.052262,1.000055
2011-09-26T14:33:52.054094,2550,-0.224124,-0.358008,-0.032347,-0.031160,0.053276,1.000948
2011-09-26T14:33:52.064094,2560,-0.242639,-0.337210,-0.036628,-0.030629,0.054289,1.001841
2011-09-26T14:33:52.074094,2570,-0.261155,-0.316411,-0.040908,-0.030097,0.055303,1.002733
2011-09-26T14:33:52.084094,2580,-0.279670,-0.295613,-0.045189,-0.029565,0.056317,1.003626
2011-09-26T14:33:52.094094,2590,-0.298186,-0.274814,-0.049469,-0.029034,0.057330,1.004519
2011-09-26T14:33:52.104094,2600,-0.318038,-0.250577,-0.060104,-0.029110,0.056163,1.004340
2011-09-26T14:33:52.114094,2610,-0.337908,-0.226292,-0.070826,-0.029194,0.054965,1.004146
2011-09-26T14:33:52.124094,2620,-0.357779,-0.202007,-0.081549,-0.029279,0.053767,1.003952
2011-09-26T14:33:52.134094,2630,-0.377649,-0.177722,-0.092272,-0.029363,0.052570,1.003758
2011-09-26T14:33:52.144094,2640,-0.397519,-0.153437,-0.102995,-0.029448,0.051372,1.003564
2011-09-26T14:33:52.154094,2650,-0.417390,-0.129152,-0.113718,-0.029532,0.050174,1.003370
2011-09-26T14:33:52.164094,2660,-0.437260,-0.104867,-0.124440,-0.029616,0.048977,1.003176
2011-09-26T14:33:52.174094,2670,-0.457131,-0.080582,-0.135163,-0.029701,0.047779,1.002982
2011-09-26T14:33:52.184094,2680,-0.477001,-0.056297,-0.145886,-0.029785,0.046581,1.002788
2011-09-26T14:33:52.194094,2690,-0.496872,-0.032011,-0.156609,-0.029870,0.045384,1.002594
2011-09-26T14:33:52.204094,2700,-0.516742,-0.007726,-0.167331,-0.029954,0.044186,1.002400
2011-09-26T14:33:52.214094,2710,-0.529431,-0.011408,-0.168528,-0.029971,0.043982,1.002978
2011-09-26T14:33:52.224094,2720,-0.541965,-0.015692,-0.169519,-0.029986,0.043799,1.003572
2011-09-26T14:33:52.234094,2730,-0.554500,-0.019977,-0.170510,-0.030002,0.043615,1.004167
2011-09-26T14:33:52.244094,2740,-0.567034,-0.024261,-0.171501,-0.030017,0.043432,1.004761
2011-09-26T14:33:52.254094,2750,-0.579568,-0.028545,-0.172492,-0.030032,0.043249,1.005356
2011-09-26T14:33:52.264094,2760,-0.592102,-0.032829,-0.173482,-0.030047,0.043066,1.005950
2011-09-26T14:33:52.274094,2770,-0.604636,-0.037114,-0.174473,-0.030063,0.042883,1.006545
2011-09-26T14:33:52.284094,2780,-0.617170,-0.041398,-0.175464,-0.030078,0.042700,1.007139
2011-09-26T14:33:52.294094,2790,-0.629705,-0.045682,-0.176455,-0.030093,0.042517,1.007734
2011-09-26T14:33:52.304094,2800,-0.642239,-0.049966,-0.177446,-0.030109,0.042334,1.008328
2011-09-26T14:33:52.314094,2810,-0.616337,-0.050192,-0.178654,-0.029670,0.041860,1.007450
2011-09-26T14:33:52.324094,2820,-0.589870,-0.050358,-0.179865,-0.029224,0.041381,1.006550
2011-09-26T14:33:52.334094,2830,-0.563403,-0.050523,-0.181075,-0.028778,0.040903,1.005650
2011-09-26T14:33:52.344094,2840,-0.536936,-0.050689,-0.182286,-0.028332,0.040424,1.004750
2011-09-26T14:33:52.354094,2850,-0.510469,-0.050855,-0.183497,-0.027886,0.039946,1.003850
2011-09-26T14:33:52.364094,2860,-0.484002,-0.051021,-0.184707,-0.027440,0.039467,1.002950
2011-09-26T14:33:52.374094,2870,-0.457535,-0.051186,-0.185918,-0.026994,0.038989,1.002050
2011-09-26T14:33:52.384094,2880,-0.431068,-0.051352,-0.187129,-0.026548,0.038510,1.001150
2011-09-26T14:33:52.394094,2890,-0.404601,-0.051518,-0.188340,-0.026103,0.038032,1.000250
2011-09-26T14:33:52.404094,2900,-0.378134,-0.051684,-0.189550,-0.025657,0.037553,0.999350
2011-09-26T14:33:52.414094,2910,-0.360321,-0.072408,-0.204125,-0.025342,0.037312,0.998836
2011-09-26T14:33:52.424094,2920,-0.342652,-0.093473,-0.218920,-0.025029,0.037075,0.998328
2011-09-26T14:33:52.434094,2930,-0.324982,-0.114537,-0.233716,-0.024716,0.036837,0.997819
2011-09-26T14:33:52.444094,2940,-0.307313,-0.135602,-0.248512,-0.024403,0.036600,0.997311
2011-09-26T14:33:52.454094,2950,-0.289643,-0.156667,-0.263308,-0.024090,0.036363,0.996803
2011-09-26T14:33:52.464094,2960,-0.271973,-0.177732,-0.278104,-0.023777,0.036125,0.996295
2011-09-26T14:33:52.474094,2970,-0.254304,-0.198797,-0.292900,-0.023464,0.035888,0.995787
2011-09-26T14:33:52.484094,2980,-0.236634,-0.219862,-0.307695,-0.023151,0.035650,0.995279
2011-09-26T14:33:52.494094,2990,-0.218965,-0.240927,-0.322491,-0.022838,0.035413,0.994771
2011-09-26T14:33:52.504094,3000,-0.201295,-0.261992,-0.337287,-0.022525,0.035176,0.994263
2011-09-26T14:33:52.514094,3010,-0.180667,-0.296191,-0.346905,-0.020551,0.035505,0.993880
2011-09-26T14:33:52.524094,3020,-0.159990,-0.330607,-0.356437,-0.018550,0.035844,0.993500
2011-09-26T14:33:52.534094,3030,-0.139313,-0.365023,-0.365969,-0.016549,0.036183,0.993119
2011-09-26T14:33:52.544094,3040,-0.118636,-0.399439,-0.375501,-0.014547,0.036522,0.992739
2011-09-26T14:33:52.554094,3050,-0.097959,-0.433855,-0.385032,-0.012546,0.036861,0.992358
2011-09-26T14:33:52.564094,3060,-0.077281,-0.468271,-0.394564,-0.010545,0.037200,0.991977
2011-09-26T14:33:52.574094,3070,-0.056604,-0.502687,-0.404096,-0.008543,0.037539,0.991597
2011-09-26T14:33:52.584094,3080,-0.035927,-0.537103,-0.413628,-0.006542,0.037878,0.991216
2011-09-26T14:33:52.594094,3090,-0.015250,-0.571519,-0.423160,-0.004541,0.038217,0.990836
2011-09-26T14:33:52.604094,3100,0.005427,-0.605935,-0.432692,-0.002540,0.038556,0.990455
2011-09-26T14:33:52.614094,3110,0.026104,-0.640350,-0.442224,-0.000538,0.038895,0.990075
2011-09-26T14:33:52.624094,3120,0.013738,-0.659190,-0.432783,0.001888,0.038950,0.991074
2011-09-26T14:33:52.634094,3130,-0.000074,-0.677348,-0.422513,0.004333,0.038992,0.992133
2011-09-26T14:33:52.644094,3140,-0.013885,-0.695506,-0.412242,0.006778,0.039035,0.993193
2011-09-26T14:33:52.654094,3150,-0.027696,-0.713664,-0.401971,0.009223,0.039077,0.994252
2011-09-26T14:33:52.664094,3160,-0.041508,-0.731822,-0.391701,0.011669,0.039119,0.995311
2011-09-26T14:33:52.674094,3170,-0.055319,-0.749980,-0.381430,0.014114,0.039162,0.996371
2011-09-26T14:33:52.684094,3180,-0.069131,-0.768138,-0.371159,0.016559,0.039204,0.997430
2011-09-26T14:33:52.694094,3190,-0.082942,-0.786296,-0.360888,0.019004,0.039246,0.998490
2011-09-26T14:33:52.704094,3200,-0.096753,-0.804454,-0.350618,0.021449,0.039289,0.999549
2011-09-26T14:33:52.714094,3210,-0.110565,-0.822612,-0.340347,0.023894,0.039331,1.000609
2011-09-26T14:33:52.724094,3220,-0.096812,-0.802662,-0.351262,0.024065,0.039617,1.000916
2011-09-26T14:33:52.734094,3230,-0.082454,-0.781874,-0.362642,0.024187,0.039909,1.001207
2011-09-26T14:33:52.744094,3240,-0.068096,-0.761087,-0.374022,0.024308,0.040201,1.001498
2011-09-26T14:33:52.754094,3250,-0.053737,-0.740299,-0.385403,0.024430,0.040492,1.001788
2011-09-26T14:33:52.764094,3260,-0.039379,-0.719512,-0.396783,0.024551,0.040784,1.002079
2011-09-26T14:33:52.774094,3270,-0.025021,-0.698724,-0.408163,0.024673,0.041075,1.002370
2011-09-26T14:33:52.784094,3280,-0.010663,-0.677937,-0.419544,0.024794,0.041367,1.002661
2011-09-26T14:33:52.794094,3290,0.003696,-0.657149,-0.430924,0.024915,0.041658,1.002952
2011-09-26T14:33:52.804094,3300,0.018054,-0.636362,-0.442305,0.025037,0.041950,1.003242
2011-09-26T14:33:52.814094,3310,0.032412,-0.615574,-0.453685,0.025158,0.042241,1.003533
2011-09-26T14:33:52.824094,3320,0.040414,-0.586130,-0.454977,0.024488,0.041482,1.003625
2011-09-26T14:33:52.834094,3330,0.048289,-0.556514,-0.456066,0.023801,0.040701,1.003713
2011-09-26T14:33:52.844094,3340,0.056164,-0.526897,-0.457156,0.023115,0.039921,1.003801
2011-09-26T14:33:52.854094,3350,0.064038,-0.497280,-0.458246,0.022428,0.039141,1.003889
2011-09-26T14:33:52.864094,3360,0.071913,-0.467663,-0.459336,0.021742,0.038360,1.003977
2011-09-26T14:33:52.874094,3370,0.079788,-0.438046,-0.460425,0.021055,0.037580,1.004065
2011-09-26T14:33:52.884094,3380,0.087663,-0.408429,-0.461515,0.020369,0.036799,1.004152
2011-09-26T14:33:52.894094,3390,0.095537,-0.378812,-0.462605,0.019682,0.036019,1.004240
2011-09-26T14:33:52.904094,3400,0.103412,-0.349195,-0.463695,0.018996,0.035238,1.004328
2011-09-26T14:33:52.914094,3410,0.111287,-0.319579,-0.464784,0.018309,0.034458,1.004416
2011-09-26T14:33:52.924094,3420,0.119161,-0.289962,-0.465874,0.017622,0.033677,1.004504
2011-09-26T14:33:52.934094,3430,0.139630,-0.291579,-0.457724,0.017732,0.033562,1.004130
2011-09-26T14:33:52.944094,3440,0.160323,-0.293757,-0.449408,0.017855,0.033458,1.003747
2011-09-26T14:33:52.954094,3450,0.181017,-0.295934,-0.441092,0.017979,0.033355,1.003364
2011-09-26T14:33:52.964094,3460,0.201711,-0.298112,-0.432775,0.018102,0.033252,1.002981
2011-09-26T14:33:52.974094,3470,0.222405,-0.300289,-0.424459,0.018226,0.033148,1.002598
2011-09-26T14:33:52.984094,3480,0.243099,-0.302467,-0.416143,0.018349,0.033045,1.002215
2011-09-26T14:33:52.994094,3490,0.263792,-0.304644,-0.407827,0.018473,0.032941,1.001832
2011-09-26T14:33:53.004094,3500,0.284486,-0.306821,-0.399511,0.018596,0.032838,1.001449
2011-09-26T14:33:53.014094,3510,0.305180,-0.308999,-0.391195,0.018720,0.032735,1.001066
2011-09-26T14:33:53.024094,3520,0.325874,-0.311176,-0.382879,0.018843,0.032631,1.000683
2011-09-26T14:33:53.034094,3530,0.332359,-0.327413,-0.377738,0.019942,0.033612,1.000408
2011-09-26T14:33:53.044094,3540,0.338577,-0.343914,-0.372657,0.021059,0.034614,1.000135
2011-09-26T14:33:53.054094,3550,0.344794,-0.360415,-0.367575,0.022175,0.035616,0.999861
2011-09-26T14:33:53.064094,3560,0.351012,-0.376916,-0.362494,0.023292,0.036617,0.999588
2011-09-26T14:33:53.074094,3570,0.357229,-0.393418,-0.357412,0.024409,0.037619,0.999315
2011-09-26T14:33:53.084094,3580,0.363447,-0.409919,-0.352331,0.025526,0.038621,0.999041
2011-09-26T14:33:53.094094,3590,0.369664,-0.426420,-0.347249,0.026643,0.039622,0.998768
2011-09-26T14:33:53.104094,3600,0.375882,-0.442922,-0.342168,0.027760,0.040624,0.998494
2011-09-26T14:33:53.114094,3610,0.382100,-0.459423,-0.337086,0.028876,0.041625,0.998221
2011-09-26T14:33:53.124094,3620,0.388317,-0.475924,-0.332005,0.029993,0.042627,0.997948
2011-09-26T14:33:53.134094,3630,0.391487,-0.479696,-0.331364,0.030869,0.042685,0.998713
2011-09-26T14:33:53.144094,3640,0.394565,-0.483080,-0.330858,0.031737,0.042715,0.999511
2011-09-26T14:33:53.154094,3650,0.397642,-0.486464,-0.330352,0.032605,0.042744,1.000308
2011-09-26T14:33:53.164094,3660,0.400719,-0.489848,-0.329847,0.033473,0.042773,1.001105
2011-09-26T14:33:53.174094,3670,0.403796,-0.493232,-0.329341,0.034341,0.042803,1.001903
2011-09-26T14:33:53.184094,3680,0.406873,-0.496616,-0.328836,0.035209,0.042832,1.002700
2011-09-26T14:33:53.194094,3690,0.409951,-0.500000,-0.328330,0.036078,0.042862,1.003497
2011-09-26T14:33:53.204094,3700,0.413028,-0.503384,-0.327825,0.036946,0.042891,1.004295
2011-09-26T14:33:53.214094,3710,0.416105,-0.506767,-0.327319,0.037814,0.042920,1.005092
2011-09-26T14:33:53.224094,3720,0.419182,-0.510151,-0.326814,0.038682,0.042950,1.005889
2011-09-26T14:33:53.234094,3730,0.422260,-0.513535,-0.326308,0.039550,0.042979,1.006687
2011-09-26T14:33:53.244094,3740,0.414892,-0.508427,-0.337457,0.040317,0.043110,1.006845
2011-09-26T14:33:53.254094,3750,0.407271,-0.503112,-0.348891,0.041082,0.043243,1.006987
2011-09-26T14:33:53.264094,3760,0.399649,-0.497797,-0.360325,0.041847,0.043376,1.007129
2011-09-26T14:33:53.274094,3770,0.392027,-0.492482,-0.371758,0.042611,0.043509,1.007272
2011-09-26T14:33:53.284094,3780,0.384405,-0.487167,-0.383192,0.043376,0.043642,1.007414
2011-09-26T14:33:53.294094,3790,0.376784,-0.481853,-0.394625,0.044141,0.043775,1.007557
2011-09-26T14:33:53.304094,3800,0.369162,-0.476538,-0.406059,0.044906,0.043908,1.007699
2011-09-26T14:33:53.314094,3810,0.361540,-0.471223,-0.417492,0.045670,0.044040,1.007842
2011-09-26T14:33:53.324094,3820,0.353918,-0.465908,-0.428926,0.046435,0.044173,1.007984
2011-09-26T14:33:53.334094,3830,0.346297,-0.460593,-0.440360,0.047200,0.044306,1.008126
2011-09-26T14:33:53.344094,3840,0.311252,-0.445323,-0.435010,0.048406,0.044874,1.007734
2011-09-26T14:33:53.354094,3850,0.275579,-0.429826,-0.429276,0.049623,0.045452,1.007329
2011-09-26T14:33:53.364094,3860,0.239906,-0.414329,-0.423542,0.050840,0.046030,1.006924
2011-09-26T14:33:53.374094,3870,0.204234,-0.398831,-0.417808,0.052056,0.046608,1.006518
2011-09-26T14:33:53.384094,3880,0.168561,-0.383334,-0.412074,0.053273,0.047185,1.006113
2011-09-26T14:33:53.394094,3890,0.132888,-0.367837,-0.406340,0.054490,0.047763,1.005708
2011-09-26T14:33:53.404094,3900,0.097216,-0.352339,-0.400606,0.055706,0.048341,1.005303
2011-09-26T14:33:53.414094,3910,0.061543,-0.336842,-0.394872,0.056923,0.048919,1.004898
2011-09-26T14:33:53.424094,3920,0.025870,-0.321345,-0.389138,0.058140,0.049497,1.004493
2011-09-26T14:33:53.434094,3930,-0.009802,-0.305847,-0.383404,0.059357,0.050074,1.004088
2011-09-26T14:33:53.444094,3940,-0.011277,-0.293917,-0.376941,0.060510,0.049104,1.003097
2011-09-26T14:33:53.454094,3950,-0.012075,-0.282058,-0.370463,0.061661,0.048103,1.002094
2011-09-26T14:33:53.464094,3960,-0.012872,-0.270199,-0.363984,0.062813,0.047101,1.001091
2011-09-26T14:33:53.474094,3970,-0.013670,-0.258340,-0.357506,0.063965,0.046100,1.000089
2011-09-26T14:33:53.484094,3980,-0.014468,-0.246480,-0.351028,0.065116,0.045099,0.999086
2011-09-26T14:33:53.494094,3990,-0.015265,-0.234621,-0.344550,0.066268,0.044098,0.998083
2011-09-26T14:33:53.504094,4000,-0.016063,-0.222762,-0.338072,0.067420,0.043097,0.997080
2011-09-26T14:33:53.514094,4010,-0.016861,-0.210903,-0.331593,0.068571,0.042095,0.996078
2011-09-26T14:33:53.524094,4020,-0.017659,-0.199043,-0.325115,0.069723,0.041094,0.995075
2011-09-26T14:33:53.534094,4030,-0.018456,-0.187184,-0.318637,0.070875,0.040093,0.994072
2011-09-26T14:33:53.544094,4040,-0.019254,-0.175325,-0.312159,0.072027,0.039092,0.993069
2011-09-26T14:33:53.554094,4050,0.015046,-0.179101,-0.306262,0.073371,0.038412,0.993258
2011-09-26T14:33:53.564094,4060,0.050091,-0.183210,-0.300377,0.074719,0.037739,0.993472
2011-09-26T14:33:53.574094,4070,0.085136,-0.187318,-0.294492,0.076067,0.037066,0.993685
2011-09-26T14:33:53.584094,4080,0.120182,-0.191427,-0.288607,0.077415,0.036392,0.993899
2011-09-26T14:33:53.594094,4090,0.155227,-0.195536,-0.282722,0.078764,0.035719,0.994113
2011-09-26T14:33:53.604094,4100,0.190272,-0.199644,-0.276837,0.080112,0.035046,0.994327
2011-09-26T14:33:53.614094,4110,0.225317,-0.203753,-0.270951,0.081460,0.034373,0.994540
2011-09-26T14:33:53.624094,4120,0.260363,-0.207861,-0.265066,0.082808,0.033700,0.994754
2011-09-26T14:33:53.634094,4130,0.295408,-0.211970,-0.259181,0.084157,0.033027,0.994968
2011-09-26T14:33:53.644094,4140,0.330453,-0.216079,-0.253296,0.085505,0.032353,0.995182
2011-09-26T14:33:53.654094,4150,0.366814,-0.230210,-0.253890,0.086511,0.033128,0.995528
2011-09-26T14:33:53.664094,4160,0.403237,-0.244822,-0.254794,0.087500,0.033971,0.995880
2011-09-26T14:33:53.674094,4170,0.439660,-0.259434,-0.255698,0.088490,0.034815,0.996232
2011-09-26T14:33:53.684094,4180,0.476084,-0.274047,-0.256602,0.089479,0.035658,0.996584
2011-09-26T14:33:53.694094,4190,0.512507,-0.288659,-0.257507,0.090469,0.036502,0.996936
2011-09-26T14:33:53.704094,4200,0.548931,-0.303271,-0.258411,0.091458,0.037346,0.997288
2011-09-26T14:33:53.714094,4210,0.585354,-0.317884,-0.259315,0.092448,0.038189,0.997640
2011-09-26T14:33:53.724094,4220,0.621778,-0.332496,-0.260219,0.093437,0.039033,0.997992
2011-09-26T14:33:53.734094,4230,0.658201,-0.347108,-0.261123,0.094426,0.039876,0.998344
2011-09-26T14:33:53.744094,4240,0.694624,-0.361720,-0.262028,0.095416,0.040720,0.998696
2011-09-26T14:33:53.754094,4250,0.731048,-0.376333,-0.262932,0.096405,0.041564,0.999048
2011-09-26T14:33:53.764094,4260,0.743174,-0.391714,-0.257576,0.098206,0.042320,0.999394
2011-09-26T14:33:53.774094,4270,0.754699,-0.407115,-0.252065,0.100027,0.043075,0.999739
2011-09-26T14:33:53.784094,4280,0.766225,-0.422516,-0.246555,0.101848,0.043829,1.000084
2011-09-26T14:33:53.794094,4290,0.777751,-0.437917,-0.241044,0.103669,0.044583,1.000429
2011-09-26T14:33:53.804094,4300,0.789276,-0.453317,-0.235534,0.105490,0.045338,1.000774
2011-09-26T14:33:53.814094,4310,0.800802,-0.468718,-0.230023,0.107311,0.046092,1.001120
2011-09-26T14:33:53.824094,4320,0.812328,-0.484119,-0.224513,0.109132,0.046846,1.001465
2011-09-26T14:33:53.834094,4330,0.823853,-0.499520,-0.219002,0.110953,0.047601,1.001810
2011-09-26T14:33:53.844094,4340,0.835379,-0.514921,-0.213492,0.112774,0.048355,1.002155
2011-09-26T14:33:53.854094,4350,0.846905,-0.530321,-0.207981,0.114595,0.049109,1.002500
2011-09-26T14:33:53.864094,4360,0.823049,-0.499892,-0.210671,0.116225,0.049335,1.002970
2011-09-26T14:33:53.874094,4370,0.798173,-0.468142,-0.213597,0.117849,0.049545,1.003443
2011-09-26T14:33:53.884094,4380,0.773297,-0.436393,-0.216523,0.119474,0.049756,1.003916
2011-09-26T14:33:53.894094,4390,0.748421,-0.404643,-0.219450,0.121099,0.049966,1.004389
2011-09-26T14:33:53.904094,4400,0.723546,-0.372893,-0.222376,0.122723,0.050177,1.004862
2011-09-26T14:33:53.914094,4410,0.698670,-0.341144,-0.225302,0.124348,0.050387,1.005335
2011-09-26T14:33:53.924094,4420,0.673794,-0.309394,-0.228228,0.125972,0.050598,1.005808
2011-09-26T14:33:53.934094,4430,0.648919,-0.277644,-0.231154,0.127597,0.050808,1.006281
2011-09-26T14:33:53.944094,4440,0.624043,-0.245894,-0.234080,0.129221,0.051019,1.006754
2011-09-26T14:33:53.954094,4450,0.599167,-0.214145,-0.237006,0.130846,0.051229,1.007227
2011-09-26T14:33:53.964094,4460,0.559123,-0.160146,-0.229407,0.131816,0.051571,1.006846
2011-09-26T14:33:53.974094,4470,0.518702,-0.105594,-0.221545,0.132771,0.051915,1.006445
2011-09-26T14:33:53.984094,4480,0.478280,-0.051042,-0.213684,0.133725,0.052260,1.006043
2011-09-26T14:33:53.994094,4490,0.437859,0.003511,-0.205823,0.134679,0.052605,1.005641
2011-09-26T14:33:54.004094,4500,0.397437,0.058063,-0.197961,0.135634,0.052950,1.005240
2011-09-26T14:33:54.014094,4510,0.357016,0.112615,-0.190100,0.136588,0.053294,1.004838
2011-09-26T14:33:54.024094,4520,0.316594,0.167168,-0.182238,0.137542,0.053639,1.004436
2011-09-26T14:33:54.034094,4530,0.276173,0.221720,-0.174377,0.138497,0.053984,1.004035
2011-09-26T14:33:54.044094,4540,0.235751,0.276272,-0.166516,0.139451,0.054329,1.003633
2011-09-26T14:33:54.054094,4550,0.195330,0.330825,-0.158654,0.140406,0.054674,1.003231
2011-09-26T14:33:54.064094,4560,0.154908,0.385377,-0.150793,0.141360,0.055018,1.002830
2011-09-26T14:33:54.074094,4570,0.101145,0.404899,-0.155967,0.142581,0.055323,1.001718
2011-09-26T14:33:54.084094,4580,0.047085,0.423641,-0.161431,0.143807,0.055627,1.000591
2011-09-26T14:33:54.094094,4590,-0.006975,0.442382,-0.166896,0.145034,0.055931,0.999464
2011-09-26T14:33:54.104094,4600,-0.061035,0.461124,-0.172360,0.146260,0.056235,0.998337
2011-09-26T14:33:54.114094,4610,-0.115095,0.479865,-0.177825,0.147487,0.056539,0.997210
2011-09-26T14:33:54.124094,4620,-0.169155,0.498607,-0.183289,0.148713,0.056843,0.996083
2011-09-26T14:33:54.134094,4630,-0.223216,0.517348,-0.188754,0.149940,0.057147,0.994956
2011-09-26T14:33:54.144094,4640,-0.277276,0.536090,-0.194218,0.151166,0.057451,0.993828
2011-09-26T14:33:54.154094,4650,-0.331336,0.554832,-0.199683,0.152393,0.057755,0.992701
2011-09-26T14:33:54.164094,4660,-0.385396,0.573573,-0.205147,0.153619,0.058059,0.991574
2011-09-26T14:33:54.174094,4670,-0.371192,0.561393,-0.206557,0.154636,0.056085,0.991317
2011-09-26T14:33:54.184094,4680,-0.353929,0.547827,-0.207784,0.155644,0.054009,0.991098
2011-09-26T14:33:54.194094,4690,-0.336666,0.534261,-0.209012,0.156652,0.051932,0.990880
2011-09-26T14:33:54.204094,4700,-0.319403,0.520696,-0.210240,0.157660,0.049856,0.990661
2011-09-26T14:33:54.214094,4710,-0.302140,0.507130,-0.211467,0.158667,0.047779,0.990442
2011-09-26T14:33:54.224094,4720,-0.284876,0.493564,-0.212695,0.159675,0.045703,0.990224
2011-09-26T14:33:54.234094,4730,-0.267613,0.479998,-0.213923,0.160683,0.043626,0.990005
2011-09-26T14:33:54.244094,4740,-0.250350,0.466432,-0.215150,0.161691,0.041550,0.989787
2011-09-26T14:33:54.254094,4750,-0.233087,0.452866,-0.216378,0.162698,0.039473,0.989568
2011-09-26T14:33:54.264094,4760,-0.215824,0.439301,-0.217606,0.163706,0.037397,0.989350
2011-09-26T14:33:54.274094,4770,-0.187705,0.418873,-0.206543,0.164166,0.038319,0.991041
2011-09-26T14:33:54.284094,4780,-0.159317,0.398277,-0.195177,0.164612,0.039316,0.992779
2011-09-26T14:33:54.294094,4790,-0.130930,0.377680,-0.183811,0.165058,0.040313,0.994518
2011-09-26T14:33:54.304094,4800,-0.102543,0.357083,-0.172445,0.165504,0.041310,0.996256
2011-09-26T14:33:54.314094,4810,-0.074155,0.336486,-0.161079,0.165950,0.042307,0.997994
2011-09-26T14:33:54.324094,4820,-0.045768,0.315890,-0.149714,0.166396,0.043304,0.999733
2011-09-26T14:33:54.334094,4830,-0.017381,0.295293,-0.138348,0.166842,0.044301,1.001471
2011-09-26T14:33:54.344094,4840,0.011006,0.274696,-0.126982,0.167289,0.045298,1.003209
2011-09-26T14:33:54.354094,4850,0.039394,0.254100,-0.115616,0.167735,0.046294,1.004948
2011-09-26T14:33:54.364094,4860,0.067781,0.233503,-0.104250,0.168181,0.047291,1.006686
2011-09-26T14:33:54.374094,4870,0.096168,0.212906,-0.092884,0.168627,0.048288,1.008424
2011-09-26T14:33:54.384094,4880,0.132849,0.237943,-0.092703,0.169411,0.048432,1.007943
2011-09-26T14:33:54.394094,4890,0.169726,0.264059,-0.092786,0.170203,0.048555,1.007408
2011-09-26T14:33:54.404094,4900,0.206602,0.290174,-0.092869,0.170995,0.048678,1.006874
2011-09-26T14:33:54.414094,4910,0.243479,0.316290,-0.092952,0.171788,0.048802,1.006340
2011-09-26T14:33:54.424094,4920,0.280356,0.342405,-0.093035,0.172580,0.048925,1.005806
2011-09-26T14:33:54.434094,4930,0.317232,0.368521,-0.093118,0.173372,0.049048,1.005272
2011-09-26T14:33:54.444094,4940,0.354109,0.394636,-0.093201,0.174164,0.049172,1.004738
2011-09-26T14:33:54.454094,4950,0.390985,0.420752,-0.093284,0.174956,0.049295,1.004204
2011-09-26T14:33:54.464094,4960,0.427862,0.446867,-0.093367,0.175748,0.049418,1.003670
2011-09-26T14:33:54.474094,4970,0.464739,0.472983,-0.093450,0.176541,0.049541,1.003136
2011-09-26T14:33:54.484094,4980,0.406490,0.479024,-0.064480,0.176402,0.050109,1.001691
2011-09-26T14:33:54.494094,4990,0.346043,0.484601,-0.034839,0.176241,0.050686,1.000226
2011-09-26T14:33:54.504094,5000,0.285596,0.490178,-0.005199,0.176080,0.051264,0.998761
2011-09-26T14:33:54.514094,5010,0.225149,0.495755,0.024442,0.175920,0.051841,0.997295
2011-09-26T14:33:54.524094,5020,0.164702,0.501332,0.054083,0.175759,0.052419,0.995830
2011-09-26T14:33:54.534094,5030,0.104255,0.506910,0.083723,0.175598,0.052997,0.994364
2011-09-26T14:33:54.544094,5040,0.043808,0.512487,0.113364,0.175438,0.053574,0.992899
2011-09-26T14:33:54.554094,5050,-0.016639,0.518064,0.143005,0.175277,0.054152,0.991433
2011-09-26T14:33:54.564094,5060,-0.077086,0.523641,0.172645,0.175116,0.054729,0.989968
2011-09-26T14:33:54.574094,5070,-0.137533,0.529218,0.202286,0.174956,0.055307,0.988503
2011-09-26T14:33:54.584094,5080,-0.142131,0.492290,0.204194,0.175159,0.055354,0.987892
2011-09-26T14:33:54.594094,5090,-0.145132,0.454146,0.205309,0.175372,0.055387,0.987306
2011-09-26T14:33:54.604094,5100,-0.148133,0.416002,0.206424,0.175586,0.055419,0.986720
2011-09-26T14:33:54.614094,5110,-0.151133,0.377858,0.207539,0.175799,0.055451,0.986134
2011-09-26T14:33:54.624094,5120,-0.154134,0.339714,0.208654,0.176012,0.055483,0.985548
2011-09-26T14:33:54.634094,5130,-0.157134,0.301571,0.209768,0.176226,0.055516,0.984962
2011-09-26T14:33:54.644094,5140,-0.160135,0.263427,0.210883,0.176439,0.055548,0.984375
2011-09-26T14:33:54.654094,5150,-0.163135,0.225283,0.211998,0.176653,0.055580,0.983789
2011-09-26T14:33:54.664094,5160,-0.166136,0.187139,0.213113,0.176866,0.055613,0.983203
2011-09-26T14:33:54.674094,5170,-0.169137,0.148995,0.214228,0.177080,0.055645,0.982617
2011-09-26T14:33:54.684094,5180,-0.172137,0.110851,0.215343,0.177293,0.055677,0.982031
2011-09-26T14:33:54.694094,5190,-0.154487,0.042753,0.202060,0.177506,0.054823,0.983278
2011-09-26T14:33:54.704094,5200,-0.136217,-0.026242,0.188345,0.177719,0.053942,0.984580
2011-09-26T14:33:54.714094,5210,-0.117948,-0.095238,0.174631,0.177932,0.053061,0.985882
2011-09-26T14:33:54.724094,5220,-0.099679,-0.164234,0.160916,0.178145,0.052180,0.987184
2011-09-26T14:33:54.734094,5230,-0.081409,-0.233229,0.147202,0.178358,0.051298,0.988486
2011-09-26T14:33:54.744094,5240,-0.063140,-0.302225,0.133487,0.178571,0.050417,0.989788
2011-09-26T14:33:54.754094,5250,-0.044870,-0.371221,0.119773,0.178784,0.049536,0.991090
2011-09-26T14:33:54.764094,5260,-0.026601,-0.440216,0.106058,0.178997,0.048655,0.992392
2011-09-26T14:33:54.774094,5270,-0.008332,-0.509212,0.092343,0.179210,0.047774,0.993694
2011-09-26T14:33:54.784094,5280,0.009938,-0.578208,0.078629,0.179423,0.046893,0.994996
2011-09-26T14:33:54.794094,5290,-0.004906,-0.575260,0.103103,0.179295,0.046923,0.995915
2011-09-26T14:33:54.804094,5300,-0.020633,-0.570392,0.128596,0.179157,0.046977,0.996824
2011-09-26T14:33:54.814094,5310,-0.036361,-0.565524,0.154090,0.179019,0.047031,0.997732
2011-09-26T14:33:54.824094,5320,-0.052089,-0.560656,0.179583,0.178881,0.047084,0.998641
2011-09-26T14:33:54.834094,5330,-0.067816,-0.555788,0.205076,0.178743,0.047138,0.999549
2011-09-26T14:33:54.844094,5340,-0.083544,-0.550920,0.230570,0.178605,0.047192,1.000458
2011-09-26T14:33:54.854094,5350,-0.099271,-0.546052,0.256063,0.178467,0.047246,1.001367
2011-09-26T14:33:54.864094,5360,-0.114999,-0.541184,0.281556,0.178329,0.047300,1.002275
2011-09-26T14:33:54.874094,5370,-0.130727,-0.536316,0.307050,0.178191,0.047354,1.003184
2011-09-26T14:33:54.884094,5380,-0.146454,-0.531448,0.332543,0.178053,0.047408,1.004092
2011-09-26T14:33:54.894094,5390,-0.184752,-0.478767,0.341616,0.178852,0.048548,1.003264
2011-09-26T14:33:54.904094,5400,-0.223600,-0.424922,0.350288,0.179673,0.049715,1.002392
2011-09-26T14:33:54.914094,5410,-0.262449,-0.371076,0.358961,0.180495,0.050881,1.001521
2011-09-26T14:33:54.924094,5420,-0.301297,-0.317230,0.367633,0.181316,0.052048,1.000650
2011-09-26T14:33:54.934094,5430,-0.340146,-0.263384,0.376305,0.182138,0.053214,0.999779
2011-09-26T14:33:54.944094,5440,-0.378994,-0.209538,0.384977,0.182959,0.054381,0.998908
2011-09-26T14:33:54.954094,5450,-0.417842,-0.155692,0.393650,0.183781,0.055547,0.998037
2011-09-26T14:33:54.964094,5460,-0.456691,-0.101846,0.402322,0.184602,0.056714,0.997166
2011-09-26T14:33:54.974094,5470,-0.495539,-0.048000,0.410994,0.185424,0.057880,0.996295
2011-09-26T14:33:54.984094,5480,-0.534387,0.005846,0.419667,0.186245,0.059047,0.995424
2011-09-26T14:33:54.994094,5490,-0.573236,0.059692,0.428339,0.187067,0.060213,0.994553
2011-09-26T14:33:55.004094,5500,-0.585369,0.124977,0.419637,0.186364,0.060158,0.995523
2011-09-26T14:33:55.014094,5510,-0.596741,0.190589,0.410441,0.185618,0.060067,0.996545
2011-09-26T14:33:55.024094,5520,-0.608114,0.256200,0.401244,0.184872,0.059977,0.997568
2011-09-26T14:33:55.034094,5530,-0.619487,0.321812,0.392048,0.184126,0.059887,0.998591
2011-09-26T14:33:55.044094,5540,-0.630859,0.387423,0.382852,0.183380,0.059796,0.999613
2011-09-26T14:33:55.054094,5550,-0.642232,0.453035,0.373655,0.182634,0.059706,1.000636
2011-09-26T14:33:55.064094,5560,-0.653604,0.518646,0.364459,0.181888,0.059616,1.001658
2011-09-26T14:33:55.074094,5570,-0.664977,0.584258,0.355263,0.181143,0.059526,1.002681
2011-09-26T14:33:55.084094,5580,-0.676350,0.649869,0.346066,0.180397,0.059435,1.003703
2011-09-26T14:33:55.094094,5590,-0.687722,0.715481,0.336870,0.179651,0.059345,1.004726
2011-09-26T14:33:55.104094,5600,-0.688110,0.736048,0.339528,0.178962,0.057666,1.005725
2011-09-26T14:33:55.114094,5610,-0.688183,0.755321,0.342526,0.178275,0.055942,1.006723
2011-09-26T14:33:55.124094,5620,-0.688255,0.774595,0.345524,0.177587,0.054217,1.007721
2011-09-26T14:33:55.134094,5630,-0.688328,0.793869,0.348522,0.176900,0.052493,1.008719
2011-09-26T14:33:55.144094,5640,-0.688400,0.813142,0.351520,0.176213,0.050769,1.009717
2011-09-26T14:33:55.154094,5650,-0.688473,0.832416,0.354518,0.175526,0.049044,1.010715
2011-09-26T14:33:55.164094,5660,-0.688545,0.851690,0.357516,0.174839,0.047320,1.011713
2011-09-26T14:33:55.174094,5670,-0.688618,0.870963,0.360514,0.174151,0.045595,1.012711
2011-09-26T14:33:55.184094,5680,-0.688690,0.890237,0.363512,0.173464,0.043871,1.013709
2011-09-26T14:33:55.194094,5690,-0.688763,0.909511,0.366510,0.172777,0.042147,1.014707
2011-09-26T14:33:55.204094,5700,-0.624065,0.893080,0.374602,0.172402,0.041948,1.014240
2011-09-26T14:33:55.214094,5710,-0.556074,0.874835,0.382952,0.172043,0.041827,1.013699
2011-09-26T14:33:55.224094,5720,-0.488082,0.856589,0.391303,0.171685,0.041706,1.013157
2011-09-26T14:33:55.234094,5730,-0.420091,0.838343,0.399654,0.171326,0.041585,1.012616
2011-09-26T14:33:55.244094,5740,-0.352099,0.820097,0.408004,0.170967,0.041464,1.012075
2011-09-26T14:33:55.254094,5750,-0.284108,0.801851,0.416355,0.170608,0.041343,1.011534
2011-09-26T14:33:55.264094,5760,-0.216117,0.783606,0.424706,0.170249,0.041222,1.010993
2011-09-26T14:33:55.274094,5770,-0.148125,0.765360,0.433057,0.169890,0.041101,1.010451
2011-09-26T14:33:55.284094,5780,-0.080134,0.747114,0.441407,0.169532,0.040980,1.009910
2011-09-26T14:33:55.294094,5790,-0.012142,0.728868,0.449758,0.169173,0.040860,1.009369
2011-09-26T14:33:55.304094,5800,0.055849,0.710623,0.458109,0.168814,0.040739,1.008828
2011-09-26T14:33:55.314094,5810,0.130437,0.687931,0.441374,0.168294,0.041651,1.003464
2011-09-26T14:33:55.324094,5820,0.205210,0.665114,0.423933,0.167769,0.042593,0.997964
2011-09-26T14:33:55.334094,5830,0.279983,0.642297,0.406492,0.167244,0.043535,0.992464
2011-09-26T14:33:55.344094,5840,0.354756,0.619480,0.389051,0.166719,0.044478,0.986964
2011-09-26T14:33:55.354094,5850,0.429529,0.596663,0.371610,0.166194,0.045420,0.981464
2011-09-26T14:33:55.364094,5860,0.504303,0.573846,0.354169,0.165669,0.046362,0.975964
2011-09-26T14:33:55.374094,5870,0.579076,0.551029,0.336728,0.165144,0.047304,0.970464
2011-09-26T14:33:55.384094,5880,0.653849,0.528212,0.319287,0.164619,0.048246,0.964964
2011-09-26T14:33:55.394094,5890,0.728622,0.505395,0.301846,0.164094,0.049188,0.959464
2011-09-26T14:33:55.404094,5900,0.803395,0.482578,0.284405,0.163569,0.050130,0.953964
2011-09-26T14:33:55.414094,5910,0.743095,0.395230,0.283037,0.163947,0.052135,0.954097
2011-09-26T14:33:55.424094,5920,0.676799,0.305017,0.282382,0.164366,0.054187,0.954480
2011-09-26T14:33:55.434094,5930,0.610503,0.214805,0.281727,0.164785,0.056240,0.954864
2011-09-26T14:33:55.444094,5940,0.544207,0.124592,0.281072,0.165204,0.058292,0.955247
2011-09-26T14:33:55.454094,5950,0.477911,0.034379,0.280416,0.165622,0.060344,0.955630
2011-09-26T14:33:55.464094,5960,0.411615,-0.055834,0.279761,0.166041,0.062397,0.956013
2011-09-26T14:33:55.474094,5970,0.345319,-0.146046,0.279106,0.166460,0.064449,0.956396
2011-09-26T14:33:55.484094,5980,0.279023,-0.236259,0.278451,0.166879,0.066501,0.956779
2011-09-26T14:33:55.494094,5990,0.212727,-0.326472,0.277796,0.167298,0.068554,0.957162
2011-09-26T14:33:55.504094,6000,0.146431,-0.416685,0.277141,0.167716,0.070606,0.957545
2011-09-26T14:33:55.514094,6010,0.080135,-0.506897,0.276486,0.168135,0.072658,0.957928
2011-09-26T14:33:55.524094,6020,0.045854,-0.517616,0.275067,0.168191,0.070256,0.961893
2011-09-26T14:33:55.534094,6030,0.012634,-0.525697,0.273624,0.168235,0.067705,0.965977
2011-09-26T14:33:55.544094,6040,-0.020585,-0.533779,0.272180,0.168279,0.065154,0.970061
2011-09-26T14:33:55.554094,6050,-0.053804,-0.541861,0.270737,0.168322,0.062604,0.974144
2011-09-26T14:33:55.564094,6060,-0.087023,-0.549942,0.269293,0.168366,0.060053,0.978228
2011-09-26T14:33:55.574094,6070,-0.120242,-0.558024,0.267850,0.168410,0.057503,0.982312
2011-09-26T14:33:55.584094,6080,-0.153462,-0.566106,0.266406,0.168454,0.054952,0.986395
2011-09-26T14:33:55.594094,6090,-0.186681,-0.574187,0.264962,0.168498,0.052401,0.990479
2011-09-26T14:33:55.604094,6100,-0.219900,-0.582269,0.263519,0.168542,0.049851,0.994563
2011-09-26T14:33:55.614094,6110,-0.253119,-0.590351,0.262075,0.168586,0.047300,0.998646
2011-09-26T14:33:55.624094,6120,-0.199140,-0.537183,0.249960,0.169008,0.045982,1.003517
2011-09-26T14:33:55.634094,6130,-0.140814,-0.480962,0.237313,0.169449,0.044725,1.008427
2011-09-26T14:33:55.644094,6140,-0.082488,-0.424741,0.224666,0.169890,0.043469,1.013337
2011-09-26T14:33:55.654094,6150,-0.024162,-0.368519,0.212019,0.170331,0.042212,1.018247
2011-09-26T14:33:55.664094,6160,0.034164,-0.312298,0.199372,0.170772,0.040955,1.023157
2011-09-26T14:33:55.674094,6170,0.092490,-0.256077,0.186725,0.171213,0.039698,1.028067
2011-09-26T14:33:55.684094,6180,0.150816,-0.199856,0.174077,0.171654,0.038442,1.032977
2011-09-26T14:33:55.694094,6190,0.209142,-0.143634,0.161430,0.172096,0.037185,1.037886
2011-09-26T14:33:55.704094,6200,0.267468,-0.087413,0.148783,0.172537,0.035928,1.042796
2011-09-26T14:33:55.714094,6210,0.325794,-0.031192,0.136136,0.172978,0.034671,1.047706
2011-09-26T14:33:55.724094,6220,0.419198,0.085878,0.149859,0.172796,0.034366,1.044705
2011-09-26T14:33:55.734094,6230,0.513848,0.205109,0.164519,0.172592,0.034094,1.041424
2011-09-26T14:33:55.744094,6240,0.608498,0.324340,0.179179,0.172389,0.033822,1.038142
2011-09-26T14:33:55.754094,6250,0.703148,0.443571,0.193839,0.172185,0.033550,1.034860
2011-09-26T14:33:55.764094,6260,0.797798,0.562802,0.208498,0.171981,0.033278,1.031578
2011-09-26T14:33:55.774094,6270,0.892447,0.682033,0.223158,0.171777,0.033006,1.028296
2011-09-26T14:33:55.784094,6280,0.987097,0.801265,0.237818,0.171574,0.032734,1.025015
2011-09-26T14:33:55.794094,6290,1.081747,0.920496,0.252478,0.171370,0.032462,1.021733
2011-09-26T14:33:55.804094,6300,1.176397,1.039727,0.267138,0.171166,0.032190,1.018451
2011-09-26T14:33:55.814094,6310,1.271047,1.158958,0.281798,0.170962,0.031918,1.015169
2011-09-26T14:33:55.824094,6320,1.318947,1.245754,0.262453,0.169914,0.033190,1.011972
2011-09-26T14:33:55.834094,6330,1.365390,1.331541,0.242049,0.168839,0.034511,1.008777
2011-09-26T14:33:55.844094,6340,1.411834,1.417327,0.221646,0.167765,0.035832,1.005582
2011-09-26T14:33:55.854094,6350,1.458278,1.503114,0.201242,0.166690,0.037152,1.002387
2011-09-26T14:33:55.864094,6360,1.504722,1.588901,0.180838,0.165615,0.038473,0.999192
2011-09-26T14:33:55.874094,6370,1.551165,1.674687,0.160434,0.164541,0.039794,0.995997
2011-09-26T14:33:55.884094,6380,1.597609,1.760474,0.140031,0.163466,0.041114,0.992802
2011-09-26T14:33:55.894094,6390,1.644053,1.846260,0.119627,0.162391,0.042435,0.989607
2011-09-26T14:33:55.904094,6400,1.690497,1.932047,0.099223,0.161316,0.043756,0.986412
2011-09-26T14:33:55.914094,6410,1.736941,2.017833,0.078820,0.160242,0.045076,0.983217
2011-09-26T14:33:55.924094,6420,1.783384,2.103620,0.058416,0.159167,0.046397,0.980022
2011-09-26T14:33:55.934094,6430,1.892994,2.039364,0.053126,0.157289,0.046595,0.980088
2011-09-26T14:33:55.944094,6440,2.004436,1.970754,0.048275,0.155387,0.046760,0.980250
2011-09-26T14:33:55.954094,6450,2.115878,1.902145,0.043424,0.153486,0.046926,0.980411
2011-09-26T14:33:55.964094,6460,2.227320,1.833535,0.038572,0.151584,0.047091,0.980572
2011-09-26T14:33:55.974094,6470,2.338762,1.764926,0.033721,0.149683,0.047256,0.980733
2011-09-26T14:33:55.984094,6480,2.450204,1.696316,0.028870,0.147781,0.047422,0.980894
2011-09-26T14:33:55.994094,6490,2.561646,1.627707,0.024019,0.145880,0.047587,0.981056
2011-09-26T14:33:56.004094,6500,2.673088,1.559097,0.019167,0.143978,0.047752,0.981217
2011-09-26T14:33:56.014094,6510,2.784531,1.490488,0.014316,0.142077,0.047918,0.981378
2011-09-26T14:33:56.024094,6520,2.895973,1.421878,0.009465,0.140175,0.048083,0.981539
2011-09-26T14:33:56.034094,6530,2.690548,1.353984,0.036117,0.141326,0.052139,0.980707
2011-09-26T14:33:56.044094,6540,2.475961,1.286111,0.063679,0.142565,0.056307,0.979846
2011-09-26T14:33:56.054094,6550,2.261375,1.218238,0.091242,0.143804,0.060475,0.978985
2011-09-26T14:33:56.064094,6560,2.046789,1.150365,0.118805,0.145044,0.064643,0.978124
2011-09-26T14:33:56.074094,6570,1.832202,1.082492,0.146367,0.146283,0.068811,0.977262
2011-09-26T14:33:56.084094,6580,1.617616,1.014619,0.173930,0.147522,0.072979,0.976401
2011-09-26T14:33:56.094094,6590,1.403030,0.946745,0.201493,0.148761,0.077147,0.975540
2011-09-26T14:33:56.104094,6600,1.188443,0.878872,0.229055,0.150000,0.081315,0.974679
2011-09-26T14:33:56.114094,6610,0.973857,0.810999,0.256618,0.151239,0.085483,0.973818
2011-09-26T14:33:56.124094,6620,0.759270,0.743126,0.284181,0.152478,0.089651,0.972957
2011-09-26T14:33:56.134094,6630,0.544684,0.675253,0.311743,0.153717,0.093819,0.972096
2011-09-26T14:33:56.144094,6640,0.504937,0.669741,0.306328,0.153186,0.089160,0.969550
2011-09-26T14:33:56.154094,6650,0.474023,0.667381,0.299246,0.152565,0.084054,0.966919
2011-09-26T14:33:56.164094,6660,0.443110,0.665020,0.292165,0.151944,0.078948,0.964288
2011-09-26T14:33:56.174094,6670,0.412197,0.662659,0.285083,0.151324,0.073842,0.961658
2011-09-26T14:33:56.184094,6680,0.381283,0.660298,0.278002,0.150703,0.068737,0.959027
2011-09-26T14:33:56.194094,6690,0.350370,0.657938,0.270920,0.150082,0.063631,0.956396
2011-09-26T14:33:56.204094,6700,0.319457,0.655577,0.263839,0.149461,0.058525,0.953765
2011-09-26T14:33:56.214094,6710,0.288543,0.653216,0.256757,0.148841,0.053419,0.951134
2011-09-26T14:33:56.224094,6720,0.257630,0.650855,0.249676,0.148220,0.048314,0.948503
2011-09-26T14:33:56.234094,6730,0.226717,0.648495,0.242594,0.147599,0.043208,0.945872
2011-09-26T14:33:56.244094,6740,0.345161,0.515120,0.247256,0.146260,0.042873,0.951554
2011-09-26T14:33:56.254094,6750,0.468510,0.377443,0.252304,0.144897,0.042694,0.957510
2011-09-26T14:33:56.264094,6760,0.591858,0.239767,0.257352,0.143534,0.042515,0.963465
2011-09-26T14:33:56.274094,6770,0.715207,0.102091,0.262399,0.142171,0.042337,0.969420
2011-09-26T14:33:56.284094,6780,0.838555,-0.035585,0.267447,0.140809,0.042158,0.975376
2011-09-26T14:33:56.294094,6790,0.961904,-0.173261,0.272495,0.139446,0.041980,0.981331
2011-09-26T14:33:56.304094,6800,1.085252,-0.310938,0.277542,0.138083,0.041801,0.987286
2011-09-26T14:33:56.314094,6810,1.208601,-0.448614,0.282590,0.136720,0.041623,0.993242
2011-09-26T14:33:56.324094,6820,1.331949,-0.586290,0.287638,0.135357,0.041444,0.999197
2011-09-26T14:33:56.334094,6830,1.455298,-0.723966,0.292686,0.133995,0.041266,1.005152
2011-09-26T14:33:56.344094,6840,1.528031,-0.632343,0.280802,0.134976,0.043540,1.004911
2011-09-26T14:33:56.354094,6850,1.599274,-0.533971,0.268420,0.136027,0.045887,1.004488
2011-09-26T14:33:56.364094,6860,1.670518,-0.435599,0.256038,0.137078,0.048234,1.004064
2011-09-26T14:33:56.374094,6870,1.741761,-0.337227,0.243656,0.138129,0.050582,1.003640
2011-09-26T14:33:56.384094,6880,1.813005,-0.238855,0.231274,0.139180,0.052929,1.003217
2011-09-26T14:33:56.394094,6890,1.884248,-0.140483,0.218891,0.140231,0.055276,1.002793
2011-09-26T14:33:56.404094,6900,1.955492,-0.042112,0.206509,0.141281,0.057623,1.002370
2011-09-26T14:33:56.414094,6910,2.026735,0.056260,0.194127,0.142332,0.059970,1.001946
2011-09-26T14:33:56.424094,6920,2.097979,0.154632,0.181745,0.143383,0.062317,1.001523
2011-09-26T14:33:56.434094,6930,2.169222,0.253004,0.169363,0.144434,0.064664,1.001099
2011-09-26T14:33:56.444094,6940,2.240466,0.351376,0.156981,0.145485,0.067011,1.000676
2011-09-26T14:33:56.454094,6950,1.990821,0.368580,0.141480,0.144090,0.071863,0.997662
2011-09-26T14:33:56.464094,6960,1.731151,0.383248,0.125882,0.142618,0.076793,0.994567
2011-09-26T14:33:56.474094,6970,1.471480,0.397916,0.110283,0.141147,0.081723,0.991472
2011-09-26T14:33:56.484094,6980,1.211810,0.412584,0.094685,0.139675,0.086653,0.988377
2011-09-26T14:33:56.494094,6990,0.952139,0.427252,0.079086,0.138204,0.091583,0.985282
2011-09-26T14:33:56.504094,7000,0.692469,0.441920,0.063488,0.136732,0.096513,0.982187
2011-09-26T14:33:56.514094,7010,0.432798,0.456588,0.047889,0.135261,0.101443,0.979092
2011-09-26T14:33:56.524094,7020,0.173128,0.471256,0.032291,0.133789,0.106373,0.975998
2011-09-26T14:33:56.534094,7030,-0.086543,0.485924,0.016692,0.132318,0.111304,0.972903
2011-09-26T14:33:56.544094,7040,-0.346213,0.500592,0.001094,0.130846,0.116234,0.969808
2011-09-26T14:33:56.554094,7050,-0.482609,0.438327,0.010071,0.127890,0.112758,0.976305
2011-09-26T14:33:56.564094,7060,-0.614825,0.373455,0.019880,0.124882,0.108997,0.983128
2011-09-26T14:33:56.574094,7070,-0.747042,0.308582,0.029690,0.121875,0.105237,0.989950
2011-09-26T14:33:56.584094,7080,-0.879258,0.243710,0.039500,0.118868,0.101476,0.996773
2011-09-26T14:33:56.594094,7090,-1.011475,0.178837,0.049310,0.115861,0.097715,1.003595
2011-09-26T14:33:56.604094,7100,-1.143691,0.113965,0.059120,0.112854,0.093954,1.010418
2011-09-26T14:33:56.614094,7110,-1.275908,0.049092,0.068930,0.109846,0.090194,1.017240
2011-09-26T14:33:56.624094,7120,-1.408124,-0.015780,0.078740,0.106839,0.086433,1.024063
2011-09-26T14:33:56.634094,7130,-1.540341,-0.080653,0.088549,0.103832,0.082672,1.030885
2011-09-26T14:33:56.644094,7140,-1.672558,-0.145525,0.098359,0.100825,0.078912,1.037708
2011-09-26T14:33:56.654094,7150,-1.595373,-0.244725,0.103242,0.096338,0.073901,1.030100
2011-09-26T14:33:56.664094,7160,-1.506679,-0.345813,0.107854,0.091771,0.068821,1.021699
2011-09-26T14:33:56.674094,7170,-1.417986,-0.446900,0.112466,0.087203,0.063742,1.013298
2011-09-26T14:33:56.684094,7180,-1.329292,-0.547987,0.117078,0.082635,0.058663,1.004897
2011-09-26T14:33:56.694094,7190,-1.240598,-0.649074,0.121690,0.078067,0.053583,0.996497
2011-09-26T14:33:56.704094,7200,-1.151905,-0.750162,0.126302,0.073499,0.048504,0.988096
2011-09-26T14:33:56.714094,7210,-1.063211,-0.851249,0.130913,0.068932,0.043424,0.979695
2011-09-26T14:33:56.724094,7220,-0.974517,-0.952336,0.135525,0.064364,0.038345,0.971294
2011-09-26T14:33:56.734094,7230,-0.885823,-1.053423,0.140137,0.059796,0.033266,0.962893
2011-09-26T14:33:56.744094,7240,-0.797130,-1.154510,0.144749,0.055228,0.028186,0.954492
2011-09-26T14:33:56.754094,7250,-0.708436,-1.255598,0.149361,0.050661,0.023107,0.946091
2011-09-26T14:33:56.764094,7260,-0.638853,-1.440610,0.145154,0.050012,0.027801,0.951296
2011-09-26T14:33:56.774094,7270,-0.569913,-1.628444,0.140650,0.049495,0.032824,0.956957
2011-09-26T14:33:56.784094,7280,-0.500973,-1.816278,0.136147,0.048977,0.037847,0.962619
2011-09-26T14:33:56.794094,7290,-0.432033,-2.004112,0.131643,0.048460,0.042871,0.968281
2011-09-26T14:33:56.804094,7300,-0.363092,-2.191945,0.127139,0.047943,0.047894,0.973942
2011-09-26T14:33:56.814094,7310,-0.294152,-2.379779,0.122636,0.047426,0.052917,0.979604
2011-09-26T14:33:56.824094,7320,-0.225212,-2.567613,0.118132,0.046909,0.057940,0.985266
2011-09-26T14:33:56.834094,7330,-0.156272,-2.755447,0.113628,0.046392,0.062963,0.990928
2011-09-26T14:33:56.844094,7340,-0.087332,-2.943280,0.109125,0.045875,0.067986,0.996589
2011-09-26T14:33:56.854094,7350,-0.018391,-3.131114,0.104621,0.045357,0.073009,1.002251
2011-09-26T14:33:56.864094,7360,-0.086976,-3.086353,0.075740,0.046691,0.074404,1.009950
2011-09-26T14:33:56.874094,7370,-0.160241,-3.033677,0.046028,0.048089,0.075675,1.017719
2011-09-26T14:33:56.884094,7380,-0.233506,-2.981001,0.016317,0.049486,0.076947,1.025488
2011-09-26T14:33:56.894094,7390,-0.306771,-2.928325,-0.013394,0.050883,0.078218,1.033256
2011-09-26T14:33:56.904094,7400,-0.380036,-2.875649,-0.043106,0.052280,0.079489,1.041025
2011-09-26T14:33:56.914094,7410,-0.453301,-2.822973,-0.072817,0.053677,0.080761,1.048794
2011-09-26T14:33:56.924094,7420,-0.526566,-2.770297,-0.102528,0.055074,0.082032,1.056562
2011-09-26T14:33:56.934094,7430,-0.599831,-2.717621,-0.132239,0.056471,0.083303,1.064331
2011-09-26T14:33:56.944094,7440,-0.673096,-2.664945,-0.161951,0.057868,0.084574,1.072100
2011-09-26T14:33:56.954094,7450,-0.746361,-2.612269,-0.191662,0.059265,0.085846,1.079868
2011-09-26T14:33:56.964094,7460,-0.858541,-2.419025,-0.190431,0.058662,0.082859,1.078789
2011-09-26T14:33:56.974094,7470,-0.972355,-2.219877,-0.187901,0.057975,0.079693,1.077337
2011-09-26T14:33:56.984094,7480,-1.086169,-2.020729,-0.185370,0.057287,0.076528,1.075886
2011-09-26T14:33:56.994094,7490,-1.199983,-1.821580,-0.182840,0.056600,0.073362,1.074434
2011-09-26T14:33:57.004094,7500,-1.313797,-1.622432,-0.180309,0.055912,0.070196,1.072983
2011-09-26T14:33:57.014094,7510,-1.427612,-1.423284,-0.177779,0.055225,0.067031,1.071532
2011-09-26T14:33:57.024094,7520,-1.541426,-1.224136,-0.175248,0.054538,0.063865,1.070080
2011-09-26T14:33:57.034094,7530,-1.655240,-1.024987,-0.172718,0.053850,0.060699,1.068629
2011-09-26T14:33:57.044094,7540,-1.769054,-0.825839,-0.170187,0.053163,0.057534,1.067177
2011-09-26T14:33:57.054094,7550,-1.882868,-0.626691,-0.167657,0.052475,0.054368,1.065726
2011-09-26T14:33:57.064094,7560,-1.996683,-0.427543,-0.165126,0.051788,0.051203,1.064275
2011-09-26T14:33:57.074094,7570,-1.905016,-0.288032,-0.161337,0.052787,0.050334,1.061279
2011-09-26T14:33:57.084094,7580,-1.806206,-0.150594,-0.157505,0.053845,0.049544,1.058229
2011-09-26T14:33:57.094094,7590,-1.707396,-0.013156,-0.153672,0.054903,0.048755,1.055179
2011-09-26T14:33:57.104094,7600,-1.608587,0.124282,-0.149840,0.055961,0.047966,1.052130
2011-09-26T14:33:57.114094,7610,-1.509777,0.261720,-0.146007,0.057019,0.047177,1.049080
2011-09-26T14:33:57.124094,7620,-1.410967,0.399158,-0.142175,0.058077,0.046388,1.046030
2011-09-26T14:33:57.134094,7630,-1.312158,0.536596,-0.138342,0.059135,0.045598,1.042980
2011-09-26T14:33:57.144094,7640,-1.213348,0.674034,-0.134509,0.060193,0.044809,1.039931
2011-09-26T14:33:57.154094,7650,-1.114539,0.811472,-0.130677,0.061251,0.044020,1.036881
2011-09-26T14:33:57.164094,7660,-1.015729,0.948910,-0.126844,0.062309,0.043231,1.033831
2011-09-26T14:33:57.174094,7670,-0.954550,1.049983,-0.124341,0.062270,0.043558,1.028428
2011-09-26T14:33:57.184094,7680,-0.895211,1.149278,-0.121903,0.062177,0.043941,1.022910
2011-09-26T14:33:57.194094,7690,-0.835872,1.248573,-0.119464,0.062084,0.044323,1.017392
2011-09-26T14:33:57.204094,7700,-0.776533,1.347869,-0.117026,0.061992,0.044705,1.011874
2011-09-26T14:33:57.214094,7710,-0.717194,1.447164,-0.114588,0.061899,0.045087,1.006356
2011-09-26T14:33:57.224094,7720,-0.657855,1.546459,-0.112150,0.061806,0.045469,1.000838
2011-09-26T14:33:57.234094,7730,-0.598516,1.645754,-0.109711,0.061714,0.045851,0.995320
2011-09-26T14:33:57.244094,7740,-0.539177,1.745049,-0.107273,0.061621,0.046233,0.989802
2011-09-26T14:33:57.254094,7750,-0.479838,1.844344,-0.104835,0.061528,0.046615,0.984284
2011-09-26T14:33:57.264094,7760,-0.420499,1.943639,-0.102396,0.061436,0.046998,0.978766
2011-09-26T14:33:57.274094,7770,-0.348372,1.943978,-0.112665,0.060823,0.047700,0.979678
2011-09-26T14:33:57.284094,7780,-0.275749,1.940472,-0.123427,0.060189,0.048415,0.980840
2011-09-26T14:33:57.294094,7790,-0.203125,1.936966,-0.134190,0.059556,0.049130,0.982002
2011-09-26T14:33:57.304094,7800,-0.130502,1.933461,-0.144952,0.058922,0.049845,0.983164
2011-09-26T14:33:57.314094,7810,-0.057879,1.929955,-0.155714,0.058289,0.050560,0.984326
2011-09-26T14:33:57.324094,7820,0.014745,1.926449,-0.166477,0.057655,0.051275,0.985488
2011-09-26T14:33:57.334094,7830,0.087368,1.922943,-0.177239,0.057022,0.051990,0.986650
2011-09-26T14:33:57.344094,7840,0.159991,1.919437,-0.188001,0.056388,0.052704,0.987812
2011-09-26T14:33:57.354094,7850,0.232615,1.915931,-0.198764,0.055755,0.053419,0.988974
2011-09-26T14:33:57.364094,7860,0.305238,1.912425,-0.209526,0.055121,0.054134,0.990136
2011-09-26T14:33:57.374094,7870,0.377862,1.908919,-0.220288,0.054488,0.054849,0.991298
2011-09-26T14:33:57.384094,7880,0.417547,1.807604,-0.209193,0.053307,0.054236,0.987591
2011-09-26T14:33:57.394094,7890,0.456018,1.702680,-0.197292,0.052107,0.053575,0.983705
2011-09-26T14:33:57.404094,7900,0.494488,1.597755,-0.185390,0.050906,0.052913,0.979818
2011-09-26T14:33:57.414094,7910,0.532958,1.492830,-0.173489,0.049706,0.052251,0.975931
2011-09-26T14:33:57.424094,7920,0.571428,1.387906,-0.161587,0.048505,0.051589,0.972045
2011-09-26T14:33:57.434094,7930,0.609898,1.282981,-0.149685,0.047304,0.050927,0.968158
2011-09-26T14:33:57.444094,7940,0.648368,1.178056,-0.137784,0.046104,0.050266,0.964272
2011-09-26T14:33:57.454094,7950,0.686838,1.073132,-0.125882,0.044903,0.049604,0.960385
2011-09-26T14:33:57.464094,7960,0.725308,0.968207,-0.113980,0.043702,0.048942,0.956499
2011-09-26T14:33:57.474094,7970,0.763778,0.863282,-0.102079,0.042502,0.048280,0.952612
2011-09-26T14:33:57.484094,7980,0.692243,0.723407,-0.089712,0.042053,0.049356,0.952798
2011-09-26T14:33:57.494094,7990,0.617188,0.582414,-0.077330,0.041628,0.050486,0.953115
2011-09-26T14:33:57.504094,8000,0.542134,0.441420,-0.064949,0.041203,0.051617,0.953431
2011-09-26T14:33:57.514094,8010,0.467079,0.300426,-0.052567,0.040778,0.052748,0.953748
2011-09-26T14:33:57.524094,8020,0.392024,0.159433,-0.040185,0.040353,0.053879,0.954064
2011-09-26T14:33:57.534094,8030,0.316969,0.018439,-0.027803,0.039928,0.055010,0.954380
2011-09-26T14:33:57.544094,8040,0.241914,-0.122555,-0.015422,0.039503,0.056141,0.954697
2011-09-26T14:33:57.554094,8050,0.166859,-0.263548,-0.003040,0.039078,0.057272,0.955013
2011-09-26T14:33:57.564094,8060,0.091805,-0.404542,0.009342,0.038652,0.058402,0.955330
2011-09-26T14:33:57.574094,8070,0.016750,-0.545535,0.021723,0.038227,0.059533,0.955646
2011-09-26T14:33:57.584094,8080,0.000893,-0.661102,0.028108,0.038307,0.059224,0.958032
2011-09-26T14:33:57.594094,8090,-0.012670,-0.775684,0.034260,0.038406,0.058858,0.960498
2011-09-26T14:33:57.604094,8100,-0.026233,-0.890266,0.040413,0.038505,0.058493,0.962964
2011-09-26T14:33:57.614094,8110,-0.039795,-1.004848,0.046565,0.038605,0.058127,0.965431
2011-09-26T14:33:57.624094,8120,-0.053358,-1.119429,0.052717,0.038704,0.057761,0.967897
2011-09-26T14:33:57.634094,8130,-0.066921,-1.234011,0.058869,0.038803,0.057396,0.970363
2011-09-26T14:33:57.644094,8140,-0.080484,-1.348593,0.065022,0.038902,0.057030,0.972829
2011-09-26T14:33:57.654094,8150,-0.094046,-1.463175,0.071174,0.039001,0.056665,0.975295
2011-09-26T14:33:57.664094,8160,-0.107609,-1.577756,0.077326,0.039100,0.056299,0.977762
2011-09-26T14:33:57.674094,8170,-0.121172,-1.692338,0.083479,0.039200,0.055934,0.980228
2011-09-26T14:33:57.684094,8180,-0.134735,-1.806920,0.089631,0.039299,0.055568,0.982694
2011-09-26T14:33:57.694094,8190,-0.140792,-1.734501,0.077317,0.039771,0.056899,0.987489
2011-09-26T14:33:57.704094,8200,-0.146520,-1.653879,0.064194,0.040260,0.058304,0.992387
2011-09-26T14:33:57.714094,8210,-0.152248,-1.573258,0.051071,0.040748,0.059710,0.997285
2011-09-26T14:33:57.724094,8220,-0.157976,-1.492637,0.037947,0.041237,0.061115,1.002183
2011-09-26T14:33:57.734094,8230,-0.163704,-1.412016,0.024824,0.041726,0.062521,1.007080
2011-09-26T14:33:57.744094,8240,-0.169432,-1.331395,0.011701,0.042214,0.063926,1.011978
2011-09-26T14:33:57.754094,8250,-0.175160,-1.250774,-0.001423,0.042703,0.065331,1.016876
2011-09-26T14:33:57.764094,8260,-0.180888,-1.170153,-0.014546,0.043192,0.066737,1.021774
2011-09-26T14:33:57.774094,8270,-0.186616,-1.089532,-0.027669,0.043680,0.068142,1.026671
2011-09-26T14:33:57.784094,8280,-0.192344,-1.008910,-0.040793,0.044169,0.069547,1.031569
2011-09-26T14:33:57.794094,8290,-0.231498,-0.845282,-0.048845,0.045355,0.069657,1.032494
2011-09-26T14:33:57.804094,8300,-0.271911,-0.678527,-0.056706,0.046567,0.069718,1.033268
2011-09-26T14:33:57.814094,8310,-0.312324,-0.511772,-0.064567,0.047779,0.069779,1.034043
2011-09-26T14:33:57.824094,8320,-0.352737,-0.345017,-0.072428,0.048991,0.069840,1.034818
2011-09-26T14:33:57.834094,8330,-0.393150,-0.178262,-0.080289,0.050204,0.069901,1.035593
2011-09-26T14:33:57.844094,8340,-0.433563,-0.011507,-0.088150,0.051416,0.069963,1.036367
2011-09-26T14:33:57.854094,8350,-0.473976,0.155247,-0.096011,0.052628,0.070024,1.037142
2011-09-26T14:33:57.864094,8360,-0.514389,0.322002,-0.103872,0.053840,0.070085,1.037917
2011-09-26T14:33:57.874094,8370,-0.554802,0.488757,-0.111733,0.055052,0.070146,1.038692
2011-09-26T14:33:57.884094,8380,-0.595215,0.655512,-0.119594,0.056264,0.070207,1.039466
2011-09-26T14:33:57.894094,8390,-0.635628,0.822267,-0.127455,0.057477,0.070268,1.040241
2011-09-26T14:33:57.904094,8400,-0.642183,0.953363,-0.139130,0.056158,0.069459,1.037791
2011-09-26T14:33:57.914094,8410,-0.647368,1.083015,-0.150959,0.054736,0.068615,1.035210
2011-09-26T14:33:57.924094,8420,-0.652553,1.212667,-0.162788,0.053315,0.067772,1.032629
2011-09-26T14:33:57.934094,8430,-0.657738,1.342319,-0.174617,0.051894,0.066928,1.030049
2011-09-26T14:33:57.944094,8440,-0.662923,1.471971,-0.186446,0.050472,0.066084,1.027468
2011-09-26T14:33:57.954094,8450,-0.668108,1.601623,-0.198275,0.049051,0.065240,1.024887
2011-09-26T14:33:57.964094,8460,-0.673293,1.731275,-0.210104,0.047629,0.064397,1.022306
2011-09-26T14:33:57.974094,8470,-0.678478,1.860927,-0.221933,0.046208,0.063553,1.019725
2011-09-26T14:33:57.984094,8480,-0.683663,1.990579,-0.233762,0.044787,0.062709,1.017145
2011-09-26T14:33:57.994094,8490,-0.688848,2.120231,-0.245591,0.043365,0.061865,1.014564
2011-09-26T14:33:58.004094,8500,-0.612287,2.068921,-0.234454,0.042127,0.059588,1.009503
2011-09-26T14:33:58.014094,8510,-0.532478,2.010422,-0.222404,0.040896,0.057255,1.004344
2011-09-26T14:33:58.024094,8520,-0.452669,1.951923,-0.210355,0.039665,0.054921,0.999185
2011-09-26T14:33:58.034094,8530,-0.372861,1.893424,-0.198305,0.038434,0.052587,0.994026
2011-09-26T14:33:58.044094,8540,-0.293052,1.834926,-0.186255,0.037203,0.050253,0.988867
2011-09-26T14:33:58.054094,8550,-0.213243,1.776427,-0.174205,0.035973,0.047919,0.983708
2011-09-26T14:33:58.064094,8560,-0.133434,1.717928,-0.162156,0.034742,0.045585,0.978549
2011-09-26T14:33:58.074094,8570,-0.053626,1.659429,-0.150106,0.033511,0.043251,0.973390
2011-09-26T14:33:58.084094,8580,0.026183,1.600930,-0.138056,0.032280,0.040918,0.968231
2011-09-26T14:33:58.094094,8590,0.105992,1.542431,-0.126006,0.031049,0.038584,0.963072
2011-09-26T14:33:58.104094,8600,0.132856,1.431760,-0.099958,0.030683,0.038740,0.959578
2011-09-26T14:33:58.114094,8610,0.157521,1.318920,-0.073328,0.030352,0.039001,0.956154
2011-09-26T14:33:58.124094,8620,0.182185,1.206081,-0.046698,0.030022,0.039261,0.952730
2011-09-26T14:33:58.134094,8630,0.206850,1.093241,-0.020068,0.029691,0.039521,0.949305
2011-09-26T14:33:58.144094,8640,0.231514,0.980401,0.006562,0.029361,0.039781,0.945881
2011-09-26T14:33:58.154094,8650,0.256179,0.867562,0.033192,0.029030,0.040041,0.942457
2011-09-26T14:33:58.164094,8660,0.280843,0.754722,0.059822,0.028700,0.040301,0.939032
2011-09-26T14:33:58.174094,8670,0.305508,0.641883,0.086452,0.028369,0.040562,0.935608
2011-09-26T14:33:58.184094,8680,0.330172,0.529043,0.113082,0.028039,0.040822,0.932184
2011-09-26T14:33:58.194094,8690,0.354837,0.416204,0.139712,0.027709,0.041082,0.928760
2011-09-26T14:33:58.204094,8700,0.404721,0.311442,0.165390,0.028242,0.042013,0.934568
2011-09-26T14:33:58.214094,8710,0.455804,0.207065,0.191022,0.028817,0.042975,0.940815
2011-09-26T14:33:58.224094,8720,0.506887,0.102688,0.216655,0.029391,0.043938,0.947062
2011-09-26T14:33:58.234094,8730,0.557971,-0.001689,0.242288,0.029966,0.044901,0.953309
2011-09-26T14:33:58.244094,8740,0.609054,-0.106066,0.267920,0.030541,0.045863,0.959556
2011-09-26T14:33:58.254094,8750,0.660137,-0.210444,0.293553,0.031116,0.046826,0.965803
2011-09-26T14:33:58.264094,8760,0.711220,-0.314821,0.319186,0.031690,0.047788,0.972050
2011-09-26T14:33:58.274094,8770,0.762303,-0.419198,0.344818,0.032265,0.048751,0.978297
2011-09-26T14:33:58.284094,8780,0.813387,-0.523575,0.370451,0.032840,0.049713,0.984545
2011-09-26T14:33:58.294094,8790,0.864470,-0.627953,0.396084,0.033414,0.050676,0.990792
2011-09-26T14:33:58.304094,8800,0.915553,-0.732330,0.421717,0.033989,0.051639,0.997039
2011-09-26T14:33:58.314094,8810,0.822756,-0.740916,0.449536,0.035523,0.054042,0.998197
2011-09-26T14:33:58.324094,8820,0.724259,-0.745708,0.477442,0.037096,0.056503,0.999153
2011-09-26T14:33:58.334094,8830,0.625762,-0.750499,0.505348,0.038669,0.058963,1.000109
2011-09-26T14:33:58.344094,8840,0.527264,-0.755290,0.533255,0.040241,0.061424,1.001066
2011-09-26T14:33:58.354094,8850,0.428767,-0.760081,0.561161,0.041814,0.063884,1.002022
2011-09-26T14:33:58.364094,8860,0.330270,-0.764873,0.589067,0.043387,0.066345,1.002978
2011-09-26T14:33:58.374094,8870,0.231772,-0.769664,0.616973,0.044959,0.068805,1.003935
2011-09-26T14:33:58.384094,8880,0.133275,-0.774455,0.644879,0.046532,0.071266,1.004891
2011-09-26T14:33:58.394094,8890,0.034778,-0.779246,0.672785,0.048104,0.073727,1.005847
2011-09-26T14:33:58.404094,8900,-0.063720,-0.784038,0.700692,0.049677,0.076187,1.006804
2011-09-26T14:33:58.414094,8910,-0.156370,-0.733846,0.695360,0.050212,0.077746,1.007054
2011-09-26T14:33:58.424094,8920,-0.248677,-0.680430,0.688079,0.050687,0.079252,1.007263
2011-09-26T14:33:58.434094,8930,-0.340984,-0.627014,0.680797,0.051161,0.080757,1.007473
2011-09-26T14:33:58.444094,8940,-0.433291,-0.573598,0.673516,0.051636,0.082263,1.007682
2011-09-26T14:33:58.454094,8950,-0.525598,-0.520182,0.666235,0.052110,0.083769,1.007891
2011-09-26T14:33:58.464094,8960,-0.617906,-0.466766,0.658954,0.052585,0.085275,1.008100
2011-09-26T14:33:58.474094,8970,-0.710213,-0.413350,0.651673,0.053059,0.086780,1.008309
2011-09-26T14:33:58.484094,8980,-0.802520,-0.359934,0.644392,0.053534,0.088286,1.008518
2011-09-26T14:33:58.494094,8990,-0.894827,-0.306518,0.637111,0.054009,0.089792,1.008727
2011-09-26T14:33:58.504094,9000,-0.987134,-0.253102,0.629830,0.054483,0.091298,1.008936
2011-09-26T14:33:58.514094,9010,-1.079442,-0.199686,0.622549,0.054958,0.092803,1.009146
2011-09-26T14:33:58.524094,9020,-1.164522,-0.126573,0.618006,0.055728,0.091357,1.008856
2011-09-26T14:33:58.534094,9030,-1.249288,-0.052604,0.613582,0.056510,0.089782,1.008544
2011-09-26T14:33:58.544094,9040,-1.334055,0.021364,0.609159,0.057293,0.088208,1.008232
2011-09-26T14:33:58.554094,9050,-1.418821,0.095333,0.604735,0.058076,0.086633,1.007920
2011-09-26T14:33:58.564094,9060,-1.503588,0.169301,0.600312,0.058859,0.085058,1.007609
2011-09-26T14:33:58.574094,9070,-1.588354,0.243270,0.595888,0.059642,0.083484,1.007297
2011-09-26T14:33:58.584094,9080,-1.673121,0.317238,0.591464,0.060425,0.081909,1.006985
2011-09-26T14:33:58.594094,9090,-1.757888,0.391207,0.587041,0.061207,0.080334,1.006673
2011-09-26T14:33:58.604094,9100,-1.842654,0.465175,0.582617,0.061990,0.078760,1.006362
2011-09-26T14:33:58.614094,9110,-1.927421,0.539143,0.578193,0.062773,0.077185,1.006050
2011-09-26T14:33:58.624094,9120,-1.955020,0.548932,0.560167,0.063454,0.076934,1.003373
2011-09-26T14:33:58.634094,9130,-1.978658,0.554273,0.541198,0.064128,0.076775,1.000533
2011-09-26T14:33:58.644094,9140,-2.002296,0.559614,0.522229,0.064802,0.076616,0.997692
2011-09-26T14:33:58.654094,9150,-2.025935,0.564956,0.503260,0.065476,0.076458,0.994852
2011-09-26T14:33:58.664094,9160,-2.049573,0.570297,0.484291,0.066150,0.076299,0.992012
2011-09-26T14:33:58.674094,9170,-2.073211,0.575639,0.465322,0.066824,0.076140,0.989171
2011-09-26T14:33:58.684094,9180,-2.096850,0.580980,0.446353,0.067498,0.075981,0.986331
2011-09-26T14:33:58.694094,9190,-2.120488,0.586322,0.427384,0.068172,0.075822,0.983490
2011-09-26T14:33:58.704094,9200,-2.144126,0.591663,0.408415,0.068846,0.075663,0.980650
2011-09-26T14:33:58.714094,9210,-2.167765,0.597004,0.389447,0.069520,0.075504,0.977809
2011-09-26T14:33:58.724094,9220,-2.204736,0.507161,0.384497,0.069763,0.072824,0.978013
2011-09-26T14:33:58.734094,9230,-2.242350,0.412728,0.380224,0.069984,0.070022,0.978364
2011-09-26T14:33:58.744094,9240,-2.279964,0.318295,0.375951,0.070206,0.067221,0.978714
2011-09-26T14:33:58.754094,9250,-2.317578,0.223862,0.371678,0.070428,0.064419,0.979065
2011-09-26T14:33:58.764094,9260,-2.355192,0.129429,0.367405,0.070649,0.061618,0.979415
2011-09-26T14:33:58.774094,9270,-2.392805,0.034996,0.363132,0.070871,0.058816,0.979765
2011-09-26T14:33:58.784094,9280,-2.430419,-0.059437,0.358858,0.071093,0.056014,0.980116
2011-09-26T14:33:58.794094,9290,-2.468033,-0.153870,0.354585,0.071314,0.053213,0.980466
2011-09-26T14:33:58.804094,9300,-2.505647,-0.248303,0.350312,0.071536,0.050411,0.980817
2011-09-26T14:33:58.814094,9310,-2.543261,-0.342736,0.346039,0.071758,0.047610,0.981167
2011-09-26T14:33:58.824094,9320,-2.580875,-0.437169,0.341766,0.071979,0.044808,0.981518
2011-09-26T14:33:58.834094,9330,-2.538980,-0.499583,0.351370,0.072118,0.043519,0.983313
2011-09-26T14:33:58.844094,9340,-2.493513,-0.560558,0.361598,0.072253,0.042298,0.985172
2011-09-26T14:33:58.854094,9350,-2.448046,-0.621533,0.371826,0.072388,0.041077,0.987032
2011-09-26T14:33:58.864094,9360,-2.402578,-0.682508,0.382054,0.072524,0.039856,0.988892
2011-09-26T14:33:58.874094,9370,-2.357111,-0.743483,0.392282,0.072659,0.038635,0.990751
2011-09-26T14:33:58.884094,9380,-2.311644,-0.804458,0.402510,0.072794,0.037414,0.992611
2011-09-26T14:33:58.894094,9390,-2.266177,-0.865433,0.412738,0.072929,0.036193,0.994471
2011-09-26T14:33:58.904094,9400,-2.220710,-0.926408,0.422966,0.073064,0.034972,0.996330
2011-09-26T14:33:58.914094,9410,-2.175243,-0.987382,0.433194,0.073199,0.033751,0.998190
2011-09-26T14:33:58.924094,9420,-2.129775,-1.048357,0.443422,0.073334,0.032530,1.000050
2011-09-26T14:33:58.934094,9430,-1.958952,-1.063085,0.436066,0.073126,0.032017,1.001864
2011-09-26T14:33:58.944094,9440,-1.782660,-1.075795,0.427943,0.072903,0.031535,1.003676
2011-09-26T14:33:58.954094,9450,-1.606368,-1.088505,0.419820,0.072681,0.031053,1.005488
2011-09-26T14:33:58.964094,9460,-1.430076,-1.101215,0.411697,0.072458,0.030572,1.007300
2011-09-26T14:33:58.974094,9470,-1.253785,-1.113925,0.403575,0.072235,0.030090,1.009112
2011-09-26T14:33:58.984094,9480,-1.077493,-1.126635,0.395452,0.072012,0.029608,1.010924
2011-09-26T14:33:58.994094,9490,-0.901201,-1.139345,0.387329,0.071789,0.029126,1.012736
2011-09-26T14:33:59.004094,9500,-0.724909,-1.152055,0.379206,0.071566,0.028644,1.014548
2011-09-26T14:33:59.014094,9510,-0.548618,-1.164765,0.371083,0.071343,0.028162,1.016360
2011-09-26T14:33:59.024094,9520,-0.372326,-1.177475,0.362960,0.071120,0.027681,1.018172
2011-09-26T14:33:59.034094,9530,-0.355347,-1.073533,0.369955,0.071484,0.029315,1.018849
2011-09-26T14:33:59.044094,9540,-0.345771,-0.964169,0.377652,0.071876,0.031047,1.019474
2011-09-26T14:33:59.054094,9550,-0.336196,-0.854805,0.385349,0.072268,0.032779,1.020098
2011-09-26T14:33:59.064094,9560,-0.326621,-0.745441,0.393046,0.072660,0.034511,1.020723
2011-09-26T14:33:59.074094,9570,-0.317045,-0.636077,0.400743,0.073052,0.036244,1.021347
2011-09-26T14:33:59.084094,9580,-0.307470,-0.526713,0.408440,0.073444,0.037976,1.021972
2011-09-26T14:33:59.094094,9590,-0.297894,-0.417349,0.416137,0.073836,0.039708,1.022596
2011-09-26T14:33:59.104094,9600,-0.288319,-0.307985,0.423834,0.074228,0.041440,1.023220
2011-09-26T14:33:59.114094,9610,-0.278744,-0.198621,0.431532,0.074620,0.043173,1.023845
2011-09-26T14:33:59.124094,9620,-0.269168,-0.089258,0.439229,0.075012,0.044905,1.024469
2011-09-26T14:33:59.134094,9630,-0.259593,0.020106,0.446926,0.075404,0.046637,1.025094
2011-09-26T14:33:59.144094,9640,-0.225715,0.082871,0.434602,0.074618,0.046481,1.023855
2011-09-26T14:33:59.154094,9650,-0.189983,0.142079,0.420751,0.073742,0.046180,1.022474
2011-09-26T14:33:59.164094,9660,-0.154251,0.201288,0.406900,0.072866,0.045879,1.021093
2011-09-26T14:33:59.174094,9670,-0.118519,0.260497,0.393049,0.071990,0.045579,1.019712
2011-09-26T14:33:59.184094,9680,-0.082787,0.319705,0.379198,0.071114,0.045278,1.018331
2011-09-26T14:33:59.194094,9690,-0.047055,0.378914,0.365347,0.070238,0.044977,1.016950
2011-09-26T14:33:59.204094,9700,-0.011323,0.438122,0.351496,0.069362,0.044677,1.015569
2011-09-26T14:33:59.214094,9710,0.024409,0.497331,0.337645,0.068486,0.044376,1.014188
2011-09-26T14:33:59.224094,9720,0.060141,0.556539,0.323794,0.067610,0.044076,1.012807
2011-09-26T14:33:59.234094,9730,0.095874,0.615748,0.309943,0.066735,0.043775,1.011426
2011-09-26T14:33:59.244094,9740,0.115737,0.574850,0.325568,0.066686,0.043373,1.009594
2011-09-26T14:33:59.254094,9750,0.134801,0.528915,0.342676,0.066679,0.042966,1.007741
2011-09-26T14:33:59.264094,9760,0.153866,0.482980,0.359784,0.066673,0.042559,1.005887
2011-09-26T14:33:59.274094,9770,0.172931,0.437046,0.376892,0.066666,0.042152,1.004033
2011-09-26T14:33:59.284094,9780,0.191996,0.391111,0.394000,0.066659,0.041745,1.002179
2011-09-26T14:33:59.294094,9790,0.211060,0.345176,0.411108,0.066652,0.041338,1.000325
2011-09-26T14:33:59.304094,9800,0.230125,0.299242,0.428216,0.066646,0.040930,0.998472
2011-09-26T14:33:59.314094,9810,0.249190,0.253307,0.445323,0.066639,0.040523,0.996618
2011-09-26T14:33:59.324094,9820,0.268255,0.207372,0.462431,0.066632,0.040116,0.994764
2011-09-26T14:33:59.334094,9830,0.287319,0.161438,0.479539,0.066625,0.039709,0.992910
2011-09-26T14:33:59.344094,9840,0.318274,0.120446,0.463170,0.066501,0.040647,0.992372
2011-09-26T14:33:59.354094,9850,0.349789,0.079688,0.445219,0.066371,0.041648,0.991897
2011-09-26T14:33:59.364094,9860,0.381305,0.038929,0.427268,0.066241,0.042650,0.991421
2011-09-26T14:33:59.374094,9870,0.412821,-0.001829,0.409317,0.066111,0.043651,0.990946
2011-09-26T14:33:59.384094,9880,0.444337,-0.042587,0.391367,0.065982,0.044652,0.990470
2011-09-26T14:33:59.394094,9890,0.475852,-0.083345,0.373416,0.065852,0.045654,0.989995
2011-09-26T14:33:59.404094,9900,0.507368,-0.124104,0.355465,0.065722,0.046655,0.989519
2011-09-26T14:33:59.414094,9910,0.538884,-0.164862,0.337515,0.065592,0.047656,0.989044
2011-09-26T14:33:59.424094,9920,0.570399,-0.205620,0.319564,0.065462,0.048658,0.988569
2011-09-26T14:33:59.434094,9930,0.601915,-0.246379,0.301613,0.065332,0.049659,0.988093
2011-09-26T14:33:59.444094,9940,0.633431,-0.287137,0.283662,0.065202,0.050660,0.987618
2011-09-26T14:33:59.454094,9950,0.539187,-0.343480,0.288803,0.064967,0.051303,0.988512
2011-09-26T14:33:59.464094,9960,0.439115,-0.400545,0.295013,0.064726,0.051929,0.989470
2011-09-26T14:33:59.474094,9970,0.339043,-0.457611,0.301224,0.064486,0.052555,0.990428
2011-09-26T14:33:59.484094,9980,0.238971,-0.514676,0.307434,0.064245,0.053181,0.991387
2011-09-26T14:33:59.494094,9990,0.138899,-0.571742,0.313645,0.064005,0.053807,0.992345
2011-09-26T14:33:59.504094,10000,0.038827,-0.628807,0.319855,0.063764,0.054433,0.993303
2011-09-26T14:33:59.514094,10010,-0.061244,-0.685872,0.326066,0.063524,0.055059,0.994261
2011-09-26T14:33:59.524094,10020,-0.161316,-0.742938,0.332276,0.063284,0.055685,0.995219
2011-09-26T14:33:59.534094,10030,-0.261388,-0.800003,0.338487,0.063043,0.056310,0.996177
2011-09-26T14:33:59.544094,10040,-0.361460,-0.857069,0.344697,0.062803,0.056936,0.997135
2011-09-26T14:33:59.554094,10050,-0.374587,-0.919016,0.342791,0.062812,0.055156,0.999744
2011-09-26T14:33:59.564094,10060,-0.383303,-0.981210,0.340474,0.062833,0.053254,1.002436
2011-09-26T14:33:59.574094,10070,-0.392018,-1.043405,0.338156,0.062855,0.051352,1.005128
2011-09-26T14:33:59.584094,10080,-0.400733,-1.105600,0.335839,0.062877,0.049449,1.007820
2011-09-26T14:33:59.594094,10090,-0.409449,-1.167795,0.333521,0.062898,0.047547,1.010512
2011-09-26T14:33:59.604094,10100,-0.418164,-1.229990,0.331203,0.062920,0.045645,1.013204
2011-09-26T14:33:59.614094,10110,-0.426880,-1.292185,0.328886,0.062941,0.043742,1.015896
2011-09-26T14:33:59.624094,10120,-0.435595,-1.354379,0.326568,0.062963,0.041840,1.018588
2011-09-26T14:33:59.634094,10130,-0.444310,-1.416574,0.324251,0.062985,0.039938,1.021280
2011-09-26T14:33:59.644094,10140,-0.453026,-1.478769,0.321933,0.063006,0.038035,1.023972
2011-09-26T14:33:59.654094,10150,-0.461741,-1.540964,0.319615,0.063028,0.036133,1.026664
2011-09-26T14:33:59.664094,10160,-0.395187,-1.547852,0.318250,0.063570,0.036794,1.025001
2011-09-26T14:33:59.674094,10170,-0.323949,-1.551299,0.316945,0.064145,0.037614,1.023068
2011-09-26T14:33:59.684094,10180,-0.252710,-1.554745,0.315639,0.064720,0.038434,1.021134
2011-09-26T14:33:59.694094,10190,-0.181471,-1.558192,0.314333,0.065295,0.039254,1.019200
2011-09-26T14:33:59.704094,10200,-0.110232,-1.561638,0.313027,0.065869,0.040074,1.017266
2011-09-26T14:33:59.714094,10210,-0.038994,-1.565084,0.311722,0.066444,0.040894,1.015332
2011-09-26T14:33:59.724094,10220,0.032245,-1.568531,0.310416,0.067019,0.041714,1.013398
2011-09-26T14:33:59.734094,10230,0.103484,-1.571977,0.309110,0.067594,0.042534,1.011465
2011-09-26T14:33:59.744094,10240,0.174723,-1.575424,0.307804,0.068169,0.043354,1.009531
2011-09-26T14:33:59.754094,10250,0.245962,-1.578870,0.306499,0.068743,0.044174,1.007597
2011-09-26T14:33:59.764094,10260,0.201100,-1.481526,0.299071,0.069516,0.044759,1.010067
2011-09-26T14:33:59.774094,10270,0.150830,-1.379488,0.291358,0.070298,0.045333,1.012741
2011-09-26T14:33:59.784094,10280,0.100560,-1.277449,0.283645,0.071079,0.045907,1.015416
2011-09-26T14:33:59.794094,10290,0.050291,-1.175410,0.275931,0.071861,0.046481,1.018091
2011-09-26T14:33:59.804094,10300,0.000021,-1.073372,0.268218,0.072643,0.047055,1.020766
2011-09-26T14:33:59.814094,10310,-0.050249,-0.971333,0.260505,0.073425,0.047629,1.023441
2011-09-26T14:33:59.824094,10320,-0.100518,-0.869294,0.252792,0.074206,0.048203,1.026116
2011-09-26T14:33:59.834094,10330,-0.150788,-0.767256,0.245079,0.074988,0.048777,1.028791
2011-09-26T14:33:59.844094,10340,-0.201058,-0.665217,0.237366,0.075770,0.049351,1.031465
2011-09-26T14:33:59.854094,10350,-0.251327,-0.563178,0.229653,0.076552,0.049925,1.034140
2011-09-26T14:33:59.864094,10360,-0.253062,-0.435058,0.227832,0.076911,0.048955,1.035104
2011-09-26T14:33:59.874094,10370,-0.252313,-0.305602,0.226313,0.077249,0.047907,1.035980
2011-09-26T14:33:59.884094,10380,-0.251563,-0.176146,0.224795,0.077587,0.046858,1.036855
2011-09-26T14:33:59.894094,10390,-0.250813,-0.046690,0.223276,0.077925,0.045810,1.037731
2011-09-26T14:33:59.904094,10400,-0.250064,0.082765,0.221757,0.078263,0.044761,1.038607
2011-09-26T14:33:59.914094,10410,-0.249314,0.212221,0.220238,0.078601,0.043713,1.039483
2011-09-26T14:33:59.924094,10420,-0.248564,0.341677,0.218719,0.078939,0.042664,1.040359
2011-09-26T14:33:59.934094,10430,-0.247815,0.471133,0.217201,0.079277,0.041616,1.041235
2011-09-26T14:33:59.944094,10440,-0.247065,0.600589,0.215682,0.079615,0.040567,1.042111
2011-09-26T14:33:59.954094,10450,-0.246315,0.730045,0.214163,0.079952,0.039519,1.042986
2011-09-26T14:33:59.964094,10460,-0.227217,0.756258,0.217854,0.078482,0.038457,1.038013
2011-09-26T14:33:59.974094,10470,-0.207171,0.777129,0.221815,0.076919,0.037395,1.032737
2011-09-26T14:33:59.984094,10480,-0.187124,0.798000,0.225776,0.075355,0.036333,1.027461
2011-09-26T14:33:59.994094,10490,-0.167077,0.818871,0.229737,0.073791,0.035270,1.022184
2011-09-26T14:34:00.004094,10500,-0.147030,0.839742,0.233698,0.072228,0.034208,1.016908
2011-09-26T14:34:00.014094,10510,-0.126983,0.860613,0.237658,0.070664,0.033146,1.011632
2011-09-26T14:34:00.024094,10520,-0.106936,0.881484,0.241619,0.069100,0.032084,1.006356
2011-09-26T14:34:00.034094,10530,-0.086889,0.902356,0.245580,0.067537,0.031022,1.001080
2011-09-26T14:34:00.044094,10540,-0.066842,0.923227,0.249541,0.065973,0.029959,0.995804
2011-09-26T14:34:00.054094,10550,-0.046795,0.944098,0.253502,0.064409,0.028897,0.990527
2011-09-26T14:34:00.064094,10560,-0.026748,0.964969,0.257462,0.062846,0.027835,0.985251
2011-09-26T14:34:00.074094,10570,-0.019646,0.877803,0.258938,0.062971,0.028925,0.982527
2011-09-26T14:34:00.084094,10580,-0.013133,0.785722,0.260300,0.063173,0.030113,0.979920
2011-09-26T14:34:00.094094,10590,-0.006620,0.693642,0.261662,0.063374,0.031301,0.977312
2011-09-26T14:34:00.104094,10600,-0.000106,0.601562,0.263024,0.063576,0.032488,0.974704
2011-09-26T14:34:00.114094,10610,0.006407,0.509481,0.264386,0.063778,0.033676,0.972097
2011-09-26T14:34:00.124094,10620,0.012920,0.417401,0.265748,0.063980,0.034864,0.969489
2011-09-26T14:34:00.134094,10630,0.019434,0.325320,0.267110,0.064182,0.036052,0.966881
2011-09-26T14:34:00.144094,10640,0.025947,0.233240,0.268472,0.064384,0.037240,0.964274
2011-09-26T14:34:00.154094,10650,0.032460,0.141160,0.269834,0.064586,0.038428,0.961666
2011-09-26T14:34:00.164094,10660,0.038974,0.049079,0.271196,0.064787,0.039616,0.959058
2011-09-26T14:34:00.174094,10670,0.020095,0.025962,0.268790,0.065161,0.040356,0.961295
2011-09-26T14:34:00.184094,10680,-0.000497,0.007498,0.266130,0.065547,0.041066,0.963859
2011-09-26T14:34:00.194094,10690,-0.021088,-0.010966,0.263469,0.065933,0.041776,0.966423
2011-09-26T14:34:00.204094,10700,-0.041680,-0.029431,0.260809,0.066318,0.042486,0.968987
2011-09-26T14:34:00.214094,10710,-0.062272,-0.047895,0.258149,0.066704,0.043196,0.971551
2011-09-26T14:34:00.224094,10720,-0.082864,-0.066359,0.255488,0.067089,0.043906,0.974115
2011-09-26T14:34:00.234094,10730,-0.103456,-0.084823,0.252828,0.067475,0.044617,0.976679
2011-09-26T14:34:00.244094,10740,-0.124048,-0.103287,0.250167,0.067860,0.045327,0.979243
2011-09-26T14:34:00.254094,10750,-0.144639,-0.121751,0.247507,0.068246,0.046037,0.981807
2011-09-26T14:34:00.264094,10760,-0.165231,-0.140215,0.244846,0.068632,0.046747,0.984371
2011-09-26T14:34:00.274094,10770,-0.152419,-0.110958,0.243253,0.068711,0.046493,0.986811
2011-09-26T14:34:00.284094,10780,-0.137875,-0.079226,0.241715,0.068775,0.046190,0.989245
2011-09-26T14:34:00.294094,10790,-0.123330,-0.047494,0.240177,0.068839,0.045886,0.991679
2011-09-26T14:34:00.304094,10800,-0.108786,-0.015762,0.238639,0.068903,0.045582,0.994112
2011-09-26T14:34:00.314094,10810,-0.094242,0.015970,0.237101,0.068967,0.045279,0.996546
2011-09-26T14:34:00.324094,10820,-0.079698,0.047702,0.235563,0.069031,0.044975,0.998980
2011-09-26T14:34:00.334094,10830,-0.065153,0.079434,0.234025,0.069095,0.044672,1.001413
2011-09-26T14:34:00.344094,10840,-0.050609,0.111165,0.232487,0.069158,0.044368,1.003847
2011-09-26T14:34:00.354094,10850,-0.036065,0.142897,0.230949,0.069222,0.044064,1.006281
2011-09-26T14:34:00.364094,10860,-0.021520,0.174629,0.229411,0.069286,0.043761,1.008714
2011-09-26T14:34:00.374094,10870,-0.006976,0.206361,0.227873,0.069350,0.043457,1.011148
2011-09-26T14:34:00.384094,10880,-0.026636,0.207218,0.229014,0.068811,0.043449,1.009822
2011-09-26T14:34:00.394094,10890,-0.048021,0.206517,0.230291,0.068241,0.043455,1.008307
2011-09-26T14:34:00.404094,10900,-0.069405,0.205817,0.231568,0.067672,0.043462,1.006792
2011-09-26T14:34:00.414094,10910,-0.090790,0.205117,0.232845,0.067102,0.043468,1.005277
2011-09-26T14:34:00.424094,10920,-0.112174,0.204417,0.234122,0.066533,0.043475,1.003762
2011-09-26T14:34:00.434094,10930,-0.133559,0.203716,0.235399,0.065963,0.043481,1.002247
2011-09-26T14:34:00.444094,10940,-0.154943,0.203016,0.236675,0.065394,0.043488,1.000732
2011-09-26T14:34:00.454094,10950,-0.176328,0.202316,0.237952,0.064824,0.043494,0.999217
2011-09-26T14:34:00.464094,10960,-0.197712,0.201616,0.239229,0.064255,0.043500,0.997702
2011-09-26T14:34:00.474094,10970,-0.219097,0.200915,0.240506,0.063686,0.043507,0.996187
2011-09-26T14:34:00.484094,10980,-0.208920,0.180632,0.233281,0.064137,0.043273,0.995976
2011-09-26T14:34:00.494094,10990,-0.196888,0.159199,0.225557,0.064648,0.043025,0.995841
2011-09-26T14:34:00.504094,11000,-0.184857,0.137765,0.217833,0.065159,0.042778,0.995706
2011-09-26T14:34:00.514094,11010,-0.172825,0.116332,0.210109,0.065670,0.042530,0.995572
2011-09-26T14:34:00.524094,11020,-0.160794,0.094898,0.202385,0.066181,0.042282,0.995437
2011-09-26T14:34:00.534094,11030,-0.148762,0.073465,0.194661,0.066692,0.042034,0.995302
2011-09-26T14:34:00.544094,11040,-0.136730,0.052031,0.186937,0.067204,0.041787,0.995168
2011-09-26T14:34:00.554094,11050,-0.124699,0.030598,0.179213,0.067715,0.041539,0.995033
2011-09-26T14:34:00.564094,11060,-0.112667,0.009164,0.171489,0.068226,0.041291,0.994898
2011-09-26T14:34:00.574094,11070,-0.100636,-0.012269,0.163765,0.068737,0.041043,0.994764
2011-09-26T14:34:00.584094,11080,-0.099156,-0.004388,0.160329,0.068673,0.040125,0.994545
2011-09-26T14:34:00.594094,11090,-0.098207,0.004968,0.157109,0.068579,0.039172,0.994323
2011-09-26T14:34:00.604094,11100,-0.097258,0.014325,0.153888,0.068486,0.038220,0.994100
2011-09-26T14:34:00.614094,11110,-0.096309,0.023681,0.150668,0.068392,0.037268,0.993877
2011-09-26T14:34:00.624094,11120,-0.095359,0.033037,0.147448,0.068299,0.036315,0.993655
2011-09-26T14:34:00.634094,11130,-0.094410,0.042393,0.144228,0.068206,0.035363,0.993432
2011-09-26T14:34:00.644094,11140,-0.093461,0.051749,0.141007,0.068112,0.034410,0.993210
2011-09-26T14:34:00.654094,11150,-0.092512,0.061106,0.137787,0.068019,0.033458,0.992987
2011-09-26T14:34:00.664094,11160,-0.091563,0.070462,0.134567,0.067926,0.032506,0.992764
2011-09-26T14:34:00.674094,11170,-0.090614,0.079818,0.131346,0.067832,0.031553,0.992542
2011-09-26T14:34:00.684094,11180,-0.089665,0.089174,0.128126,0.067739,0.030601,0.992319
2011-09-26T14:34:00.694094,11190,-0.021633,0.108553,0.119109,0.067472,0.030344,0.993464
2011-09-26T14:34:00.704094,11200,0.050251,0.128506,0.109759,0.067195,0.030126,0.994688
2011-09-26T14:34:00.714094,11210,0.122135,0.148460,0.100410,0.066919,0.029909,0.995912
2011-09-26T14:34:00.724094,11220,0.194019,0.168414,0.091060,0.066642,0.029691,0.997136
2011-09-26T14:34:00.734094,11230,0.265903,0.188367,0.081710,0.066365,0.029474,0.998360
2011-09-26T14:34:00.744094,11240,0.337787,0.208321,0.072361,0.066089,0.029256,0.999584
2011-09-26T14:34:00.754094,11250,0.409671,0.228275,0.063011,0.065812,0.029039,1.000808
2011-09-26T14:34:00.764094,11260,0.481555,0.248229,0.053662,0.065536,0.028821,1.002032
2011-09-26T14:34:00.774094,11270,0.553439,0.268182,0.044312,0.065259,0.028604,1.003256
2011-09-26T14:34:00.784094,11280,0.625322,0.288136,0.034962,0.064982,0.028387,1.004480
2011-09-26T14:34:00.794094,11290,0.605112,0.313076,0.033640,0.063901,0.030297,1.004830
2011-09-26T14:34:00.804094,11300,0.579695,0.338298,0.032772,0.062774,0.032328,1.005130
2011-09-26T14:34:00.814094,11310,0.554278,0.363520,0.031904,0.061647,0.034358,1.005430
2011-09-26T14:34:00.824094,11320,0.528861,0.388742,0.031035,0.060520,0.036389,1.005731
2011-09-26T14:34:00.834094,11330,0.503443,0.413964,0.030167,0.059393,0.038419,1.006031
2011-09-26T14:34:00.844094,11340,0.478026,0.439185,0.029299,0.058267,0.040450,1.006332
2011-09-26T14:34:00.854094,11350,0.452609,0.464407,0.028431,0.057140,0.042481,1.006632
2011-09-26T14:34:00.864094,11360,0.427191,0.489629,0.027563,0.056013,0.044511,1.006933
2011-09-26T14:34:00.874094,11370,0.401774,0.514851,0.026694,0.054886,0.046542,1.007233
2011-09-26T14:34:00.884094,11380,0.376357,0.540073,0.025826,0.053759,0.048572,1.007533
2011-09-26T14:34:00.894094,11390,0.411905,0.492976,0.021076,0.052957,0.047175,1.004815
2011-09-26T14:34:00.904094,11400,0.450689,0.442042,0.016121,0.052172,0.045596,1.001937
2011-09-26T14:34:00.914094,11410,0.489473,0.391108,0.011165,0.051387,0.044017,0.999059
2011-09-26T14:34:00.924094,11420,0.528256,0.340173,0.006209,0.050603,0.042438,0.996180
2011-09-26T14:34:00.934094,11430,0.567040,0.289239,0.001253,0.049818,0.040859,0.993302
2011-09-26T14:34:00.944094,11440,0.605824,0.238305,-0.003702,0.049033,0.039280,0.990424
2011-09-26T14:34:00.954094,11450,0.644607,0.187371,-0.008658,0.048248,0.037701,0.987545
2011-09-26T14:34:00.964094,11460,0.683391,0.136437,-0.013614,0.047463,0.036121,0.984667
2011-09-26T14:34:00.974094,11470,0.722175,0.085502,-0.018570,0.046678,0.034542,0.981789
2011-09-26T14:34:00.984094,11480,0.760958,0.034568,-0.023526,0.045894,0.032963,0.978910
2011-09-26T14:34:00.994094,11490,0.799742,-0.016366,-0.028481,0.045109,0.031384,0.976032
2011-09-26T14:34:01.004094,11500,0.774612,-0.036893,-0.020950,0.045342,0.033600,0.978252
2011-09-26T14:34:01.014094,11510,0.746075,-0.055799,-0.012754,0.045628,0.036018,0.980744
2011-09-26T14:34:01.024094,11520,0.717538,-0.074705,-0.004557,0.045915,0.038437,0.983235
2011-09-26T14:34:01.034094,11530,0.689001,-0.093611,0.003640,0.046202,0.040855,0.985727
2011-09-26T14:34:01.044094,11540,0.660464,-0.112516,0.011836,0.046489,0.043273,0.988219
2011-09-26T14:34:01.054094,11550,0.631927,-0.131422,0.020033,0.046776,0.045692,0.990710
2011-09-26T14:34:01.064094,11560,0.603390,-0.150328,0.028230,0.047063,0.048110,0.993202
2011-09-26T14:34:01.074094,11570,0.574853,-0.169234,0.036426,0.047350,0.050528,0.995694
2011-09-26T14:34:01.084094,11580,0.546316,-0.188140,0.044623,0.047637,0.052946,0.998186
2011-09-26T14:34:01.094094,11590,0.517779,-0.207046,0.052820,0.047924,0.055365,1.000677
2011-09-26T14:34:01.104094,11600,0.488727,-0.134623,0.042386,0.046434,0.054579,1.001986
2011-09-26T14:34:01.114094,11610,0.459650,-0.057756,0.031045,0.044859,0.053637,1.003238
2011-09-26T14:34:01.124094,11620,0.430574,0.019112,0.019705,0.043283,0.052696,1.004489
2011-09-26T14:34:01.134094,11630,0.401497,0.095979,0.008364,0.041707,0.051754,1.005740
2011-09-26T14:34:01.144094,11640,0.372420,0.172847,-0.002977,0.040132,0.050812,1.006992
2011-09-26T14:34:01.154094,11650,0.343344,0.249714,-0.014317,0.038556,0.049871,1.008243
2011-09-26T14:34:01.164094,11660,0.314267,0.326581,-0.025658,0.036980,0.048929,1.009495
2011-09-26T14:34:01.174094,11670,0.285190,0.403449,-0.036999,0.035405,0.047987,1.010746
2011-09-26T14:34:01.184094,11680,0.256114,0.480316,-0.048339,0.033829,0.047046,1.011998
2011-09-26T14:34:01.194094,11690,0.227037,0.557184,-0.059680,0.032253,0.046104,1.013249
2011-09-26T14:34:01.204094,11700,0.197960,0.634051,-0.071020,0.030678,0.045162,1.014500
2011-09-26T14:34:01.214094,11710,0.212155,0.664793,-0.063807,0.029087,0.045259,1.012803
2011-09-26T14:34:01.224094,11720,0.228585,0.693152,-0.055636,0.027496,0.045409,1.010953
2011-09-26T14:34:01.234094,11730,0.245015,0.721512,-0.047464,0.025905,0.045560,1.009104
2011-09-26T14:34:01.244094,11740,0.261444,0.749872,-0.039293,0.024314,0.045710,1.007254
2011-09-26T14:34:01.254094,11750,0.277874,0.778231,-0.031122,0.022723,0.045860,1.005405
2011-09-26T14:34:01.264094,11760,0.294303,0.806591,-0.022950,0.021132,0.046010,1.003555
2011-09-26T14:34:01.274094,11770,0.310733,0.834950,-0.014779,0.019541,0.046161,1.001705
2011-09-26T14:34:01.284094,11780,0.327163,0.863310,-0.006607,0.017950,0.046311,0.999856
2011-09-26T14:34:01.294094,11790,0.343592,0.891670,0.001564,0.016359,0.046461,0.998006
2011-09-26T14:34:01.304094,11800,0.360022,0.920029,0.009735,0.014768,0.046611,0.996156
2011-09-26T14:34:01.314094,11810,0.295078,0.838869,0.014971,0.015015,0.046212,0.994747
2011-09-26T14:34:01.324094,11820,0.225924,0.752043,0.020054,0.015357,0.045785,0.993359
2011-09-26T14:34:01.334094,11830,0.156770,0.665216,0.025138,0.015700,0.045358,0.991972
2011-09-26T14:34:01.344094,11840,0.087616,0.578390,0.030221,0.016042,0.044930,0.990585
2011-09-26T14:34:01.354094,11850,0.018462,0.491564,0.035305,0.016385,0.044503,0.989198
2011-09-26T14:34:01.364094,11860,-0.050692,0.404737,0.040388,0.016728,0.044076,0.987811
2011-09-26T14:34:01.374094,11870,-0.119846,0.317911,0.045472,0.017070,0.043648,0.986424
2011-09-26T14:34:01.384094,11880,-0.189000,0.231084,0.050555,0.017413,0.043221,0.985037
2011-09-26T14:34:01.394094,11890,-0.258154,0.144258,0.055639,0.017755,0.042794,0.983649
2011-09-26T14:34:01.404094,11900,-0.327308,0.057431,0.060722,0.018098,0.042366,0.982262
2011-09-26T14:34:01.414094,11910,-0.339466,0.049987,0.052641,0.018381,0.042234,0.983699
2011-09-26T14:34:01.424094,11920,-0.348101,0.047449,0.043745,0.018661,0.042121,0.985310
2011-09-26T14:34:01.434094,11930,-0.356737,0.044911,0.034850,0.018941,0.042007,0.986922
2011-09-26T14:34:01.444094,11940,-0.365372,0.042373,0.025955,0.019221,0.041894,0.988533
2011-09-26T14:34:01.454094,11950,-0.374007,0.039835,0.017059,0.019501,0.041780,0.990144
2011-09-26T14:34:01.464094,11960,-0.382643,0.037297,0.008164,0.019781,0.041667,0.991756
2011-09-26T14:34:01.474094,11970,-0.391278,0.034758,-0.000731,0.020061,0.041553,0.993367
2011-09-26T14:34:01.484094,11980,-0.399913,0.032220,-0.009627,0.020341,0.041440,0.994978
2011-09-26T14:34:01.494094,11990,-0.408549,0.029682,-0.018522,0.020621,0.041326,0.996590
2011-09-26T14:34:01.504094,12000,-0.417184,0.027144,-0.027417,0.020901,0.041212,0.998201
2011-09-26T14:34:01.514094,12010,-0.425819,0.024606,-0.036313,0.021181,0.041099,0.999812
2011-09-26T14:34:01.524094,12020,-0.417882,0.075960,-0.026812,0.020470,0.040614,0.999748
2011-09-26T14:34:01.534094,12030,-0.408981,0.130445,-0.016243,0.019701,0.040108,0.999587
2011-09-26T14:34:01.544094,12040,-0.400081,0.184930,-0.005674,0.018932,0.039602,0.999426
2011-09-26T14:34:01.554094,12050,-0.391180,0.239416,0.004895,0.018163,0.039096,0.999264
2011-09-26T14:34:01.564094,12060,-0.382280,0.293901,0.015464,0.017394,0.038589,0.999103
2011-09-26T14:34:01.574094,12070,-0.373379,0.348386,0.026033,0.016625,0.038083,0.998942
2011-09-26T14:34:01.584094,12080,-0.364479,0.402871,0.036602,0.015856,0.037577,0.998780
2011-09-26T14:34:01.594094,12090,-0.355578,0.457357,0.047171,0.015087,0.037071,0.998619
2011-09-26T14:34:01.604094,12100,-0.346678,0.511842,0.057740,0.014318,0.036565,0.998458
2011-09-26T14:34:01.614094,12110,-0.337777,0.566327,0.068309,0.013549,0.036058,0.998296
2011-09-26T14:34:01.624094,12120,-0.338680,0.547415,0.051026,0.012750,0.036990,0.997712
2011-09-26T14:34:01.634094,12130,-0.340301,0.523132,0.031704,0.011948,0.038026,0.997097
2011-09-26T14:34:01.644094,12140,-0.341922,0.498849,0.012382,0.011146,0.039062,0.996482
2011-09-26T14:34:01.654094,12150,-0.343543,0.474565,-0.006940,0.010344,0.040099,0.995866
2011-09-26T14:34:01.664094,12160,-0.345164,0.450282,-0.026262,0.009542,0.041135,0.995251
2011-09-26T14:34:01.674094,12170,-0.346784,0.425999,-0.045584,0.008740,0.042171,0.994636
2011-09-26T14:34:01.684094,12180,-0.348405,0.401716,-0.064906,0.007938,0.043208,0.994021
2011-09-26T14:34:01.694094,12190,-0.350026,0.377433,-0.084228,0.007136,0.044244,0.993406
2011-09-26T14:34:01.704094,12200,-0.351647,0.353149,-0.103550,0.006334,0.045281,0.992790
2011-09-26T14:34:01.714094,12210,-0.353268,0.328866,-0.122872,0.005532,0.046317,0.992175
2011-09-26T14:34:01.724094,12220,-0.340241,0.306885,-0.118057,0.004110,0.045438,0.992463
2011-09-26T14:34:01.734094,12230,-0.326384,0.285035,-0.111872,0.002653,0.044450,0.992803
2011-09-26T14:34:01.744094,12240,-0.312526,0.263185,-0.105687,0.001196,0.043463,0.993142
2011-09-26T14:34:01.754094,12250,-0.298669,0.241334,-0.099502,-0.000261,0.042475,0.993482
2011-09-26T14:34:01.764094,12260,-0.284811,0.219484,-0.093317,-0.001719,0.041487,0.993821
2011-09-26T14:34:01.774094,12270,-0.270954,0.197634,-0.087132,-0.003176,0.040500,0.994161
2011-09-26T14:34:01.784094,12280,-0.257096,0.175784,-0.080946,-0.004633,0.039512,0.994500
2011-09-26T14:34:01.794094,12290,-0.243238,0.153933,-0.074761,-0.006090,0.038524,0.994840
2011-09-26T14:34:01.804094,12300,-0.229381,0.132083,-0.068576,-0.007547,0.037537,0.995179
2011-09-26T14:34:01.814094,12310,-0.215523,0.110233,-0.062391,-0.009005,0.036549,0.995519
2011-09-26T14:34:01.824094,12320,-0.201666,0.088383,-0.056206,-0.010462,0.035561,0.995858
2011-09-26T14:34:01.834094,12330,-0.190353,0.082013,-0.061358,-0.011841,0.036062,0.996004
2011-09-26T14:34:01.844094,12340,-0.179191,0.076556,-0.067178,-0.013215,0.036650,0.996139
2011-09-26T14:34:01.854094,12350,-0.168028,0.071100,-0.072999,-0.014590,0.037238,0.996274
2011-09-26T14:34:01.864094,12360,-0.156866,0.065643,-0.078820,-0.015964,0.037827,0.996409
2011-09-26T14:34:01.874094,12370,-0.145703,0.060187,-0.084640,-0.017339,0.038415,0.996544
2011-09-26T14:34:01.884094,12380,-0.134540,0.054730,-0.090461,-0.018713,0.039003,0.996679
2011-09-26T14:34:01.894094,12390,-0.123378,0.049274,-0.096281,-0.020088,0.039592,0.996814
2011-09-26T14:34:01.904094,12400,-0.112215,0.043817,-0.102102,-0.021462,0.040180,0.996949
2011-09-26T14:34:01.914094,12410,-0.101053,0.038360,-0.107923,-0.022837,0.040768,0.997084
2011-09-26T14:34:01.924094,12420,-0.089890,0.032904,-0.113743,-0.024211,0.041356,0.997219
2011-09-26T14:34:01.934094,12430,-0.138472,0.005356,-0.114695,-0.025095,0.041363,0.996739
2011-09-26T14:34:01.944094,12440,-0.190538,-0.023480,-0.115363,-0.025951,0.041335,0.996223
2011-09-26T14:34:01.954094,12450,-0.242604,-0.052316,-0.116031,-0.026806,0.041307,0.995707
2011-09-26T14:34:01.964094,12460,-0.294669,-0.081152,-0.116699,-0.027661,0.041279,0.995191
2011-09-26T14:34:01.974094,12470,-0.346735,-0.109988,-0.117368,-0.028516,0.041251,0.994675
2011-09-26T14:34:01.984094,12480,-0.398801,-0.138824,-0.118036,-0.029372,0.041224,0.994158
2011-09-26T14:34:01.994094,12490,-0.450867,-0.167660,-0.118704,-0.030227,0.041196,0.993642
2011-09-26T14:34:02.004094,12500,-0.502932,-0.196495,-0.119372,-0.031082,0.041168,0.993126
2011-09-26T14:34:02.014094,12510,-0.554998,-0.225331,-0.120040,-0.031938,0.041140,0.992610
2011-09-26T14:34:02.024094,12520,-0.607064,-0.254167,-0.120708,-0.032793,0.041112,0.992094
2011-09-26T14:34:02.034094,12530,-0.567169,-0.243047,-0.131049,-0.032556,0.040840,0.994286
2011-09-26T14:34:02.044094,12540,-0.521592,-0.229457,-0.141987,-0.032252,0.040553,0.996646
2011-09-26T14:34:02.054094,12550,-0.476014,-0.215867,-0.152926,-0.031947,0.040265,0.999006
2011-09-26T14:34:02.064094,12560,-0.430436,-0.202278,-0.163865,-0.031643,0.039978,1.001366
2011-09-26T14:34:02.074094,12570,-0.384859,-0.188688,-0.174803,-0.031338,0.039691,1.003726
2011-09-26T14:34:02.084094,12580,-0.339281,-0.175098,-0.185742,-0.031034,0.039403,1.006086
2011-09-26T14:34:02.094094,12590,-0.293703,-0.161508,-0.196681,-0.030729,0.039116,1.008446
2011-09-26T14:34:02.104094,12600,-0.248126,-0.147918,-0.207620,-0.030425,0.038829,1.010807
2011-09-26T14:34:02.114094,12610,-0.202548,-0.134329,-0.218558,-0.030120,0.038541,1.013167
2011-09-26T14:34:02.124094,12620,-0.156970,-0.120739,-0.229497,-0.029816,0.038254,1.015527
2011-09-26T14:34:02.134094,12630,-0.111392,-0.107149,-0.240436,-0.029511,0.037966,1.017887
2011-09-26T14:34:02.144094,12640,-0.109077,-0.031066,-0.251579,-0.029659,0.038253,1.016222
2011-09-26T14:34:02.154094,12650,-0.110733,0.050754,-0.262741,-0.029848,0.038592,1.014187
2011-09-26T14:34:02.164094,12660,-0.112389,0.132574,-0.273903,-0.030038,0.038931,1.012152
2011-09-26T14:34:02.174094,12670,-0.114044,0.214394,-0.285065,-0.030227,0.039270,1.010118
2011-09-26T14:34:02.184094,12680,-0.115700,0.296214,-0.296227,-0.030416,0.039609,1.008083
2011-09-26T14:34:02.194094,12690,-0.117356,0.378034,-0.307389,-0.030605,0.039949,1.006049
2011-09-26T14:34:02.204094,12700,-0.119012,0.459854,-0.318551,-0.030794,0.040288,1.004014
2011-09-26T14:34:02.214094,12710,-0.120668,0.541674,-0.329713,-0.030984,0.040627,1.001980
2011-09-26T14:34:02.224094,12720,-0.122324,0.623494,-0.340875,-0.031173,0.040966,0.999945
2011-09-26T14:34:02.234094,12730,-0.123980,0.705314,-0.352037,-0.031362,0.041305,0.997911
2011-09-26T14:34:02.244094,12740,-0.136507,0.695876,-0.356539,-0.032177,0.038246,0.995043
2011-09-26T14:34:02.254094,12750,-0.149711,0.680769,-0.360627,-0.033031,0.034975,0.992123
2011-09-26T14:34:02.264094,12760,-0.162914,0.665661,-0.364715,-0.033884,0.031704,0.989204
2011-09-26T14:34:02.274094,12770,-0.176117,0.650554,-0.368803,-0.034738,0.028434,0.986284
2011-09-26T14:34:02.284094,12780,-0.189320,0.635446,-0.372891,-0.035592,0.025163,0.983365
2011-09-26T14:34:02.294094,12790,-0.202524,0.620339,-0.376979,-0.036446,0.021892,0.980445
2011-09-26T14:34:02.304094,12800,-0.215727,0.605231,-0.381066,-0.037299,0.018622,0.977526
2011-09-26T14:34:02.314094,12810,-0.228930,0.590124,-0.385154,-0.038153,0.015351,0.974606
2011-09-26T14:34:02.324094,12820,-0.242133,0.575016,-0.389242,-0.039007,0.012080,0.971687
2011-09-26T14:34:02.334094,12830,-0.255337,0.559909,-0.393330,-0.039860,0.008810,0.968767
2011-09-26T14:34:02.344094,12840,-0.221330,0.511344,-0.384794,-0.039151,0.010173,0.969678
2011-09-26T14:34:02.354094,12850,-0.183959,0.460395,-0.375359,-0.038331,0.011867,0.970862
2011-09-26T14:34:02.364094,12860,-0.146589,0.409447,-0.365923,-0.037511,0.013561,0.972045
2011-09-26T14:34:02.374094,12870,-0.109219,0.358498,-0.356488,-0.036690,0.015255,0.973229
2011-09-26T14:34:02.384094,12880,-0.071848,0.307550,-0.347052,-0.035870,0.016948,0.974413
2011-09-26T14:34:02.394094,12890,-0.034478,0.256601,-0.337617,-0.035049,0.018642,0.975596
2011-09-26T14:34:02.404094,12900,0.002892,0.205653,-0.328181,-0.034229,0.020336,0.976780
2011-09-26T14:34:02.414094,12910,0.040263,0.154704,-0.318746,-0.033409,0.022030,0.977964
2011-09-26T14:34:02.424094,12920,0.077633,0.103755,-0.309310,-0.032588,0.023723,0.979147
2011-09-26T14:34:02.434094,12930,0.115003,0.052807,-0.299875,-0.031768,0.025417,0.980331
2011-09-26T14:34:02.444094,12940,0.152374,0.001858,-0.290439,-0.030948,0.027111,0.981515
2011-09-26T14:34:02.454094,12950,0.149993,0.029640,-0.282774,-0.030877,0.027596,0.985864
2011-09-26T14:34:02.464094,12960,0.145258,0.062084,-0.275215,-0.030851,0.028010,0.990402
2011-09-26T14:34:02.474094,12970,0.140523,0.094528,-0.267655,-0.030825,0.028423,0.994939
2011-09-26T14:34:02.484094,12980,0.135788,0.126973,-0.260095,-0.030799,0.028837,0.999476
2011-09-26T14:34:02.494094,12990,0.131052,0.159417,-0.252536,-0.030773,0.029251,1.004013
2011-09-26T14:34:02.504094,13000,0.126317,0.191861,-0.244976,-0.030747,0.029665,1.008550
2011-09-26T14:34:02.514094,13010,0.121582,0.224305,-0.237416,-0.030721,0.030078,1.013087
2011-09-26T14:34:02.524094,13020,0.116847,0.256749,-0.229856,-0.030695,0.030492,1.017624
2011-09-26T14:34:02.534094,13030,0.112112,0.289193,-0.222297,-0.030669,0.030906,1.022162
2011-09-26T14:34:02.544094,13040,0.107377,0.321637,-0.214737,-0.030643,0.031319,1.026699
2011-09-26T14:34:02.554094,13050,0.112803,0.344738,-0.222465,-0.031429,0.031999,1.023220
2011-09-26T14:34:02.564094,13060,0.118859,0.367260,-0.231141,-0.032265,0.032696,1.019244
2011-09-26T14:34:02.574094,13070,0.124915,0.389781,-0.239817,-0.033101,0.033392,1.015267
2011-09-26T14:34:02.584094,13080,0.130971,0.412302,-0.248493,-0.033938,0.034089,1.011291
2011-09-26T14:34:02.594094,13090,0.137028,0.434823,-0.257169,-0.034774,0.034785,1.007315
2011-09-26T14:34:02.604094,13100,0.143084,0.457345,-0.265845,-0.035610,0.035482,1.003339
2011-09-26T14:34:02.614094,13110,0.149140,0.479866,-0.274521,-0.036447,0.036178,0.999363
2011-09-26T14:34:02.624094,13120,0.155196,0.502387,-0.283197,-0.037283,0.036875,0.995387
2011-09-26T14:34:02.634094,13130,0.161252,0.524909,-0.291872,-0.038119,0.037571,0.991410
2011-09-26T14:34:02.644094,13140,0.167308,0.547430,-0.300548,-0.038955,0.038268,0.987434
2011-09-26T14:34:02.654094,13150,0.177622,0.472659,-0.299710,-0.040236,0.038069,0.988818
2011-09-26T14:34:02.664094,13160,0.188235,0.391046,-0.298203,-0.041548,0.037808,0.990578
2011-09-26T14:34:02.674094,13170,0.198848,0.309433,-0.296695,-0.042860,0.037546,0.992338
2011-09-26T14:34:02.684094,13180,0.209461,0.227820,-0.295188,-0.044172,0.037285,0.994098
2011-09-26T14:34:02.694094,13190,0.220074,0.146207,-0.293681,-0.045484,0.037024,0.995859
2011-09-26T14:34:02.704094,13200,0.230687,0.064595,-0.292173,-0.046796,0.036762,0.997619
2011-09-26T14:34:02.714094,13210,0.241300,-0.017018,-0.290666,-0.048108,0.036501,0.999379
2011-09-26T14:34:02.724094,13220,0.251913,-0.098631,-0.289158,-0.049420,0.036239,1.001139
2011-09-26T14:34:02.734094,13230,0.262526,-0.180244,-0.287651,-0.050732,0.035978,1.002900
2011-09-26T14:34:02.744094,13240,0.273140,-0.261857,-0.286144,-0.052044,0.035716,1.004660
2011-09-26T14:34:02.754094,13250,0.283753,-0.343470,-0.284636,-0.053356,0.035455,1.006420
2011-09-26T14:34:02.764094,13260,0.240275,-0.366039,-0.287622,-0.052637,0.035304,1.005424
2011-09-26T14:34:02.774094,13270,0.193307,-0.384799,-0.290897,-0.051787,0.035160,1.004249
2011-09-26T14:34:02.784094,13280,0.146340,-0.403559,-0.294172,-0.050937,0.035017,1.003074
2011-09-26T14:34:02.794094,13290,0.099373,-0.422319,-0.297447,-0.050087,0.034873,1.001900
2011-09-26T14:34:02.804094,13300,0.052406,-0.441080,-0.300722,-0.049237,0.034729,1.000725
2011-09-26T14:34:02.814094,13310,0.005439,-0.459840,-0.303998,-0.048387,0.034585,0.999551
2011-09-26T14:34:02.824094,13320,-0.041529,-0.478600,-0.307273,-0.047537,0.034442,0.998376
2011-09-26T14:34:02.834094,13330,-0.088496,-0.497361,-0.310548,-0.046687,0.034298,0.997202
2011-09-26T14:34:02.844094,13340,-0.135463,-0.516121,-0.313823,-0.045837,0.034154,0.996027
2011-09-26T14:34:02.854094,13350,-0.182430,-0.534881,-0.317098,-0.044987,0.034010,0.994853
2011-09-26T14:34:02.864094,13360,-0.152468,-0.524850,-0.320119,-0.044987,0.033659,0.997164
2011-09-26T14:34:02.874094,13370,-0.117220,-0.512840,-0.323122,-0.045047,0.033294,0.999715
2011-09-26T14:34:02.884094,13380,-0.081971,-0.500831,-0.326126,-0.045106,0.032928,1.002266
2011-09-26T14:34:02.894094,13390,-0.046722,-0.488821,-0.329129,-0.045165,0.032563,1.004818
2011-09-26T14:34:02.904094,13400,-0.011473,-0.476811,-0.332132,-0.045224,0.032197,1.007369
2011-09-26T14:34:02.914094,13410,0.023776,-0.464801,-0.335136,-0.045283,0.031832,1.009920
2011-09-26T14:34:02.924094,13420,0.059025,-0.452791,-0.338139,-0.045343,0.031467,1.012471
2011-09-26T14:34:02.934094,13430,0.094274,-0.440782,-0.341142,-0.045402,0.031101,1.015022
2011-09-26T14:34:02.944094,13440,0.129522,-0.428772,-0.344146,-0.045461,0.030736,1.017573
2011-09-26T14:34:02.954094,13450,0.164771,-0.416762,-0.347149,-0.045520,0.030370,1.020124
2011-09-26T14:34:02.964094,13460,0.125722,-0.386394,-0.346317,-0.045123,0.030164,1.020072
2011-09-26T14:34:02.974094,13470,0.081989,-0.354869,-0.345242,-0.044698,0.029968,1.019855
2011-09-26T14:34:02.984094,13480,0.038257,-0.323344,-0.344168,-0.044273,0.029772,1.019639
2011-09-26T14:34:02.994094,13490,-0.005476,-0.291819,-0.343094,-0.043847,0.029576,1.019422
2011-09-26T14:34:03.004094,13500,-0.049209,-0.260294,-0.342020,-0.043422,0.029379,1.019205
2011-09-26T14:34:03.014094,13510,-0.092942,-0.228769,-0.340946,-0.042996,0.029183,1.018989
2011-09-26T14:34:03.024094,13520,-0.136675,-0.197244,-0.339871,-0.042571,0.028987,1.018772
2011-09-26T14:34:03.034094,13530,-0.180408,-0.165719,-0.338797,-0.042145,0.028791,1.018555
2011-09-26T14:34:03.044094,13540,-0.224140,-0.134194,-0.337723,-0.041720,0.028595,1.018339
2011-09-26T14:34:03.054094,13550,-0.267873,-0.102669,-0.336649,-0.041295,0.028398,1.018122
2011-09-26T14:34:03.064094,13560,-0.311606,-0.071144,-0.335575,-0.040869,0.028202,1.017905
2011-09-26T14:34:03.074094,13570,-0.292576,-0.028341,-0.334451,-0.040998,0.029211,1.016585
2011-09-26T14:34:03.084094,13580,-0.269497,0.015189,-0.333325,-0.041163,0.030298,1.015194
2011-09-26T14:34:03.094094,13590,-0.246418,0.058719,-0.332199,-0.041327,0.031385,1.013802
2011-09-26T14:34:03.104094,13600,-0.223339,0.102249,-0.331072,-0.041492,0.032472,1.012411
2011-09-26T14:34:03.114094,13610,-0.200261,0.145779,-0.329946,-0.041656,0.033559,1.011020
