pc_time,ts_ms,gyroX,gyroY,gyroZ,accelX,accelY,accelZ
2011-09-26T14:02:22.484109,0,1.693783,-0.865678,-3.996685,0.020930,-0.026763,0.990339
2011-09-26T14:02:22.494109,10,1.646121,-0.884108,-3.940895,0.021751,-0.027221,0.989830
2011-09-26T14:02:22.504109,20,1.598458,-0.902538,-3.885105,0.022572,-0.027680,0.989322
2011-09-26T14:02:22.514109,30,1.550796,-0.920968,-3.829315,0.023393,-0.028138,0.988814
2011-09-26T14:02:22.524109,40,1.503134,-0.939399,-3.773525,0.024215,-0.028597,0.988305
2011-09-26T14:02:22.534109,50,1.455471,-0.957829,-3.717734,0.025036,-0.029055,0.987797
2011-09-26T14:02:22.544109,60,1.407809,-0.976259,-3.661944,0.025857,-0.029514,0.987289
2011-09-26T14:02:22.554109,70,1.360147,-0.994689,-3.606154,0.026678,-0.029972,0.986780
2011-09-26T14:02:22.564109,80,1.312484,-1.013119,-3.550364,0.027499,-0.030431,0.986272
2011-09-26T14:02:22.574109,90,1.264822,-1.031549,-3.494574,0.028320,-0.030889,0.985764
2011-09-26T14:02:22.584109,100,1.217160,-1.049980,-3.438784,0.029141,-0.031348,0.985255
2011-09-26T14:02:22.594109,110,1.218243,-1.036130,-3.361499,0.029398,-0.031613,0.985234
2011-09-26T14:02:22.604109,120,1.219528,-1.022146,-3.284126,0.029653,-0.031878,0.985215
2011-09-26T14:02:22.614109,130,1.220814,-1.008163,-3.206752,0.029908,-0.032143,0.985196
2011-09-26T14:02:22.624109,140,1.222099,-0.994179,-3.129379,0.030163,-0.032408,0.985177
2011-09-26T14:02:22.634109,150,1.223384,-0.980195,-3.052006,0.030418,-0.032673,0.985158
2011-09-26T14:02:22.644109,160,1.224670,-0.966212,-2.974632,0.030673,-0.032938,0.985139
2011-09-26T14:02:22.654109,170,1.225955,-0.952228,-2.897259,0.030928,-0.033203,0.985120
2011-09-26T14:02:22.664109,180,1.227240,-0.938244,-2.819885,0.031182,-0.033467,0.985101
2011-09-26T14:02:22.674109,190,1.228525,-0.924261,-2.742512,0.031437,-0.033732,0.985082
2011-09-26T14:02:22.684109,200,1.229940,-0.910066,-2.665055,0.031693,-0.033996,0.985071
2011-09-26T14:02:22.694109,210,1.285137,-0.807782,-2.552908,0.032338,-0.033899,0.988556
2011-09-26T14:02:22.704109,220,1.340334,-0.705498,-2.440760,0.032982,-0.033802,0.992041
2011-09-26T14:02:22.714109,230,1.395531,-0.603214,-2.328612,0.033627,-0.033705,0.995526
2011-09-26T14:02:22.724109,240,1.450728,-0.500930,-2.216465,0.034271,-0.033608,0.999010
2011-09-26T14:02:22.734109,250,1.505925,-0.398646,-2.104317,0.034916,-0.033511,1.002495
2011-09-26T14:02:22.744109,260,1.561122,-0.296362,-1.992170,0.035560,-0.033414,1.005980
2011-09-26T14:02:22.754109,270,1.616319,-0.194078,-1.880022,0.036205,-0.033317,1.009465
2011-09-26T14:02:22.764109,280,1.671516,-0.091794,-1.767874,0.036850,-0.033220,1.012949
2011-09-26T14:02:22.774109,290,1.726712,0.010490,-1.655727,0.037494,-0.033123,1.016434
2011-09-26T14:02:22.784109,300,1.781909,0.112774,-1.543579,0.038139,-0.033026,1.019919
2011-09-26T14:02:22.794109,310,1.837106,0.215058,-1.431432,0.038783,-0.032929,1.023404
2011-09-26T14:02:22.804109,320,1.818239,0.345461,-1.349150,0.037564,-0.026338,1.022873
2011-09-26T14:02:22.814109,330,1.799288,0.475896,-1.266901,0.036343,-0.019739,1.022338
2011-09-26T14:02:22.824109,340,1.780337,0.606331,-1.184653,0.035122,-0.013140,1.021803
2011-09-26T14:02:22.834109,350,1.761386,0.736765,-1.102405,0.033900,-0.006542,1.021268
2011-09-26T14:02:22.844109,360,1.742435,0.867200,-1.020157,0.032679,0.000057,1.020733
2011-09-26T14:02:22.854109,370,1.723484,0.997634,-0.937908,0.031458,0.006656,1.020198
2011-09-26T14:02:22.864109,380,1.704533,1.128069,-0.855660,0.030236,0.013255,1.019663
2011-09-26T14:02:22.874109,390,1.685582,1.258504,-0.773412,0.029015,0.019854,1.019128
2011-09-26T14:02:22.884109,400,1.666631,1.388938,-0.691164,0.027794,0.026452,1.018593
2011-09-26T14:02:22.894109,410,1.647680,1.519373,-0.608915,0.026572,0.033051,1.018058
2011-09-26T14:02:22.904109,420,1.657683,1.503157,-0.541183,0.026267,0.032462,1.015183
2011-09-26T14:02:22.914109,430,1.667711,1.486819,-0.473463,0.025963,0.031867,1.012306
2011-09-26T14:02:22.924109,440,1.677738,1.470481,-0.405744,0.025659,0.031272,1.009429
2011-09-26T14:02:22.934109,450,1.687765,1.454144,-0.338024,0.025354,0.030676,1.006553
2011-09-26T14:02:22.944109,460,1.697792,1.437806,-0.270304,0.025050,0.030081,1.003676
2011-09-26T14:02:22.954109,470,1.707820,1.421468,-0.202584,0.024745,0.029486,1.000799
2011-09-26T14:02:22.964109,480,1.717847,1.405130,-0.134864,0.024441,0.028891,0.997922
2011-09-26T14:02:22.974109,490,1.727874,1.388793,-0.067144,0.024137,0.028296,0.995046
2011-09-26T14:02:22.984109,500,1.737901,1.372455,0.000576,0.023832,0.027701,0.992169
2011-09-26T14:02:22.994109,510,1.747929,1.356117,0.068296,0.023528,0.027105,0.989292
2011-09-26T14:02:23.004109,520,1.694682,1.271483,0.157035,0.023452,0.027275,0.988265
2011-09-26T14:02:23.014109,530,1.641200,1.186595,0.245853,0.023376,0.027447,0.987246
2011-09-26T14:02:23.024109,540,1.587718,1.101706,0.334670,0.023301,0.027619,0.986226
2011-09-26T14:02:23.034109,550,1.534236,1.016818,0.423488,0.023226,0.027791,0.985206
2011-09-26T14:02:23.044109,560,1.480754,0.931929,0.512305,0.023151,0.027963,0.984187
2011-09-26T14:02:23.054109,570,1.427272,0.847041,0.601123,0.023075,0.028135,0.983167
2011-09-26T14:02:23.064109,580,1.373790,0.762152,0.689940,0.023000,0.028307,0.982147
2011-09-26T14:02:23.074109,590,1.320308,0.677264,0.778758,0.022925,0.028479,0.981128
2011-09-26T14:02:23.084109,600,1.266826,0.592375,0.867575,0.022849,0.028651,0.980108
2011-09-26T14:02:23.094109,610,1.213344,0.507487,0.956393,0.022774,0.028824,0.979088
2011-09-26T14:02:23.104109,620,1.241842,0.429783,1.024289,0.022907,0.030211,0.977938
2011-09-26T14:02:23.114109,630,1.272090,0.352233,1.091739,0.023044,0.031624,0.976785
2011-09-26T14:02:23.124109,640,1.302338,0.274683,1.159189,0.023182,0.033037,0.975632
2011-09-26T14:02:23.134109,650,1.332586,0.197133,1.226639,0.023319,0.034450,0.974478
2011-09-26T14:02:23.144109,660,1.362835,0.119583,1.294089,0.023456,0.035863,0.973325
2011-09-26T14:02:23.154109,670,1.393083,0.042033,1.361539,0.023594,0.037276,0.972172
2011-09-26T14:02:23.164109,680,1.423331,-0.035518,1.428989,0.023731,0.038689,0.971019
2011-09-26T14:02:23.174109,690,1.453579,-0.113068,1.496439,0.023869,0.040102,0.969866
2011-09-26T14:02:23.184109,700,1.483827,-0.190618,1.563888,0.024006,0.041515,0.968712
2011-09-26T14:02:23.194109,710,1.514076,-0.268168,1.631338,0.024143,0.042928,0.967559
2011-09-26T14:02:23.204109,720,1.544324,-0.345718,1.698788,0.024281,0.044341,0.966406
2011-09-26T14:02:23.214109,730,1.521343,-0.370038,1.786148,0.024858,0.045592,0.968866
2011-09-26T14:02:23.224109,740,1.498303,-0.394299,1.873530,0.025435,0.046842,0.971331
2011-09-26T14:02:23.234109,750,1.475263,-0.418559,1.960912,0.026012,0.048092,0.973795
2011-09-26T14:02:23.244109,760,1.452224,-0.442820,2.048294,0.026590,0.049342,0.976260
2011-09-26T14:02:23.254109,770,1.429184,-0.467081,2.135676,0.027167,0.050592,0.978724
2011-09-26T14:02:23.264109,780,1.406144,-0.491342,2.223058,0.027745,0.051842,0.981189
2011-09-26T14:02:23.274109,790,1.383105,-0.515603,2.310440,0.028322,0.053092,0.983653
2011-09-26T14:02:23.284109,800,1.360065,-0.539864,2.397822,0.028900,0.054343,0.986118
2011-09-26T14:02:23.294109,810,1.337025,-0.564125,2.485204,0.029477,0.055593,0.988582
2011-09-26T14:02:23.304109,820,1.313986,-0.588385,2.572586,0.030054,0.056843,0.991046
2011-09-26T14:02:23.314109,830,1.348909,-0.527386,2.674758,0.030181,0.058535,0.993087
2011-09-26T14:02:23.324109,840,1.384049,-0.466070,2.776984,0.030306,0.060229,0.995126
2011-09-26T14:02:23.334109,850,1.419188,-0.404753,2.879210,0.030431,0.061923,0.997165
2011-09-26T14:02:23.344109,860,1.454328,-0.343436,2.981436,0.030555,0.063617,0.999204
2011-09-26T14:02:23.354109,870,1.489467,-0.282120,3.083662,0.030680,0.065311,1.001243
2011-09-26T14:02:23.364109,880,1.524606,-0.220803,3.185889,0.030805,0.067005,1.003282
2011-09-26T14:02:23.374109,890,1.559746,-0.159486,3.288115,0.030930,0.068699,1.005321
2011-09-26T14:02:23.384109,900,1.594885,-0.098170,3.390341,0.031055,0.070393,1.007360
2011-09-26T14:02:23.394109,910,1.630025,-0.036853,3.492567,0.031180,0.072087,1.009398
2011-09-26T14:02:23.404109,920,1.665164,0.024464,3.594794,0.031304,0.073781,1.011437
2011-09-26T14:02:23.414109,930,1.600398,0.112644,3.685221,0.031959,0.075276,1.011280
2011-09-26T14:02:23.424109,940,1.534456,0.201141,3.775510,0.032619,0.076768,1.011097
2011-09-26T14:02:23.434109,950,1.468515,0.289637,3.865799,0.033280,0.078260,1.010914
2011-09-26T14:02:23.444109,960,1.402573,0.378134,3.956087,0.033941,0.079752,1.010731
2011-09-26T14:02:23.454109,970,1.336632,0.466630,4.046376,0.034601,0.081244,1.010548
2011-09-26T14:02:23.464109,980,1.270691,0.555127,4.136665,0.035262,0.082736,1.010365
2011-09-26T14:02:23.474109,990,1.204749,0.643623,4.226954,0.035922,0.084229,1.010182
2011-09-26T14:02:23.484109,1000,1.138808,0.732120,4.317243,0.036583,0.085721,1.009999
2011-09-26T14:02:23.494109,1010,1.072866,0.820616,4.407531,0.037243,0.087213,1.009817
2011-09-26T14:02:23.504109,1020,1.006925,0.909113,4.497820,0.037904,0.088705,1.009634
2011-09-26T14:02:23.514109,1030,0.940984,0.997609,4.588109,0.038565,0.090197,1.009451
2011-09-26T14:02:23.524109,1040,0.930425,1.051948,4.673175,0.036880,0.090016,1.009422
2011-09-26T14:02:23.534109,1050,0.920252,1.106049,4.758205,0.035179,0.089822,1.009394
2011-09-26T14:02:23.544109,1060,0.910078,1.160151,4.843234,0.033478,0.089629,1.009367
2011-09-26T14:02:23.554109,1070,0.899905,1.214252,4.928264,0.031777,0.089436,1.009339
2011-09-26T14:02:23.564109,1080,0.889732,1.268353,5.013294,0.030076,0.089242,1.009312
2011-09-26T14:02:23.574109,1090,0.879559,1.322454,5.098323,0.028375,0.089049,1.009284
2011-09-26T14:02:23.584109,1100,0.869385,1.376556,5.183353,0.026674,0.088856,1.009257
2011-09-26T14:02:23.594109,1110,0.859212,1.430657,5.268383,0.024974,0.088663,1.009229
2011-09-26T14:02:23.604109,1120,0.849039,1.484758,5.353412,0.023273,0.088469,1.009202
2011-09-26T14:02:23.614109,1130,0.838865,1.538860,5.438442,0.021572,0.088276,1.009174
2011-09-26T14:02:23.624109,1140,0.811551,1.524992,5.487448,0.021342,0.091849,1.004084
2011-09-26T14:02:23.634109,1150,0.784076,1.510487,5.536116,0.021127,0.095457,0.998947
2011-09-26T14:02:23.644109,1160,0.756601,1.495981,5.584785,0.020911,0.099066,0.993810
2011-09-26T14:02:23.654109,1170,0.729126,1.481475,5.633453,0.020696,0.102674,0.988672
2011-09-26T14:02:23.664109,1180,0.701651,1.466969,5.682121,0.020480,0.106283,0.983535
2011-09-26T14:02:23.674109,1190,0.674176,1.452464,5.730789,0.020264,0.109891,0.978398
2011-09-26T14:02:23.684109,1200,0.646701,1.437958,5.779458,0.020049,0.113499,0.973260
2011-09-26T14:02:23.694109,1210,0.619227,1.423452,5.828126,0.019833,0.117108,0.968123
2011-09-26T14:02:23.704109,1220,0.591752,1.408947,5.876794,0.019618,0.120716,0.962986
2011-09-26T14:02:23.714109,1230,0.564277,1.394441,5.925462,0.019402,0.124324,0.957848
2011-09-26T14:02:23.724109,1240,0.490184,1.352037,5.959318,0.019186,0.124465,0.959514
2011-09-26T14:02:23.734109,1250,0.416021,1.309590,5.993151,0.018970,0.124601,0.961191
2011-09-26T14:02:23.744109,1260,0.341858,1.267143,6.026985,0.018753,0.124737,0.962867
2011-09-26T14:02:23.754109,1270,0.267695,1.224697,6.060818,0.018537,0.124872,0.964543
2011-09-26T14:02:23.764109,1280,0.193532,1.182250,6.094651,0.018321,0.125008,0.966219
2011-09-26T14:02:23.774109,1290,0.119369,1.139804,6.128485,0.018105,0.125144,0.967895
2011-09-26T14:02:23.784109,1300,0.045206,1.097357,6.162318,0.017888,0.125280,0.969571
2011-09-26T14:02:23.794109,1310,-0.028957,1.054910,6.196151,0.017672,0.125415,0.971248
2011-09-26T14:02:23.804109,1320,-0.103120,1.012464,6.229985,0.017456,0.125551,0.972924
2011-09-26T14:02:23.814109,1330,-0.177283,0.970017,6.263818,0.017240,0.125687,0.974600
2011-09-26T14:02:23.824109,1340,-0.251446,0.927570,6.297651,0.017024,0.125822,0.976276
2011-09-26T14:02:23.834109,1350,-0.305491,0.837195,6.299806,0.015610,0.125989,0.976014
2011-09-26T14:02:23.844109,1360,-0.359081,0.745735,6.301245,0.014170,0.126156,0.975707
2011-09-26T14:02:23.854109,1370,-0.412671,0.654275,6.302683,0.012729,0.126323,0.975400
2011-09-26T14:02:23.864109,1380,-0.466260,0.562816,6.304122,0.011288,0.126490,0.975094
2011-09-26T14:02:23.874109,1390,-0.519850,0.471356,6.305560,0.009848,0.126657,0.974787
2011-09-26T14:02:23.884109,1400,-0.573440,0.379896,6.306999,0.008407,0.126825,0.974481
2011-09-26T14:02:23.894109,1410,-0.627029,0.288437,6.308437,0.006967,0.126992,0.974174
2011-09-26T14:02:23.904109,1420,-0.680619,0.196977,6.309875,0.005526,0.127159,0.973868
2011-09-26T14:02:23.914109,1430,-0.734209,0.105517,6.311314,0.004086,0.127326,0.973561
2011-09-26T14:02:23.924109,1440,-0.787799,0.014058,6.312752,0.002645,0.127493,0.973254
2011-09-26T14:02:23.934109,1450,-0.734733,-0.076504,6.288755,0.003373,0.125395,0.976288
2011-09-26T14:02:23.944109,1460,-0.679678,-0.167049,6.264283,0.004142,0.123255,0.979384
2011-09-26T14:02:23.954109,1470,-0.624623,-0.257594,6.239811,0.004910,0.121114,0.982480
2011-09-26T14:02:23.964109,1480,-0.569568,-0.348139,6.215340,0.005679,0.118974,0.985576
2011-09-26T14:02:23.974109,1490,-0.514512,-0.438684,6.190868,0.006448,0.116834,0.988672
2011-09-26T14:02:23.984109,1500,-0.459457,-0.529228,6.166396,0.007216,0.114693,0.991768
2011-09-26T14:02:23.994109,1510,-0.404402,-0.619773,6.141924,0.007985,0.112553,0.994864
2011-09-26T14:02:24.004109,1520,-0.349347,-0.710318,6.117452,0.008753,0.110412,0.997960
2011-09-26T14:02:24.014109,1530,-0.294292,-0.800863,6.092981,0.009522,0.108272,1.001056
2011-09-26T14:02:24.024109,1540,-0.239237,-0.891408,6.068509,0.010290,0.106132,1.004152
2011-09-26T14:02:24.034109,1550,-0.197105,-0.827478,6.037921,0.009966,0.106021,1.003416
2011-09-26T14:02:24.044109,1560,-0.155383,-0.758637,6.007139,0.009608,0.105976,1.002558
2011-09-26T14:02:24.054109,1570,-0.113662,-0.689796,5.976356,0.009249,0.105930,1.001700
2011-09-26T14:02:24.064109,1580,-0.071940,-0.620955,5.945574,0.008890,0.105884,1.000842
2011-09-26T14:02:24.074109,1590,-0.030219,-0.552114,5.914792,0.008531,0.105839,0.999984
2011-09-26T14:02:24.084109,1600,0.011502,-0.483273,5.884010,0.008173,0.105793,0.999126
2011-09-26T14:02:24.094109,1610,0.053224,-0.414432,5.853228,0.007814,0.105747,0.998268
2011-09-26T14:02:24.104109,1620,0.094945,-0.345592,5.822445,0.007455,0.105702,0.997410
2011-09-26T14:02:24.114109,1630,0.136667,-0.276751,5.791663,0.007096,0.105656,0.996552
2011-09-26T14:02:24.124109,1640,0.178388,-0.207910,5.760881,0.006738,0.105610,0.995694
2011-09-26T14:02:24.134109,1650,0.220110,-0.139069,5.730099,0.006379,0.105565,0.994836
2011-09-26T14:02:24.144109,1660,0.238186,-0.167695,5.694629,0.003702,0.107004,0.993504
2011-09-26T14:02:24.154109,1670,0.255972,-0.197517,5.659102,0.000996,0.108462,0.992166
2011-09-26T14:02:24.164109,1680,0.273758,-0.227338,5.623576,-0.001709,0.109920,0.990828
2011-09-26T14:02:24.174109,1690,0.291544,-0.257159,5.588049,-0.004415,0.111377,0.989491
2011-09-26T14:02:24.184109,1700,0.309330,-0.286981,5.552522,-0.007120,0.112835,0.988153
2011-09-26T14:02:24.194109,1710,0.327116,-0.316802,5.516995,-0.009826,0.114293,0.986815
2011-09-26T14:02:24.204109,1720,0.344902,-0.346623,5.481468,-0.012532,0.115751,0.985477
2011-09-26T14:02:24.214109,1730,0.362688,-0.376445,5.445941,-0.015237,0.117208,0.984139
2011-09-26T14:02:24.224109,1740,0.380474,-0.406266,5.410414,-0.017943,0.118666,0.982801
2011-09-26T14:02:24.234109,1750,0.398261,-0.436087,5.374887,-0.020648,0.120124,0.981463
2011-09-26T14:02:24.244109,1760,0.271231,-0.406219,5.353536,-0.020570,0.120276,0.988808
2011-09-26T14:02:24.254109,1770,0.142857,-0.375797,5.332316,-0.020466,0.120415,0.996232
2011-09-26T14:02:24.264109,1780,0.014483,-0.345375,5.311096,-0.020363,0.120555,1.003657
2011-09-26T14:02:24.274109,1790,-0.113892,-0.314953,5.289876,-0.020259,0.120695,1.011082
2011-09-26T14:02:24.284109,1800,-0.242266,-0.284530,5.268656,-0.020155,0.120834,1.018507
2011-09-26T14:02:24.294109,1810,-0.370640,-0.254108,5.247436,-0.020051,0.120974,1.025932
2011-09-26T14:02:24.304109,1820,-0.499015,-0.223686,5.226216,-0.019948,0.121114,1.033356
2011-09-26T14:02:24.314109,1830,-0.627389,-0.193263,5.204996,-0.019844,0.121253,1.040781
2011-09-26T14:02:24.324109,1840,-0.755764,-0.162841,5.183776,-0.019740,0.121393,1.048206
2011-09-26T14:02:24.334109,1850,-0.884138,-0.132419,5.162556,-0.019636,0.121533,1.055631
2011-09-26T14:02:24.344109,1860,-0.889045,-0.130275,5.142140,-0.020207,0.115788,1.047182
2011-09-26T14:02:24.354109,1870,-0.892651,-0.128429,5.121732,-0.020785,0.109981,1.038565
2011-09-26T14:02:24.364109,1880,-0.896257,-0.126582,5.101325,-0.021363,0.104174,1.029948
2011-09-26T14:02:24.374109,1890,-0.899864,-0.124736,5.080917,-0.021941,0.098368,1.021332
2011-09-26T14:02:24.384109,1900,-0.903470,-0.122890,5.060510,-0.022519,0.092561,1.012715
2011-09-26T14:02:24.394109,1910,-0.907076,-0.121044,5.040102,-0.023097,0.086754,1.004099
2011-09-26T14:02:24.404109,1920,-0.910682,-0.119198,5.019695,-0.023675,0.080948,0.995482
2011-09-26T14:02:24.414109,1930,-0.914288,-0.117351,4.999287,-0.024253,0.075141,0.986866
2011-09-26T14:02:24.424109,1940,-0.917895,-0.115505,4.978880,-0.024831,0.069334,0.978249
2011-09-26T14:02:24.434109,1950,-0.921501,-0.113659,4.958472,-0.025409,0.063527,0.969633
2011-09-26T14:02:24.444109,1960,-0.925107,-0.111813,4.938065,-0.025987,0.057721,0.961016
2011-09-26T14:02:24.454109,1970,-0.737626,-0.199785,4.918002,-0.025850,0.055646,0.966564
2011-09-26T14:02:24.464109,1980,-0.548213,-0.288665,4.897943,-0.025706,0.053610,0.972254
2011-09-26T14:02:24.474109,1990,-0.358800,-0.377545,4.877884,-0.025561,0.051573,0.977945
2011-09-26T14:02:24.484109,2000,-0.169387,-0.466425,4.857825,-0.025417,0.049537,0.983636
2011-09-26T14:02:24.494109,2010,0.020026,-0.555305,4.837766,-0.025273,0.047500,0.989326
2011-09-26T14:02:24.504109,2020,0.209439,-0.644185,4.817707,-0.025129,0.045464,0.995017
2011-09-26T14:02:24.514109,2030,0.398852,-0.733066,4.797649,-0.024985,0.043427,1.000708
2011-09-26T14:02:24.524109,2040,0.588265,-0.821946,4.777590,-0.024840,0.041391,1.006398
2011-09-26T14:02:24.534109,2050,0.777678,-0.910826,4.757531,-0.024696,0.039354,1.012089
2011-09-26T14:02:24.544109,2060,0.967091,-0.999706,4.737472,-0.024552,0.037318,1.017780
2011-09-26T14:02:24.554109,2070,0.986497,-0.910932,4.702426,-0.023776,0.045449,1.019108
2011-09-26T14:02:24.564109,2080,1.000499,-0.816510,4.666904,-0.022980,0.053904,1.020297
2011-09-26T14:02:24.574109,2090,1.014500,-0.722088,4.631382,-0.022184,0.062359,1.021486
2011-09-26T14:02:24.584109,2100,1.028502,-0.627666,4.595860,-0.021387,0.070813,1.022675
2011-09-26T14:02:24.594109,2110,1.042503,-0.533244,4.560338,-0.020591,0.079268,1.023864
2011-09-26T14:02:24.604109,2120,1.056505,-0.438822,4.524816,-0.019795,0.087723,1.025053
2011-09-26T14:02:24.614109,2130,1.070506,-0.344400,4.489293,-0.018999,0.096178,1.026242
2011-09-26T14:02:24.624109,2140,1.084508,-0.249978,4.453771,-0.018203,0.104633,1.027431
2011-09-26T14:02:24.634109,2150,1.098509,-0.155556,4.418249,-0.017406,0.113087,1.028620
2011-09-26T14:02:24.644109,2160,1.112511,-0.061134,4.382727,-0.016610,0.121542,1.029809
2011-09-26T14:02:24.654109,2170,0.980739,0.037473,4.300093,-0.018296,0.120401,1.028875
2011-09-26T14:02:24.664109,2180,0.847521,0.136121,4.216992,-0.020007,0.119165,1.027921
2011-09-26T14:02:24.674109,2190,0.714304,0.234770,4.133891,-0.021718,0.117929,1.026966
2011-09-26T14:02:24.684109,2200,0.581087,0.333418,4.050790,-0.023428,0.116693,1.026012
2011-09-26T14:02:24.694109,2210,0.447870,0.432066,3.967689,-0.025139,0.115457,1.025057
2011-09-26T14:02:24.704109,2220,0.314652,0.530714,3.884587,-0.026849,0.114220,1.024103
2011-09-26T14:02:24.714109,2230,0.181435,0.629363,3.801486,-0.028560,0.112984,1.023148
2011-09-26T14:02:24.724109,2240,0.048218,0.728011,3.718385,-0.030271,0.111748,1.022194
2011-09-26T14:02:24.734109,2250,-0.084999,0.826659,3.635284,-0.031981,0.110512,1.021239
2011-09-26T14:02:24.744109,2260,-0.218217,0.925307,3.552183,-0.033692,0.109276,1.020285
2011-09-26T14:02:24.754109,2270,-0.351434,1.023956,3.469082,-0.035402,0.108040,1.019330
2011-09-26T14:02:24.764109,2280,-0.467642,1.021860,3.411917,-0.034758,0.105802,1.018708
2011-09-26T14:02:24.774109,2290,-0.583759,1.019226,3.354891,-0.034102,0.103559,1.018087
2011-09-26T14:02:24.784109,2300,-0.699877,1.016591,3.297865,-0.033445,0.101316,1.017466
2011-09-26T14:02:24.794109,2310,-0.815994,1.013957,3.240839,-0.032788,0.099073,1.016845
2011-09-26T14:02:24.804109,2320,-0.932111,1.011322,3.183813,-0.032132,0.096830,1.016225
2011-09-26T14:02:24.814109,2330,-1.048228,1.008688,3.126787,-0.031475,0.094587,1.015604
2011-09-26T14:02:24.824109,2340,-1.164346,1.006054,3.069761,-0.030818,0.092344,1.014983
2011-09-26T14:02:24.834109,2350,-1.280463,1.003419,3.012735,-0.030162,0.090101,1.014363
2011-09-26T14:02:24.844109,2360,-1.396580,1.000785,2.955709,-0.029505,0.087858,1.013742
2011-09-26T14:02:24.854109,2370,-1.512697,0.998150,2.898683,-0.028848,0.085615,1.013121
2011-09-26T14:02:24.864109,2380,-1.431088,0.987779,2.843004,-0.029108,0.082019,1.008417
2011-09-26T14:02:24.874109,2390,-1.346872,0.977306,2.787343,-0.029381,0.078406,1.003659
2011-09-26T14:02:24.884109,2400,-1.262656,0.966833,2.731682,-0.029653,0.074793,0.998901
2011-09-26T14:02:24.894109,2410,-1.178439,0.956361,2.676021,-0.029925,0.071179,0.994143
2011-09-26T14:02:24.904109,2420,-1.094223,0.945888,2.620360,-0.030198,0.067566,0.989384
2011-09-26T14:02:24.914109,2430,-1.010007,0.935415,2.564698,-0.030470,0.063952,0.984626
2011-09-26T14:02:24.924109,2440,-0.925791,0.924942,2.509037,-0.030742,0.060339,0.979868
2011-09-26T14:02:24.934109,2450,-0.841574,0.914469,2.453376,-0.031014,0.056725,0.975110
2011-09-26T14:02:24.944109,2460,-0.757358,0.903996,2.397715,-0.031287,0.053112,0.970352
2011-09-26T14:02:24.954109,2470,-0.673142,0.893523,2.342054,-0.031559,0.049498,0.965594
2011-09-26T14:02:24.964109,2480,-0.627724,0.858328,2.326724,-0.032143,0.049415,0.966733
2011-09-26T14:02:24.974109,2490,-0.582655,0.822911,2.311758,-0.032730,0.049363,0.967926
2011-09-26T14:02:24.984109,2500,-0.537586,0.787494,2.296791,-0.033317,0.049311,0.969118
2011-09-26T14:02:24.994109,2510,-0.492517,0.752077,2.281824,-0.033904,0.049260,0.970310
2011-09-26T14:02:25.004109,2520,-0.447448,0.716659,2.266857,-0.034491,0.049208,0.971502
2011-09-26T14:02:25.014109,2530,-0.402379,0.681242,2.251890,-0.035078,0.049156,0.972695
2011-09-26T14:02:25.024109,2540,-0.357310,0.645825,2.236923,-0.035664,0.049104,0.973887
2011-09-26T14:02:25.034109,2550,-0.312241,0.610407,2.221957,-0.036251,0.049053,0.975079
2011-09-26T14:02:25.044109,2560,-0.267172,0.574990,2.206990,-0.036838,0.049001,0.976271
2011-09-26T14:02:25.054109,2570,-0.222103,0.539573,2.192023,-0.037425,0.048949,0.977464
2011-09-26T14:02:25.064109,2580,-0.177033,0.504156,2.177056,-0.038012,0.048897,0.978656
2011-09-26T14:02:25.074109,2590,-0.114646,0.529570,2.141233,-0.037271,0.048927,0.979564
2011-09-26T14:02:25.084109,2600,-0.051952,0.556062,2.105040,-0.036506,0.048959,0.980468
2011-09-26T14:02:25.094109,2610,0.010742,0.582554,2.068847,-0.035741,0.048990,0.981372
2011-09-26T14:02:25.104109,2620,0.073437,0.609047,2.032654,-0.034976,0.049022,0.982275
2011-09-26T14:02:25.114109,2630,0.136131,0.635539,1.996461,-0.034211,0.049053,0.983179
2011-09-26T14:02:25.124109,2640,0.198825,0.662031,1.960268,-0.033446,0.049085,0.984083
2011-09-26T14:02:25.134109,2650,0.261520,0.688523,1.924075,-0.032681,0.049117,0.984986
2011-09-26T14:02:25.144109,2660,0.324214,0.715015,1.887882,-0.031916,0.049148,0.985890
2011-09-26T14:02:25.154109,2670,0.386908,0.741507,1.851689,-0.031151,0.049180,0.986794
2011-09-26T14:02:25.164109,2680,0.449602,0.767999,1.815496,-0.030386,0.049211,0.987697
2011-09-26T14:02:25.174109,2690,0.421643,0.825014,1.803337,-0.031016,0.050879,0.989388
2011-09-26T14:02:25.184109,2700,0.392648,0.882378,1.791453,-0.031661,0.052566,0.991088
2011-09-26T14:02:25.194109,2710,0.363652,0.939742,1.779569,-0.032306,0.054253,0.992788
2011-09-26T14:02:25.204109,2720,0.334657,0.997106,1.767685,-0.032952,0.055939,0.994488
2011-09-26T14:02:25.214109,2730,0.305661,1.054470,1.755801,-0.033597,0.057626,0.996188
2011-09-26T14:02:25.224109,2740,0.276666,1.111834,1.743917,-0.034242,0.059313,0.997888
2011-09-26T14:02:25.234109,2750,0.247670,1.169197,1.732033,-0.034887,0.061000,0.999588
2011-09-26T14:02:25.244109,2760,0.218675,1.226561,1.720149,-0.035533,0.062686,1.001288
2011-09-26T14:02:25.254109,2770,0.189680,1.283925,1.708265,-0.036178,0.064373,1.002988
2011-09-26T14:02:25.264109,2780,0.160684,1.341289,1.696381,-0.036823,0.066060,1.004687
2011-09-26T14:02:25.274109,2790,0.155164,1.308195,1.644511,-0.037278,0.066060,1.002622
2011-09-26T14:02:25.284109,2800,0.149914,1.274056,1.592180,-0.037730,0.066041,1.000512
2011-09-26T14:02:25.294109,2810,0.144665,1.239917,1.539848,-0.038182,0.066022,0.998403
2011-09-26T14:02:25.304109,2820,0.139416,1.205778,1.487516,-0.038634,0.066003,0.996294
2011-09-26T14:02:25.314109,2830,0.134167,1.171639,1.435184,-0.039086,0.065984,0.994184
2011-09-26T14:02:25.324109,2840,0.128918,1.137500,1.382853,-0.039538,0.065965,0.992075
2011-09-26T14:02:25.334109,2850,0.123668,1.103361,1.330521,-0.039990,0.065946,0.989966
2011-09-26T14:02:25.344109,2860,0.118419,1.069221,1.278189,-0.040442,0.065927,0.987856
2011-09-26T14:02:25.354109,2870,0.113170,1.035082,1.225858,-0.040894,0.065908,0.985747
2011-09-26T14:02:25.364109,2880,0.107921,1.000943,1.173526,-0.041346,0.065889,0.983638
2011-09-26T14:02:25.374109,2890,0.102672,0.966804,1.121194,-0.041798,0.065870,0.981528
2011-09-26T14:02:25.384109,2900,0.026200,0.901288,1.072551,-0.042484,0.064693,0.981119
2011-09-26T14:02:25.394109,2910,-0.051108,0.835404,1.023951,-0.043172,0.063503,0.980729
2011-09-26T14:02:25.404109,2920,-0.128415,0.769521,0.975352,-0.043861,0.062313,0.980339
2011-09-26T14:02:25.414109,2930,-0.205723,0.703637,0.926752,-0.044550,0.061122,0.979950
2011-09-26T14:02:25.424109,2940,-0.283030,0.637753,0.878152,-0.045238,0.059932,0.979560
2011-09-26T14:02:25.434109,2950,-0.360338,0.571869,0.829553,-0.045927,0.058741,0.979170
2011-09-26T14:02:25.444109,2960,-0.437646,0.505985,0.780953,-0.046615,0.057551,0.978781
2011-09-26T14:02:25.454109,2970,-0.514953,0.440101,0.732353,-0.047304,0.056361,0.978391
2011-09-26T14:02:25.464109,2980,-0.592261,0.374217,0.683754,-0.047992,0.055170,0.978002
2011-09-26T14:02:25.474109,2990,-0.669568,0.308333,0.635154,-0.048681,0.053980,0.977612
2011-09-26T14:02:25.484109,3000,-0.645632,0.189878,0.574279,-0.048861,0.053230,0.976455
2011-09-26T14:02:25.494109,3010,-0.620495,0.070799,0.513258,-0.049034,0.052485,0.975289
2011-09-26T14:02:25.504109,3020,-0.595358,-0.048280,0.452237,-0.049208,0.051740,0.974123
2011-09-26T14:02:25.514109,3030,-0.570221,-0.167359,0.391217,-0.049382,0.050995,0.972957
2011-09-26T14:02:25.524109,3040,-0.545083,-0.286438,0.330196,-0.049555,0.050250,0.971791
2011-09-26T14:02:25.534109,3050,-0.519946,-0.405517,0.269175,-0.049729,0.049505,0.970625
2011-09-26T14:02:25.544109,3060,-0.494809,-0.524596,0.208154,-0.049903,0.048760,0.969459
2011-09-26T14:02:25.554109,3070,-0.469672,-0.643675,0.147134,-0.050076,0.048016,0.968293
2011-09-26T14:02:25.564109,3080,-0.444535,-0.762754,0.086113,-0.050250,0.047271,0.967128
2011-09-26T14:02:25.574109,3090,-0.419398,-0.881833,0.025092,-0.050424,0.046526,0.965962
2011-09-26T14:02:25.584109,3100,-0.417260,-0.914834,-0.033349,-0.049949,0.044375,0.967421
2011-09-26T14:02:25.594109,3110,-0.415774,-0.945390,-0.091718,-0.049455,0.042185,0.968955
2011-09-26T14:02:25.604109,3120,-0.414288,-0.975947,-0.150087,-0.048961,0.039995,0.970489
2011-09-26T14:02:25.614109,3130,-0.412802,-1.006503,-0.208455,-0.048468,0.037804,0.972023
2011-09-26T14:02:25.624109,3140,-0.411317,-1.037060,-0.266824,-0.047974,0.035614,0.973557
2011-09-26T14:02:25.634109,3150,-0.409831,-1.067616,-0.325192,-0.047480,0.033424,0.975091
2011-09-26T14:02:25.644109,3160,-0.408345,-1.098172,-0.383561,-0.046987,0.031234,0.976625
2011-09-26T14:02:25.654109,3170,-0.406860,-1.128729,-0.441930,-0.046493,0.029043,0.978159
2011-09-26T14:02:25.664109,3180,-0.405374,-1.159285,-0.500298,-0.045999,0.026853,0.979693
2011-09-26T14:02:25.674109,3190,-0.403888,-1.189842,-0.558667,-0.045506,0.024663,0.981227
2011-09-26T14:02:25.684109,3200,-0.402403,-1.220398,-0.617035,-0.045012,0.022472,0.982761
2011-09-26T14:02:25.694109,3210,-0.321640,-1.217862,-0.671201,-0.043654,0.022267,0.985767
2011-09-26T14:02:25.704109,3220,-0.239760,-1.214859,-0.725308,-0.042284,0.022090,0.988793
2011-09-26T14:02:25.714109,3230,-0.157879,-1.211856,-0.779414,-0.040914,0.021913,0.991820
2011-09-26T14:02:25.724109,3240,-0.075998,-1.208853,-0.833521,-0.039544,0.021736,0.994846
2011-09-26T14:02:25.734109,3250,0.005883,-1.205850,-0.887627,-0.038174,0.021558,0.997872
2011-09-26T14:02:25.744109,3260,0.087764,-1.202847,-0.941733,-0.036804,0.021381,1.000899
2011-09-26T14:02:25.754109,3270,0.169645,-1.199844,-0.995840,-0.035434,0.021204,1.003925
2011-09-26T14:02:25.764109,3280,0.251526,-1.196841,-1.049946,-0.034064,0.021027,1.006952
2011-09-26T14:02:25.774109,3290,0.333407,-1.193837,-1.104053,-0.032694,0.020850,1.009978
2011-09-26T14:02:25.784109,3300,0.415287,-1.190834,-1.158159,-0.031324,0.020673,1.013005
2011-09-26T14:02:25.794109,3310,0.395700,-1.086704,-1.232792,-0.030698,0.020906,1.014655
2011-09-26T14:02:25.804109,3320,0.374911,-0.981376,-1.307667,-0.030081,0.021144,1.016289
2011-09-26T14:02:25.814109,3330,0.354122,-0.876049,-1.382542,-0.029464,0.021383,1.017923
2011-09-26T14:02:25.824109,3340,0.333334,-0.770722,-1.457417,-0.028846,0.021621,1.019557
2011-09-26T14:02:25.834109,3350,0.312545,-0.665395,-1.532293,-0.028229,0.021859,1.021191
2011-09-26T14:02:25.844109,3360,0.291757,-0.560067,-1.607168,-0.027612,0.022097,1.022824
2011-09-26T14:02:25.854109,3370,0.270968,-0.454740,-1.682043,-0.026994,0.022336,1.024458
2011-09-26T14:02:25.864109,3380,0.250179,-0.349413,-1.756918,-0.026377,0.022574,1.026092
2011-09-26T14:02:25.874109,3390,0.229391,-0.244086,-1.831793,-0.025760,0.022812,1.027726
2011-09-26T14:02:25.884109,3400,0.208602,-0.138758,-1.906669,-0.025143,0.023050,1.029360
2011-09-26T14:02:25.894109,3410,0.261350,-0.013041,-1.953920,-0.027590,0.025434,1.029697
2011-09-26T14:02:25.904109,3420,0.315179,0.112977,-2.000766,-0.030083,0.027849,1.030014
2011-09-26T14:02:25.914109,3430,0.369009,0.238995,-2.047611,-0.032576,0.030263,1.030331
2011-09-26T14:02:25.924109,3440,0.422839,0.365012,-2.094456,-0.035069,0.032678,1.030649
2011-09-26T14:02:25.934109,3450,0.476668,0.491030,-2.141302,-0.037562,0.035093,1.030966
2011-09-26T14:02:25.944109,3460,0.530498,0.617048,-2.188147,-0.040054,0.037508,1.031284
2011-09-26T14:02:25.954109,3470,0.584328,0.743066,-2.234992,-0.042547,0.039923,1.031601
2011-09-26T14:02:25.964109,3480,0.638158,0.869083,-2.281838,-0.045040,0.042338,1.031919
2011-09-26T14:02:25.974109,3490,0.691987,0.995101,-2.328683,-0.047533,0.044753,1.032236
2011-09-26T14:02:25.984109,3500,0.745817,1.121119,-2.375528,-0.050026,0.047167,1.032554
2011-09-26T14:02:25.994109,3510,0.799647,1.247136,-2.422374,-0.052518,0.049582,1.032871
2011-09-26T14:02:26.004109,3520,0.840022,1.144794,-2.396524,-0.052162,0.045949,1.032674
2011-09-26T14:02:26.014109,3530,0.880024,1.036108,-2.368655,-0.051727,0.042147,1.032463
2011-09-26T14:02:26.024109,3540,0.920026,0.927422,-2.340786,-0.051292,0.038346,1.032252
2011-09-26T14:02:26.034109,3550,0.960028,0.818736,-2.312917,-0.050857,0.034545,1.032040
2011-09-26T14:02:26.044109,3560,1.000030,0.710050,-2.285048,-0.050422,0.030743,1.031829
2011-09-26T14:02:26.054109,3570,1.040032,0.601365,-2.257179,-0.049987,0.026942,1.031618
2011-09-26T14:02:26.064109,3580,1.080034,0.492679,-2.229310,-0.049552,0.023140,1.031407
2011-09-26T14:02:26.074109,3590,1.120035,0.383993,-2.201441,-0.049117,0.019339,1.031195
2011-09-26T14:02:26.084109,3600,1.160037,0.275307,-2.173572,-0.048681,0.015538,1.030984
2011-09-26T14:02:26.094109,3610,1.200039,0.166621,-2.145703,-0.048246,0.011736,1.030773
2011-09-26T14:02:26.104109,3620,1.100844,0.178045,-2.127338,-0.047238,0.011408,1.026089
2011-09-26T14:02:26.114109,3630,0.996748,0.193698,-2.109308,-0.046210,0.011201,1.021249
2011-09-26T14:02:26.124109,3640,0.892652,0.209351,-2.091278,-0.045182,0.010995,1.016408
2011-09-26T14:02:26.134109,3650,0.788556,0.225004,-2.073247,-0.044154,0.010789,1.011567
2011-09-26T14:02:26.144109,3660,0.684460,0.240657,-2.055217,-0.043126,0.010582,1.006726
2011-09-26T14:02:26.154109,3670,0.580364,0.256309,-2.037187,-0.042097,0.010376,1.001885
2011-09-26T14:02:26.164109,3680,0.476268,0.271962,-2.019156,-0.041069,0.010169,0.997044
2011-09-26T14:02:26.174109,3690,0.372172,0.287615,-2.001126,-0.040041,0.009963,0.992204
2011-09-26T14:02:26.184109,3700,0.268076,0.303268,-1.983096,-0.039013,0.009757,0.987363
2011-09-26T14:02:26.194109,3710,0.163980,0.318920,-1.965066,-0.037985,0.009550,0.982522
2011-09-26T14:02:26.204109,3720,0.219415,0.142124,-1.960940,-0.039378,0.010643,0.981629
2011-09-26T14:02:26.214109,3730,0.277399,-0.037747,-1.957036,-0.040810,0.011757,0.980800
2011-09-26T14:02:26.224109,3740,0.335382,-0.217618,-1.953132,-0.042241,0.012871,0.979970
2011-09-26T14:02:26.234109,3750,0.393366,-0.397489,-1.949229,-0.043673,0.013985,0.979141
2011-09-26T14:02:26.244109,3760,0.451350,-0.577360,-1.945325,-0.045105,0.015099,0.978311
2011-09-26T14:02:26.254109,3770,0.509333,-0.757231,-1.941421,-0.046537,0.016212,0.977482
2011-09-26T14:02:26.264109,3780,0.567317,-0.937102,-1.937518,-0.047969,0.017326,0.976652
2011-09-26T14:02:26.274109,3790,0.625300,-1.116973,-1.933614,-0.049400,0.018440,0.975823
2011-09-26T14:02:26.284109,3800,0.683284,-1.296845,-1.929710,-0.050832,0.019554,0.974993
2011-09-26T14:02:26.294109,3810,0.741267,-1.476716,-1.925806,-0.052264,0.020668,0.974164
2011-09-26T14:02:26.304109,3820,0.799251,-1.656587,-1.921903,-0.053696,0.021781,0.973334
2011-09-26T14:02:26.314109,3830,0.753072,-1.706144,-1.880369,-0.052207,0.021957,0.975299
2011-09-26T14:02:26.324109,3840,0.705261,-1.753659,-1.838245,-0.050672,0.022117,0.977308
2011-09-26T14:02:26.334109,3850,0.657450,-1.801175,-1.796122,-0.049137,0.022278,0.979317
2011-09-26T14:02:26.344109,3860,0.609639,-1.848690,-1.753998,-0.047602,0.022439,0.981326
2011-09-26T14:02:26.354109,3870,0.561828,-1.896205,-1.711875,-0.046067,0.022599,0.983335
2011-09-26T14:02:26.364109,3880,0.514017,-1.943721,-1.669751,-0.044533,0.022760,0.985344
2011-09-26T14:02:26.374109,3890,0.466206,-1.991236,-1.627627,-0.042998,0.022921,0.987353
2011-09-26T14:02:26.384109,3900,0.418395,-2.038751,-1.585504,-0.041463,0.023081,0.989362
2011-09-26T14:02:26.394109,3910,0.370584,-2.086267,-1.543380,-0.039928,0.023242,0.991371
2011-09-26T14:02:26.404109,3920,0.322773,-2.133782,-1.501257,-0.038393,0.023402,0.993380
2011-09-26T14:02:26.414109,3930,0.265805,-2.033472,-1.498804,-0.037341,0.024442,0.996961
2011-09-26T14:02:26.424109,3940,0.208700,-1.930953,-1.496944,-0.036296,0.025495,1.000564
2011-09-26T14:02:26.434109,3950,0.151595,-1.828434,-1.495084,-0.035251,0.026548,1.004168
2011-09-26T14:02:26.444109,3960,0.094490,-1.725915,-1.493224,-0.034205,0.027601,1.007772
2011-09-26T14:02:26.454109,3970,0.037385,-1.623396,-1.491364,-0.033160,0.028654,1.011376
2011-09-26T14:02:26.464109,3980,-0.019719,-1.520877,-1.489504,-0.032115,0.029707,1.014980
2011-09-26T14:02:26.474109,3990,-0.076824,-1.418358,-1.487644,-0.031070,0.030760,1.018584
2011-09-26T14:02:26.484109,4000,-0.133929,-1.315839,-1.485784,-0.030025,0.031813,1.022187
2011-09-26T14:02:26.494109,4010,-0.191034,-1.213320,-1.483924,-0.028979,0.032866,1.025791
2011-09-26T14:02:26.504109,4020,-0.248139,-1.110801,-1.482064,-0.027934,0.033919,1.029395
2011-09-26T14:02:26.514109,4030,-0.334733,-1.067972,-1.490235,-0.027069,0.030545,1.029902
2011-09-26T14:02:26.524109,4040,-0.421779,-1.026060,-1.498560,-0.026206,0.027103,1.030361
2011-09-26T14:02:26.534109,4050,-0.508825,-0.984148,-1.506885,-0.025343,0.023662,1.030820
2011-09-26T14:02:26.544109,4060,-0.595871,-0.942236,-1.515210,-0.024480,0.020220,1.031280
2011-09-26T14:02:26.554109,4070,-0.682918,-0.900323,-1.523535,-0.023617,0.016778,1.031739
2011-09-26T14:02:26.564109,4080,-0.769964,-0.858411,-1.531860,-0.022754,0.013337,1.032198
2011-09-26T14:02:26.574109,4090,-0.857010,-0.816499,-1.540185,-0.021891,0.009895,1.032658
2011-09-26T14:02:26.584109,4100,-0.944057,-0.774587,-1.548510,-0.021028,0.006453,1.033117
2011-09-26T14:02:26.594109,4110,-1.031103,-0.732674,-1.556835,-0.020165,0.003011,1.033576
2011-09-26T14:02:26.604109,4120,-1.118149,-0.690762,-1.565160,-0.019302,-0.000430,1.034036
2011-09-26T14:02:26.614109,4130,-1.205195,-0.648850,-1.573485,-0.018439,-0.003872,1.034495
2011-09-26T14:02:26.624109,4140,-1.106479,-0.502065,-1.558335,-0.020541,-0.001461,1.035520
2011-09-26T14:02:26.634109,4150,-1.003699,-0.352985,-1.542671,-0.022708,0.001078,1.036558
2011-09-26T14:02:26.644109,4160,-0.900919,-0.203905,-1.527008,-0.024875,0.003617,1.037595
2011-09-26T14:02:26.654109,4170,-0.798139,-0.054825,-1.511344,-0.027042,0.006156,1.038632
2011-09-26T14:02:26.664109,4180,-0.695358,0.094255,-1.495681,-0.029209,0.008695,1.039670
2011-09-26T14:02:26.674109,4190,-0.592578,0.243335,-1.480017,-0.031376,0.011234,1.040707
2011-09-26T14:02:26.684109,4200,-0.489798,0.392414,-1.464354,-0.033543,0.013773,1.041745
2011-09-26T14:02:26.694109,4210,-0.387017,0.541494,-1.448690,-0.035710,0.016312,1.042782
2011-09-26T14:02:26.704109,4220,-0.284237,0.690574,-1.433027,-0.037877,0.018851,1.043819
2011-09-26T14:02:26.714109,4230,-0.181457,0.839654,-1.417363,-0.040044,0.021390,1.044857
2011-09-26T14:02:26.724109,4240,-0.277415,0.852496,-1.413345,-0.040239,0.024529,1.040784
2011-09-26T14:02:26.734109,4250,-0.376277,0.863346,-1.409498,-0.040406,0.027677,1.036636
2011-09-26T14:02:26.744109,4260,-0.475139,0.874197,-1.405651,-0.040572,0.030825,1.032488
2011-09-26T14:02:26.754109,4270,-0.574001,0.885047,-1.401803,-0.040739,0.033974,1.028340
2011-09-26T14:02:26.764109,4280,-0.672864,0.895898,-1.397956,-0.040906,0.037122,1.024193
2011-09-26T14:02:26.774109,4290,-0.771726,0.906749,-1.394108,-0.041072,0.040270,1.020045
2011-09-26T14:02:26.784109,4300,-0.870588,0.917599,-1.390261,-0.041239,0.043418,1.015897
2011-09-26T14:02:26.794109,4310,-0.969451,0.928450,-1.386414,-0.041405,0.046566,1.011749
2011-09-26T14:02:26.804109,4320,-1.068313,0.939301,-1.382566,-0.041572,0.049714,1.007602
2011-09-26T14:02:26.814109,4330,-1.167175,0.950151,-1.378719,-0.041738,0.052863,1.003454
2011-09-26T14:02:26.824109,4340,-1.179020,0.854523,-1.386959,-0.041530,0.050071,1.000871
2011-09-26T14:02:26.834109,4350,-1.188871,0.756453,-1.395476,-0.041313,0.047143,0.998324
2011-09-26T14:02:26.844109,4360,-1.198721,0.658384,-1.403993,-0.041097,0.044215,0.995776
2011-09-26T14:02:26.854109,4370,-1.208571,0.560314,-1.412510,-0.040880,0.041287,0.993229
2011-09-26T14:02:26.864109,4380,-1.218421,0.462245,-1.421027,-0.040663,0.038359,0.990682
2011-09-26T14:02:26.874109,4390,-1.228272,0.364175,-1.429544,-0.040447,0.035431,0.988135
2011-09-26T14:02:26.884109,4400,-1.238122,0.266105,-1.438061,-0.040230,0.032503,0.985587
2011-09-26T14:02:26.894109,4410,-1.247972,0.168036,-1.446578,-0.040013,0.029574,0.983040
2011-09-26T14:02:26.904109,4420,-1.257822,0.069966,-1.455095,-0.039797,0.026646,0.980493
2011-09-26T14:02:26.914109,4430,-1.267673,-0.028103,-1.463612,-0.039580,0.023718,0.977946
2011-09-26T14:02:26.924109,4440,-1.277523,-0.126173,-1.472129,-0.039364,0.020790,0.975398
2011-09-26T14:02:26.934109,4450,-1.267455,-0.141049,-1.449678,-0.038517,0.020315,0.978766
2011-09-26T14:02:26.944109,4460,-1.256938,-0.154051,-1.426529,-0.037656,0.019895,0.982267
2011-09-26T14:02:26.954109,4470,-1.246422,-0.167054,-1.403381,-0.036795,0.019475,0.985768
2011-09-26T14:02:26.964109,4480,-1.235905,-0.180056,-1.380232,-0.035934,0.019055,0.989269
2011-09-26T14:02:26.974109,4490,-1.225388,-0.193059,-1.357083,-0.035073,0.018636,0.992770
2011-09-26T14:02:26.984109,4500,-1.214872,-0.206061,-1.333934,-0.034212,0.018216,0.996271
2011-09-26T14:02:26.994109,4510,-1.204355,-0.219064,-1.310785,-0.033351,0.017796,0.999772
2011-09-26T14:02:27.004109,4520,-1.193839,-0.232067,-1.287637,-0.032491,0.017376,1.003273
2011-09-26T14:02:27.014109,4530,-1.183322,-0.245069,-1.264488,-0.031630,0.016956,1.006774
2011-09-26T14:02:27.024109,4540,-1.172806,-0.258072,-1.241339,-0.030769,0.016536,1.010275
2011-09-26T14:02:27.034109,4550,-1.095228,-0.239054,-1.229549,-0.030887,0.014616,1.008601
2011-09-26T14:02:27.044109,4560,-1.014422,-0.218496,-1.218306,-0.031053,0.012625,1.006678
2011-09-26T14:02:27.054109,4570,-0.933616,-0.197938,-1.207062,-0.031218,0.010633,1.004754
2011-09-26T14:02:27.064109,4580,-0.852811,-0.177379,-1.195819,-0.031384,0.008642,1.002831
2011-09-26T14:02:27.074109,4590,-0.772005,-0.156821,-1.184575,-0.031550,0.006650,1.000908
2011-09-26T14:02:27.084109,4600,-0.691199,-0.136262,-1.173332,-0.031715,0.004658,0.998985
2011-09-26T14:02:27.094109,4610,-0.610394,-0.115704,-1.162089,-0.031881,0.002667,0.997062
2011-09-26T14:02:27.104109,4620,-0.529588,-0.095146,-1.150845,-0.032046,0.000675,0.995139
2011-09-26T14:02:27.114109,4630,-0.448782,-0.074587,-1.139602,-0.032212,-0.001317,0.993216
2011-09-26T14:02:27.124109,4640,-0.367977,-0.054029,-1.128358,-0.032377,-0.003308,0.991293
2011-09-26T14:02:27.134109,4650,-0.391464,-0.032281,-1.122143,-0.032017,-0.001332,0.993950
2011-09-26T14:02:27.144109,4660,-0.418435,-0.010494,-1.116095,-0.031639,0.000777,0.996760
2011-09-26T14:02:27.154109,4670,-0.445406,0.011294,-1.110047,-0.031261,0.002886,0.999570
2011-09-26T14:02:27.164109,4680,-0.472377,0.033081,-1.104000,-0.030883,0.004995,1.002380
2011-09-26T14:02:27.174109,4690,-0.499348,0.054868,-1.097952,-0.030506,0.007104,1.005191
2011-09-26T14:02:27.184109,4700,-0.526319,0.076656,-1.091904,-0.030128,0.009213,1.008001
2011-09-26T14:02:27.194109,4710,-0.553290,0.098443,-1.085856,-0.029750,0.011322,1.010811
2011-09-26T14:02:27.204109,4720,-0.580261,0.120230,-1.079809,-0.029372,0.013431,1.013621
2011-09-26T14:02:27.214109,4730,-0.607232,0.142018,-1.073761,-0.028994,0.015540,1.016431
2011-09-26T14:02:27.224109,4740,-0.634203,0.163805,-1.067713,-0.028616,0.017648,1.019242
2011-09-26T14:02:27.234109,4750,-0.661174,0.185592,-1.061666,-0.028238,0.019757,1.022052
2011-09-26T14:02:27.244109,4760,-0.586485,0.146327,-1.062678,-0.027378,0.019198,1.020561
2011-09-26T14:02:27.254109,4770,-0.509624,0.105757,-1.063841,-0.026507,0.018582,1.018977
2011-09-26T14:02:27.264109,4780,-0.432763,0.065188,-1.065004,-0.025637,0.017967,1.017394
2011-09-26T14:02:27.274109,4790,-0.355902,0.024618,-1.066166,-0.024766,0.017351,1.015811
2011-09-26T14:02:27.284109,4800,-0.279041,-0.015952,-1.067329,-0.023896,0.016735,1.014228
2011-09-26T14:02:27.294109,4810,-0.202179,-0.056522,-1.068492,-0.023025,0.016119,1.012645
2011-09-26T14:02:27.304109,4820,-0.125318,-0.097092,-1.069655,-0.022154,0.015503,1.011062
2011-09-26T14:02:27.314109,4830,-0.048457,-0.137661,-1.070818,-0.021284,0.014887,1.009479
2011-09-26T14:02:27.324109,4840,0.028404,-0.178231,-1.071981,-0.020413,0.014271,1.007896
2011-09-26T14:02:27.334109,4850,0.105265,-0.218801,-1.073144,-0.019543,0.013655,1.006313
2011-09-26T14:02:27.344109,4860,0.113458,-0.228050,-1.028271,-0.017683,0.012164,1.005709
2011-09-26T14:02:27.354109,4870,0.120354,-0.236709,-0.982529,-0.015806,0.010657,1.005124
2011-09-26T14:02:27.364109,4880,0.127250,-0.245367,-0.936787,-0.013928,0.009150,1.004539
2011-09-26T14:02:27.374109,4890,0.134146,-0.254025,-0.891045,-0.012050,0.007643,1.003954
2011-09-26T14:02:27.384109,4900,0.141042,-0.262683,-0.845302,-0.010172,0.006136,1.003370
2011-09-26T14:02:27.394109,4910,0.147938,-0.271341,-0.799560,-0.008294,0.004629,1.002785
2011-09-26T14:02:27.404109,4920,0.154834,-0.279999,-0.753818,-0.006416,0.003121,1.002200
2011-09-26T14:02:27.414109,4930,0.161731,-0.288657,-0.708076,-0.004538,0.001614,1.001615
2011-09-26T14:02:27.424109,4940,0.168627,-0.297315,-0.662334,-0.002660,0.000107,1.001030
2011-09-26T14:02:27.434109,4950,0.175523,-0.305973,-0.616592,-0.000783,-0.001400,1.000445
2011-09-26T14:02:27.444109,4960,0.268982,-0.317390,-0.549219,-0.001417,-0.001401,0.999507
2011-09-26T14:02:27.454109,4970,0.364055,-0.328857,-0.481442,-0.002099,-0.001374,0.998563
2011-09-26T14:02:27.464109,4980,0.459129,-0.340325,-0.413665,-0.002781,-0.001347,0.997618
2011-09-26T14:02:27.474109,4990,0.554202,-0.351793,-0.345888,-0.003463,-0.001320,0.996674
2011-09-26T14:02:27.484109,5000,0.649276,-0.363260,-0.278112,-0.004145,-0.001293,0.995730
2011-09-26T14:02:27.494109,5010,0.744349,-0.374728,-0.210335,-0.004827,-0.001266,0.994785
2011-09-26T14:02:27.504109,5020,0.839423,-0.386196,-0.142558,-0.005508,-0.001239,0.993841
2011-09-26T14:02:27.514109,5030,0.934496,-0.397663,-0.074781,-0.006190,-0.001211,0.992897
2011-09-26T14:02:27.524109,5040,1.029569,-0.409131,-0.007005,-0.006872,-0.001184,0.991952
2011-09-26T14:02:27.534109,5050,1.124643,-0.420599,0.060772,-0.007554,-0.001157,0.991008
2011-09-26T14:02:27.544109,5060,1.219716,-0.432067,0.128549,-0.008236,-0.001130,0.990064
2011-09-26T14:02:27.554109,5070,1.195884,-0.428041,0.187846,-0.008075,0.002951,0.990627
2011-09-26T14:02:27.564109,5080,1.166577,-0.423301,0.246752,-0.007876,0.007219,0.991260
2011-09-26T14:02:27.574109,5090,1.137270,-0.418562,0.305659,-0.007677,0.011486,0.991893
2011-09-26T14:02:27.584109,5100,1.107962,-0.413823,0.364566,-0.007478,0.015754,0.992526
2011-09-26T14:02:27.594109,5110,1.078655,-0.409084,0.423472,-0.007280,0.020022,0.993159
2011-09-26T14:02:27.604109,5120,1.049348,-0.404344,0.482379,-0.007081,0.024289,0.993792
2011-09-26T14:02:27.614109,5130,1.020040,-0.399605,0.541285,-0.006882,0.028557,0.994425
2011-09-26T14:02:27.624109,5140,0.990733,-0.394866,0.600192,-0.006683,0.032825,0.995058
2011-09-26T14:02:27.634109,5150,0.961426,-0.390126,0.659099,-0.006484,0.037093,0.995691
2011-09-26T14:02:27.644109,5160,0.932118,-0.385387,0.718005,-0.006285,0.041360,0.996324
2011-09-26T14:02:27.654109,5170,0.858647,-0.335697,0.752277,-0.006686,0.042884,0.998435
2011-09-26T14:02:27.664109,5180,0.783981,-0.284791,0.785882,-0.007104,0.044333,1.000585
2011-09-26T14:02:27.674109,5190,0.709315,-0.233885,0.819487,-0.007522,0.045783,1.002736
2011-09-26T14:02:27.684109,5200,0.634650,-0.182980,0.853093,-0.007940,0.047232,1.004887
2011-09-26T14:02:27.694109,5210,0.559984,-0.132074,0.886698,-0.008358,0.048682,1.007037
2011-09-26T14:02:27.704109,5220,0.485319,-0.081169,0.920303,-0.008776,0.050131,1.009188
2011-09-26T14:02:27.714109,5230,0.410653,-0.030263,0.953909,-0.009194,0.051581,1.011339
2011-09-26T14:02:27.724109,5240,0.335987,0.020642,0.987514,-0.009612,0.053030,1.013489
2011-09-26T14:02:27.734109,5250,0.261322,0.071548,1.021119,-0.010030,0.054480,1.015640
2011-09-26T14:02:27.744109,5260,0.186656,0.122453,1.054725,-0.010448,0.055929,1.017790
2011-09-26T14:02:27.754109,5270,0.139579,0.165730,1.068484,-0.010011,0.054846,1.016282
2011-09-26T14:02:27.764109,5280,0.093047,0.208855,1.081851,-0.009556,0.053713,1.014701
2011-09-26T14:02:27.774109,5290,0.046515,0.251980,1.095218,-0.009102,0.052581,1.013120
2011-09-26T14:02:27.784109,5300,-0.000016,0.295105,1.108585,-0.008647,0.051448,1.011539
2011-09-26T14:02:27.794109,5310,-0.046548,0.338230,1.121952,-0.008193,0.050315,1.009958
2011-09-26T14:02:27.804109,5320,-0.093079,0.381356,1.135319,-0.007738,0.049182,1.008377
2011-09-26T14:02:27.814109,5330,-0.139611,0.424481,1.148686,-0.007284,0.048049,1.006796
2011-09-26T14:02:27.824109,5340,-0.186143,0.467606,1.162052,-0.006829,0.046916,1.005215
2011-09-26T14:02:27.834109,5350,-0.232674,0.510731,1.175419,-0.006375,0.045784,1.003634
2011-09-26T14:02:27.844109,5360,-0.279206,0.553856,1.188786,-0.005920,0.044651,1.002053
2011-09-26T14:02:27.854109,5370,-0.325737,0.596982,1.202153,-0.005466,0.043518,1.000472
2011-09-26T14:02:27.864109,5380,-0.353391,0.664823,1.192628,-0.006095,0.044504,1.001426
2011-09-26T14:02:27.874109,5390,-0.380536,0.733329,1.182486,-0.006754,0.045547,1.002448
2011-09-26T14:02:27.884109,5400,-0.407682,0.801836,1.172344,-0.007412,0.046589,1.003471
2011-09-26T14:02:27.894109,5410,-0.434827,0.870343,1.162202,-0.008071,0.047632,1.004493
2011-09-26T14:02:27.904109,5420,-0.461972,0.938849,1.152060,-0.008729,0.048675,1.005516
2011-09-26T14:02:27.914109,5430,-0.489118,1.007356,1.141919,-0.009388,0.049718,1.006538
2011-09-26T14:02:27.924109,5440,-0.516263,1.075862,1.131777,-0.010047,0.050761,1.007561
2011-09-26T14:02:27.934109,5450,-0.543408,1.144369,1.121635,-0.010705,0.051804,1.008584
2011-09-26T14:02:27.944109,5460,-0.570554,1.212876,1.111493,-0.011364,0.052847,1.009606
2011-09-26T14:02:27.954109,5470,-0.597699,1.281382,1.101351,-0.012022,0.053889,1.010629
2011-09-26T14:02:27.964109,5480,-0.662541,1.344494,1.100098,-0.013973,0.052928,1.008920
2011-09-26T14:02:27.974109,5490,-0.728271,1.407479,1.099055,-0.015953,0.051920,1.007147
2011-09-26T14:02:27.984109,5500,-0.794001,1.470464,1.098011,-0.017934,0.050911,1.005374
2011-09-26T14:02:27.994109,5510,-0.859731,1.533449,1.096967,-0.019914,0.049903,1.003602
2011-09-26T14:02:28.004109,5520,-0.925462,1.596434,1.095924,-0.021895,0.048894,1.001829
2011-09-26T14:02:28.014109,5530,-0.991192,1.659419,1.094880,-0.023875,0.047886,1.000056
2011-09-26T14:02:28.024109,5540,-1.056922,1.722404,1.093836,-0.025856,0.046877,0.998283
2011-09-26T14:02:28.034109,5550,-1.122652,1.785389,1.092793,-0.027836,0.045869,0.996510
2011-09-26T14:02:28.044109,5560,-1.188383,1.848374,1.091749,-0.029817,0.044860,0.994737
2011-09-26T14:02:28.054109,5570,-1.254113,1.911359,1.090705,-0.031798,0.043852,0.992964
2011-09-26T14:02:28.064109,5580,-1.192132,1.863959,1.097049,-0.032632,0.043477,0.992718
2011-09-26T14:02:28.074109,5590,-1.124786,1.811922,1.103703,-0.033419,0.043128,0.992537
2011-09-26T14:02:28.084109,5600,-1.057441,1.759885,1.110357,-0.034206,0.042779,0.992355
2011-09-26T14:02:28.094109,5610,-0.990096,1.707848,1.117010,-0.034992,0.042430,0.992173
2011-09-26T14:02:28.104109,5620,-0.922751,1.655811,1.123664,-0.035779,0.042081,0.991991
2011-09-26T14:02:28.114109,5630,-0.855405,1.603774,1.130318,-0.036566,0.041732,0.991809
2011-09-26T14:02:28.124109,5640,-0.788060,1.551737,1.136972,-0.037352,0.041384,0.991627
2011-09-26T14:02:28.134109,5650,-0.720715,1.499700,1.143626,-0.038139,0.041035,0.991445
2011-09-26T14:02:28.144109,5660,-0.653370,1.447663,1.150279,-0.038926,0.040686,0.991264
2011-09-26T14:02:28.154109,5670,-0.586024,1.395626,1.156933,-0.039713,0.040337,0.991082
2011-09-26T14:02:28.164109,5680,-0.518679,1.343589,1.163587,-0.040499,0.039988,0.990900
2011-09-26T14:02:28.174109,5690,-0.505857,1.263617,1.168000,-0.040102,0.041187,0.990546
2011-09-26T14:02:28.184109,5700,-0.494324,1.182983,1.172361,-0.039676,0.042423,0.990189
2011-09-26T14:02:28.194109,5710,-0.482792,1.102349,1.176722,-0.039250,0.043658,0.989831
2011-09-26T14:02:28.204109,5720,-0.471260,1.021715,1.181082,-0.038825,0.044894,0.989473
2011-09-26T14:02:28.214109,5730,-0.459727,0.941081,1.185443,-0.038399,0.046129,0.989115
2011-09-26T14:02:28.224109,5740,-0.448195,0.860447,1.189803,-0.037973,0.047365,0.988758
2011-09-26T14:02:28.234109,5750,-0.436663,0.779814,1.194164,-0.037548,0.048600,0.988400
2011-09-26T14:02:28.244109,5760,-0.425131,0.699180,1.198525,-0.037122,0.049836,0.988042
2011-09-26T14:02:28.254109,5770,-0.413598,0.618546,1.202885,-0.036696,0.051071,0.987684
2011-09-26T14:02:28.264109,5780,-0.402066,0.537912,1.207246,-0.036271,0.052307,0.987327
2011-09-26T14:02:28.274109,5790,-0.431419,0.443278,1.215475,-0.037506,0.051318,0.984038
2011-09-26T14:02:28.284109,5800,-0.461833,0.348281,1.223806,-0.038785,0.050271,0.980672
2011-09-26T14:02:28.294109,5810,-0.492248,0.253284,1.232136,-0.040064,0.049224,0.977307
2011-09-26T14:02:28.304109,5820,-0.522663,0.158287,1.240466,-0.041343,0.048178,0.973942
2011-09-26T14:02:28.314109,5830,-0.553077,0.063290,1.248796,-0.042621,0.047131,0.970576
2011-09-26T14:02:28.324109,5840,-0.583492,-0.031708,1.257126,-0.043900,0.046084,0.967211
2011-09-26T14:02:28.334109,5850,-0.613907,-0.126705,1.265456,-0.045179,0.045037,0.963846
2011-09-26T14:02:28.344109,5860,-0.644321,-0.221702,1.273786,-0.046458,0.043991,0.960481
2011-09-26T14:02:28.354109,5870,-0.674736,-0.316699,1.282116,-0.047736,0.042944,0.957115
2011-09-26T14:02:28.364109,5880,-0.705151,-0.411697,1.290447,-0.049015,0.041897,0.953750
2011-09-26T14:02:28.374109,5890,-0.620499,-0.520194,1.278705,-0.048110,0.041389,0.955268
2011-09-26T14:02:28.384109,5900,-0.533066,-0.629018,1.266477,-0.047152,0.040894,0.956904
2011-09-26T14:02:28.394109,5910,-0.445632,-0.737841,1.254250,-0.046194,0.040399,0.958539
2011-09-26T14:02:28.404109,5920,-0.358199,-0.846665,1.242023,-0.045237,0.039904,0.960175
2011-09-26T14:02:28.414109,5930,-0.270765,-0.955489,1.229795,-0.044279,0.039408,0.961811
2011-09-26T14:02:28.424109,5940,-0.183331,-1.064312,1.217568,-0.043321,0.038913,0.963447
2011-09-26T14:02:28.434109,5950,-0.095898,-1.173136,1.205340,-0.042363,0.038418,0.965083
2011-09-26T14:02:28.444109,5960,-0.008464,-1.281960,1.193113,-0.041405,0.037923,0.966719
2011-09-26T14:02:28.454109,5970,0.078969,-1.390783,1.180886,-0.040447,0.037428,0.968354
2011-09-26T14:02:28.464109,5980,0.166403,-1.499607,1.168658,-0.039490,0.036933,0.969990
2011-09-26T14:02:28.474109,5990,0.253836,-1.608431,1.156431,-0.038532,0.036438,0.971626
2011-09-26T14:02:28.484109,6000,0.315240,-1.601486,1.172150,-0.037760,0.036454,0.977487
2011-09-26T14:02:28.494109,6010,0.375954,-1.591475,1.188609,-0.036994,0.036484,0.983459
2011-09-26T14:02:28.504109,6020,0.436669,-1.581463,1.205068,-0.036227,0.036513,0.989431
2011-09-26T14:02:28.514109,6030,0.497383,-1.571452,1.221527,-0.035461,0.036543,0.995404
2011-09-26T14:02:28.524109,6040,0.558097,-1.561441,1.237986,-0.034694,0.036573,1.001376
2011-09-26T14:02:28.534109,6050,0.618811,-1.551429,1.254446,-0.033928,0.036603,1.007349
2011-09-26T14:02:28.544109,6060,0.679525,-1.541418,1.270905,-0.033161,0.036632,1.013321
2011-09-26T14:02:28.554109,6070,0.740240,-1.531407,1.287364,-0.032395,0.036662,1.019293
2011-09-26T14:02:28.564109,6080,0.800954,-1.521395,1.303823,-0.031628,0.036692,1.025266
2011-09-26T14:02:28.574109,6090,0.861668,-1.511384,1.320282,-0.030862,0.036722,1.031238
2011-09-26T14:02:28.584109,6100,0.872503,-1.431655,1.314480,-0.030223,0.038420,1.031317
2011-09-26T14:02:28.594109,6110,0.881779,-1.349746,1.307981,-0.029588,0.040171,1.031212
2011-09-26T14:02:28.604109,6120,0.891054,-1.267837,1.301483,-0.028954,0.041922,1.031106
2011-09-26T14:02:28.614109,6130,0.900330,-1.185929,1.294984,-0.028319,0.043673,1.031001
2011-09-26T14:02:28.624109,6140,0.909605,-1.104020,1.288485,-0.027684,0.045423,1.030896
2011-09-26T14:02:28.634109,6150,0.918881,-1.022111,1.281987,-0.027050,0.047174,1.030790
2011-09-26T14:02:28.644109,6160,0.928156,-0.940202,1.275488,-0.026415,0.048925,1.030685
2011-09-26T14:02:28.654109,6170,0.937432,-0.858293,1.268990,-0.025780,0.050676,1.030579
2011-09-26T14:02:28.664109,6180,0.946707,-0.776384,1.262491,-0.025146,0.052427,1.030474
2011-09-26T14:02:28.674109,6190,0.955983,-0.694475,1.255992,-0.024511,0.054177,1.030369
2011-09-26T14:02:28.684109,6200,0.985719,-0.686309,1.239891,-0.022675,0.053903,1.028680
2011-09-26T14:02:28.694109,6210,1.016023,-0.680190,1.223523,-0.020806,0.053571,1.026947
2011-09-26T14:02:28.704109,6220,1.046327,-0.674072,1.207155,-0.018937,0.053240,1.025215
2011-09-26T14:02:28.714109,6230,1.076632,-0.667954,1.190788,-0.017068,0.052909,1.023482
2011-09-26T14:02:28.724109,6240,1.106936,-0.661836,1.174420,-0.015200,0.052578,1.021749
2011-09-26T14:02:28.734109,6250,1.137241,-0.655718,1.158052,-0.013331,0.052247,1.020017
2011-09-26T14:02:28.744109,6260,1.167545,-0.649600,1.141684,-0.011462,0.051916,1.018284
2011-09-26T14:02:28.754109,6270,1.197849,-0.643481,1.125316,-0.009593,0.051584,1.016552
2011-09-26T14:02:28.764109,6280,1.228154,-0.637363,1.108948,-0.007724,0.051253,1.014819
2011-09-26T14:02:28.774109,6290,1.258458,-0.631245,1.092580,-0.005855,0.050922,1.013086
2011-09-26T14:02:28.784109,6300,1.288762,-0.625127,1.076213,-0.003986,0.050591,1.011354
2011-09-26T14:02:28.794109,6310,1.257831,-0.623543,1.119564,-0.001164,0.048616,1.009896
2011-09-26T14:02:28.804109,6320,1.225304,-0.622077,1.164473,0.001683,0.046598,1.008446
2011-09-26T14:02:28.814109,6330,1.192776,-0.620611,1.209381,0.004530,0.044580,1.006996
2011-09-26T14:02:28.824109,6340,1.160248,-0.619145,1.254290,0.007377,0.042562,1.005546
2011-09-26T14:02:28.834109,6350,1.127720,-0.617679,1.299199,0.010224,0.040544,1.004095
2011-09-26T14:02:28.844109,6360,1.095192,-0.616213,1.344108,0.013071,0.038526,1.002645
2011-09-26T14:02:28.854109,6370,1.062665,-0.614747,1.389016,0.015918,0.036508,1.001195
2011-09-26T14:02:28.864109,6380,1.030137,-0.613281,1.433925,0.018765,0.034490,0.999745
2011-09-26T14:02:28.874109,6390,0.997609,-0.611815,1.478834,0.021612,0.032472,0.998294
2011-09-26T14:02:28.884109,6400,0.965081,-0.610349,1.523743,0.024459,0.030454,0.996844
2011-09-26T14:02:28.894109,6410,0.963890,-0.635227,1.540686,0.024464,0.032633,0.996307
2011-09-26T14:02:28.904109,6420,0.963552,-0.660823,1.556867,0.024392,0.034926,0.995795
2011-09-26T14:02:28.914109,6430,0.963214,-0.686419,1.573048,0.024320,0.037220,0.995283
2011-09-26T14:02:28.924109,6440,0.962875,-0.712015,1.589229,0.024248,0.039513,0.994771
2011-09-26T14:02:28.934109,6450,0.962537,-0.737611,1.605411,0.024176,0.041807,0.994259
2011-09-26T14:02:28.944109,6460,0.962199,-0.763207,1.621592,0.024104,0.044100,0.993746
2011-09-26T14:02:28.954109,6470,0.961861,-0.788803,1.637773,0.024032,0.046394,0.993234
2011-09-26T14:02:28.964109,6480,0.961523,-0.814399,1.653955,0.023960,0.048687,0.992722
2011-09-26T14:02:28.974109,6490,0.961185,-0.839995,1.670136,0.023888,0.050980,0.992210
2011-09-26T14:02:28.984109,6500,0.960847,-0.865590,1.686317,0.023816,0.053274,0.991698
2011-09-26T14:02:28.994109,6510,0.925843,-0.891601,1.709885,0.025019,0.054802,0.992680
2011-09-26T14:02:29.004109,6520,0.889858,-0.917623,1.733662,0.026257,0.056309,0.993704
2011-09-26T14:02:29.014109,6530,0.853873,-0.943645,1.757438,0.027496,0.057816,0.994728
2011-09-26T14:02:29.024109,6540,0.817888,-0.969667,1.781215,0.028735,0.059322,0.995753
2011-09-26T14:02:29.034109,6550,0.781903,-0.995689,1.804992,0.029973,0.060829,0.996777
2011-09-26T14:02:29.044109,6560,0.745918,-1.021711,1.828769,0.031212,0.062336,0.997801
2011-09-26T14:02:29.054109,6570,0.709934,-1.047733,1.852545,0.032451,0.063842,0.998826
2011-09-26T14:02:29.064109,6580,0.673949,-1.073755,1.876322,0.033689,0.065349,0.999850
2011-09-26T14:02:29.074109,6590,0.637964,-1.099777,1.900099,0.034928,0.066856,1.000874
2011-09-26T14:02:29.084109,6600,0.601979,-1.125800,1.923875,0.036167,0.068362,1.001898
2011-09-26T14:02:29.094109,6610,0.586046,-1.053673,1.919797,0.035823,0.068371,1.001852
2011-09-26T14:02:29.104109,6620,0.571187,-0.976294,1.914227,0.035395,0.068298,1.001749
2011-09-26T14:02:29.114109,6630,0.556327,-0.898914,1.908657,0.034967,0.068226,1.001646
2011-09-26T14:02:29.124109,6640,0.541468,-0.821535,1.903087,0.034539,0.068154,1.001542
2011-09-26T14:02:29.134109,6650,0.526608,-0.744155,1.897518,0.034110,0.068082,1.001439
2011-09-26T14:02:29.144109,6660,0.511749,-0.666775,1.891948,0.033682,0.068010,1.001336
2011-09-26T14:02:29.154109,6670,0.496889,-0.589396,1.886378,0.033254,0.067938,1.001232
2011-09-26T14:02:29.164109,6680,0.482030,-0.512016,1.880808,0.032826,0.067865,1.001129
2011-09-26T14:02:29.174109,6690,0.467170,-0.434637,1.875238,0.032398,0.067793,1.001026
2011-09-26T14:02:29.184109,6700,0.452310,-0.357257,1.869669,0.031969,0.067721,1.000922
2011-09-26T14:02:29.194109,6710,0.437451,-0.279878,1.864099,0.031541,0.067649,1.000819
2011-09-26T14:02:29.204109,6720,0.377697,-0.165020,1.858586,0.031728,0.066207,1.001583
2011-09-26T14:02:29.214109,6730,0.316744,-0.049161,1.853075,0.031932,0.064729,1.002371
2011-09-26T14:02:29.224109,6740,0.255791,0.066697,1.847564,0.032136,0.063251,1.003158
2011-09-26T14:02:29.234109,6750,0.194838,0.182556,1.842053,0.032339,0.061773,1.003945
2011-09-26T14:02:29.244109,6760,0.133885,0.298415,1.836542,0.032543,0.060295,1.004733
2011-09-26T14:02:29.254109,6770,0.072932,0.414274,1.831031,0.032747,0.058817,1.005520
2011-09-26T14:02:29.264109,6780,0.011979,0.530133,1.825520,0.032950,0.057339,1.006307
2011-09-26T14:02:29.274109,6790,-0.048974,0.645992,1.820009,0.033154,0.055861,1.007095
2011-09-26T14:02:29.284109,6800,-0.109927,0.761851,1.814498,0.033358,0.054383,1.007882
2011-09-26T14:02:29.294109,6810,-0.170880,0.877709,1.808987,0.033562,0.052905,1.008669
2011-09-26T14:02:29.304109,6820,-0.293913,0.910073,1.803973,0.033542,0.054039,1.007557
2011-09-26T14:02:29.314109,6830,-0.418893,0.939817,1.798975,0.033515,0.055255,1.006385
2011-09-26T14:02:29.324109,6840,-0.543873,0.969561,1.793977,0.033488,0.056470,1.005213
2011-09-26T14:02:29.334109,6850,-0.668853,0.999305,1.788979,0.033461,0.057686,1.004040
2011-09-26T14:02:29.344109,6860,-0.793833,1.029049,1.783981,0.033434,0.058902,1.002868
2011-09-26T14:02:29.354109,6870,-0.918813,1.058793,1.778983,0.033407,0.060118,1.001696
2011-09-26T14:02:29.364109,6880,-1.043793,1.088537,1.773985,0.033381,0.061334,1.000524
2011-09-26T14:02:29.374109,6890,-1.168773,1.118281,1.768987,0.033354,0.062550,0.999352
2011-09-26T14:02:29.384109,6900,-1.293754,1.148025,1.763988,0.033327,0.063765,0.998180
2011-09-26T14:02:29.394109,6910,-1.418734,1.177769,1.758990,0.033300,0.064981,0.997008
2011-09-26T14:02:29.404109,6920,-1.423262,1.208174,1.753650,0.033956,0.063310,0.997092
2011-09-26T14:02:29.414109,6930,-1.424153,1.238598,1.748299,0.034633,0.061552,0.997214
2011-09-26T14:02:29.424109,6940,-1.425043,1.269023,1.742948,0.035311,0.059794,0.997336
2011-09-26T14:02:29.434109,6950,-1.425933,1.299448,1.737597,0.035988,0.058037,0.997458
2011-09-26T14:02:29.444109,6960,-1.426824,1.329873,1.732246,0.036665,0.056279,0.997580
2011-09-26T14:02:29.454109,6970,-1.427714,1.360297,1.726895,0.037342,0.054521,0.997702
2011-09-26T14:02:29.464109,6980,-1.428604,1.390722,1.721543,0.038019,0.052763,0.997824
2011-09-26T14:02:29.474109,6990,-1.429495,1.421147,1.716192,0.038696,0.051005,0.997946
2011-09-26T14:02:29.484109,7000,-1.430385,1.451572,1.710841,0.039373,0.049247,0.998068
2011-09-26T14:02:29.494109,7010,-1.431275,1.481996,1.705490,0.040050,0.047489,0.998190
2011-09-26T14:02:29.504109,7020,-1.432166,1.512421,1.700139,0.040727,0.045731,0.998312
2011-09-26T14:02:29.514109,7030,-1.304679,1.519492,1.708347,0.039747,0.045536,0.993552
2011-09-26T14:02:29.524109,7040,-1.173682,1.525924,1.716925,0.038722,0.045385,0.988659
2011-09-26T14:02:29.534109,7050,-1.042686,1.532356,1.725503,0.037696,0.045233,0.983766
2011-09-26T14:02:29.544109,7060,-0.911689,1.538789,1.734081,0.036671,0.045082,0.978873
2011-09-26T14:02:29.554109,7070,-0.780693,1.545221,1.742660,0.035645,0.044930,0.973980
2011-09-26T14:02:29.564109,7080,-0.649696,1.551653,1.751238,0.034620,0.044779,0.969087
2011-09-26T14:02:29.574109,7090,-0.518700,1.558085,1.759816,0.033594,0.044627,0.964194
2011-09-26T14:02:29.584109,7100,-0.387703,1.564518,1.768394,0.032569,0.044475,0.959301
2011-09-26T14:02:29.594109,7110,-0.256707,1.570950,1.776972,0.031543,0.044324,0.954408
2011-09-26T14:02:29.604109,7120,-0.125710,1.577382,1.785551,0.030518,0.044172,0.949515
2011-09-26T14:02:29.614109,7130,-0.076222,1.415946,1.782178,0.031665,0.044697,0.951872
2011-09-26T14:02:29.624109,7140,-0.029508,1.248797,1.778398,0.032887,0.045245,0.954476
2011-09-26T14:02:29.634109,7150,0.017205,1.081648,1.774619,0.034108,0.045792,0.957080
2011-09-26T14:02:29.644109,7160,0.063919,0.914499,1.770839,0.035329,0.046340,0.959684
2011-09-26T14:02:29.654109,7170,0.110633,0.747350,1.767060,0.036551,0.046887,0.962288
2011-09-26T14:02:29.664109,7180,0.157347,0.580201,1.763280,0.037772,0.047435,0.964892
2011-09-26T14:02:29.674109,7190,0.204061,0.413052,1.759501,0.038993,0.047983,0.967496
2011-09-26T14:02:29.684109,7200,0.250775,0.245903,1.755721,0.040215,0.048530,0.970100
2011-09-26T14:02:29.694109,7210,0.297489,0.078755,1.751942,0.041436,0.049078,0.972704
2011-09-26T14:02:29.704109,7220,0.344203,-0.088394,1.748162,0.042657,0.049626,0.975308
2011-09-26T14:02:29.714109,7230,0.390917,-0.255543,1.744383,0.043879,0.050173,0.977912
2011-09-26T14:02:29.724109,7240,0.308023,-0.253456,1.724892,0.044170,0.051810,0.979850
2011-09-26T14:02:29.734109,7250,0.221036,-0.246025,1.704904,0.044431,0.053482,0.981766
2011-09-26T14:02:29.744109,7260,0.134049,-0.238593,1.684916,0.044692,0.055153,0.983683
2011-09-26T14:02:29.754109,7270,0.047062,-0.231161,1.664928,0.044954,0.056825,0.985600
2011-09-26T14:02:29.764109,7280,-0.039926,-0.223730,1.644941,0.045215,0.058496,0.987516
2011-09-26T14:02:29.774109,7290,-0.126913,-0.216298,1.624953,0.045476,0.060167,0.989433
2011-09-26T14:02:29.784109,7300,-0.213900,-0.208866,1.604965,0.045738,0.061839,0.991350
2011-09-26T14:02:29.794109,7310,-0.300887,-0.201435,1.584978,0.045999,0.063510,0.993266
2011-09-26T14:02:29.804109,7320,-0.387874,-0.194003,1.564990,0.046261,0.065182,0.995183
2011-09-26T14:02:29.814109,7330,-0.474861,-0.186571,1.545002,0.046522,0.066853,0.997100
2011-09-26T14:02:29.824109,7340,-0.555156,-0.211012,1.542519,0.047971,0.068468,0.998218
2011-09-26T14:02:29.834109,7350,-0.635244,-0.236436,1.540576,0.049457,0.070081,0.999311
2011-09-26T14:02:29.844109,7360,-0.715333,-0.261859,1.538632,0.050943,0.071694,1.000404
2011-09-26T14:02:29.854109,7370,-0.795422,-0.287283,1.536689,0.052429,0.073306,1.001498
2011-09-26T14:02:29.864109,7380,-0.875510,-0.312707,1.534746,0.053915,0.074919,1.002591
2011-09-26T14:02:29.874109,7390,-0.955599,-0.338130,1.532802,0.055400,0.076532,1.003684
2011-09-26T14:02:29.884109,7400,-1.035687,-0.363554,1.530859,0.056886,0.078145,1.004777
2011-09-26T14:02:29.894109,7410,-1.115776,-0.388977,1.528915,0.058372,0.079758,1.005871
2011-09-26T14:02:29.904109,7420,-1.195865,-0.414401,1.526972,0.059858,0.081371,1.006964
2011-09-26T14:02:29.914109,7430,-1.275953,-0.439824,1.525028,0.061344,0.082984,1.008057
2011-09-26T14:02:29.924109,7440,-1.247760,-0.433694,1.517517,0.062405,0.079155,1.007732
2011-09-26T14:02:29.934109,7450,-1.216169,-0.426573,1.509830,0.063454,0.075156,1.007362
2011-09-26T14:02:29.944109,7460,-1.184579,-0.419453,1.502144,0.064502,0.071157,1.006992
2011-09-26T14:02:29.954109,7470,-1.152988,-0.412332,1.494457,0.065550,0.067157,1.006622
2011-09-26T14:02:29.964109,7480,-1.121398,-0.405211,1.486771,0.066599,0.063158,1.006253
2011-09-26T14:02:29.974109,7490,-1.089807,-0.398091,1.479084,0.067647,0.059159,1.005883
2011-09-26T14:02:29.984109,7500,-1.058216,-0.390970,1.471398,0.068695,0.055160,1.005513
2011-09-26T14:02:29.994109,7510,-1.026626,-0.383850,1.463711,0.069743,0.051160,1.005143
2011-09-26T14:02:30.004109,7520,-0.995035,-0.376729,1.456025,0.070792,0.047161,1.004773
2011-09-26T14:02:30.014109,7530,-0.963445,-0.369608,1.448338,0.071840,0.043162,1.004403
2011-09-26T14:02:30.024109,7540,-0.795553,-0.394571,1.452499,0.071813,0.040816,1.004121
2011-09-26T14:02:30.034109,7550,-0.622994,-0.420633,1.457066,0.071749,0.038527,1.003842
2011-09-26T14:02:30.044109,7560,-0.450435,-0.446694,1.461632,0.071685,0.036238,1.003563
2011-09-26T14:02:30.054109,7570,-0.277876,-0.472756,1.466198,0.071621,0.033949,1.003284
2011-09-26T14:02:30.064109,7580,-0.105317,-0.498817,1.470765,0.071556,0.031660,1.003005
2011-09-26T14:02:30.074109,7590,0.067241,-0.524878,1.475331,0.071492,0.029371,1.002726
2011-09-26T14:02:30.084109,7600,0.239800,-0.550940,1.479898,0.071428,0.027082,1.002447
2011-09-26T14:02:30.094109,7610,0.412359,-0.577001,1.484464,0.071364,0.024793,1.002168
2011-09-26T14:02:30.104109,7620,0.584918,-0.603063,1.489030,0.071300,0.022504,1.001889
2011-09-26T14:02:30.114109,7630,0.757477,-0.629124,1.493597,0.071236,0.020215,1.001610
2011-09-26T14:02:30.124109,7640,0.930035,-0.655186,1.498163,0.071172,0.017926,1.001331
2011-09-26T14:02:30.134109,7650,0.954771,-0.695303,1.475027,0.071790,0.021991,1.003200
2011-09-26T14:02:30.144109,7660,0.971891,-0.736145,1.450463,0.072444,0.026383,1.005179
2011-09-26T14:02:30.154109,7670,0.989010,-0.776987,1.425899,0.073098,0.030775,1.007159
2011-09-26T14:02:30.164109,7680,1.006130,-0.817829,1.401335,0.073751,0.035168,1.009139
2011-09-26T14:02:30.174109,7690,1.023249,-0.858671,1.376772,0.074405,0.039560,1.011119
2011-09-26T14:02:30.184109,7700,1.040369,-0.899513,1.352208,0.075059,0.043952,1.013098
2011-09-26T14:02:30.194109,7710,1.057488,-0.940355,1.327644,0.075712,0.048345,1.015078
2011-09-26T14:02:30.204109,7720,1.074608,-0.981197,1.303080,0.076366,0.052737,1.017058
2011-09-26T14:02:30.214109,7730,1.091727,-1.022039,1.278516,0.077019,0.057129,1.019037
2011-09-26T14:02:30.224109,7740,1.108847,-1.062881,1.253953,0.077673,0.061522,1.021017
2011-09-26T14:02:30.234109,7750,1.065833,-1.003938,1.235157,0.077745,0.062278,1.020780
2011-09-26T14:02:30.244109,7760,1.021123,-0.942182,1.216523,0.077800,0.062931,1.020479
2011-09-26T14:02:30.254109,7770,0.976414,-0.880426,1.197890,0.077855,0.063584,1.020179
2011-09-26T14:02:30.264109,7780,0.931705,-0.818671,1.179257,0.077911,0.064238,1.019879
2011-09-26T14:02:30.274109,7790,0.886995,-0.756915,1.160623,0.077966,0.064891,1.019579
2011-09-26T14:02:30.284109,7800,0.842286,-0.695160,1.141990,0.078022,0.065544,1.019279
2011-09-26T14:02:30.294109,7810,0.797577,-0.633404,1.123357,0.078077,0.066198,1.018979
2011-09-26T14:02:30.304109,7820,0.752868,-0.571648,1.104723,0.078132,0.066851,1.018679
2011-09-26T14:02:30.314109,7830,0.708158,-0.509893,1.086090,0.078188,0.067505,1.018378
2011-09-26T14:02:30.324109,7840,0.663449,-0.448137,1.067457,0.078243,0.068158,1.018078
2011-09-26T14:02:30.334109,7850,0.496781,-0.467289,1.067091,0.078389,0.067700,1.014733
2011-09-26T14:02:30.344109,7860,0.323855,-0.490592,1.067663,0.078539,0.067186,1.011231
2011-09-26T14:02:30.354109,7870,0.150929,-0.513896,1.068235,0.078689,0.066671,1.007729
2011-09-26T14:02:30.364109,7880,-0.021997,-0.537199,1.068806,0.078839,0.066156,1.004227
2011-09-26T14:02:30.374109,7890,-0.194923,-0.560502,1.069378,0.078989,0.065641,1.000725
2011-09-26T14:02:30.384109,7900,-0.367849,-0.583805,1.069950,0.079139,0.065127,0.997223
2011-09-26T14:02:30.394109,7910,-0.540775,-0.607109,1.070521,0.079289,0.064612,0.993722
2011-09-26T14:02:30.404109,7920,-0.713701,-0.630412,1.071093,0.079439,0.064097,0.990220
2011-09-26T14:02:30.414109,7930,-0.886627,-0.653715,1.071665,0.079589,0.063583,0.986718
2011-09-26T14:02:30.424109,7940,-1.059553,-0.677019,1.072236,0.079739,0.063068,0.983216
2011-09-26T14:02:30.434109,7950,-1.232479,-0.700322,1.072808,0.079889,0.062553,0.979714
2011-09-26T14:02:30.444109,7960,-1.169177,-0.725161,1.055022,0.080756,0.060425,0.983709
2011-09-26T14:02:30.454109,7970,-1.098260,-0.750050,1.036644,0.081647,0.058244,0.987945
2011-09-26T14:02:30.464109,7980,-1.027344,-0.774939,1.018266,0.082538,0.056064,0.992181
2011-09-26T14:02:30.474109,7990,-0.956428,-0.799829,0.999889,0.083428,0.053884,0.996418
2011-09-26T14:02:30.484109,8000,-0.885512,-0.824718,0.981511,0.084319,0.051703,1.000654
2011-09-26T14:02:30.494109,8010,-0.814596,-0.849607,0.963133,0.085209,0.049523,1.004890
2011-09-26T14:02:30.504109,8020,-0.743679,-0.874496,0.944755,0.086100,0.047342,1.009127
2011-09-26T14:02:30.514109,8030,-0.672763,-0.899385,0.926377,0.086991,0.045162,1.013363
2011-09-26T14:02:30.524109,8040,-0.601847,-0.924274,0.908000,0.087881,0.042982,1.017599
2011-09-26T14:02:30.534109,8050,-0.530931,-0.949163,0.889622,0.088772,0.040801,1.021836
2011-09-26T14:02:30.544109,8060,-0.475857,-0.865956,0.872585,0.088256,0.040956,1.020715
2011-09-26T14:02:30.554109,8070,-0.421681,-0.776625,0.855625,0.087661,0.041243,1.019291
2011-09-26T14:02:30.564109,8080,-0.367504,-0.687294,0.838664,0.087066,0.041531,1.017867
2011-09-26T14:02:30.574109,8090,-0.313328,-0.597963,0.821704,0.086470,0.041818,1.016443
2011-09-26T14:02:30.584109,8100,-0.259152,-0.508632,0.804743,0.085875,0.042105,1.015019
2011-09-26T14:02:30.594109,8110,-0.204976,-0.419301,0.787783,0.085280,0.042392,1.013595
2011-09-26T14:02:30.604109,8120,-0.150799,-0.329970,0.770822,0.084684,0.042679,1.012171
2011-09-26T14:02:30.614109,8130,-0.096623,-0.240639,0.753862,0.084089,0.042966,1.010748
2011-09-26T14:02:30.624109,8140,-0.042447,-0.151308,0.736901,0.083494,0.043254,1.009324
2011-09-26T14:02:30.634109,8150,0.011729,-0.061977,0.719941,0.082898,0.043541,1.007900
2011-09-26T14:02:30.644109,8160,0.075133,-0.045584,0.703173,0.083102,0.041397,1.006238
2011-09-26T14:02:30.654109,8170,0.138933,-0.032333,0.686413,0.083340,0.039148,1.004566
2011-09-26T14:02:30.664109,8180,0.202734,-0.019082,0.669653,0.083578,0.036899,1.002894
2011-09-26T14:02:30.674109,8190,0.266535,-0.005831,0.652894,0.083816,0.034650,1.001222
2011-09-26T14:02:30.684109,8200,0.330335,0.007420,0.636134,0.084054,0.032401,0.999550
2011-09-26T14:02:30.694109,8210,0.394136,0.020671,0.619374,0.084292,0.030152,0.997877
2011-09-26T14:02:30.704109,8220,0.457937,0.033922,0.602614,0.084530,0.027903,0.996205
2011-09-26T14:02:30.714109,8230,0.521738,0.047173,0.585855,0.084768,0.025654,0.994533
2011-09-26T14:02:30.724109,8240,0.585538,0.060424,0.569095,0.085006,0.023405,0.992861
2011-09-26T14:02:30.734109,8250,0.649339,0.073675,0.552335,0.085244,0.021156,0.991189
2011-09-26T14:02:30.744109,8260,0.713140,0.086926,0.535576,0.085482,0.018908,0.989517
2011-09-26T14:02:30.754109,8270,0.654175,0.146922,0.511570,0.085250,0.022630,0.993041
2011-09-26T14:02:30.764109,8280,0.590850,0.208579,0.487307,0.085002,0.026564,0.996750
2011-09-26T14:02:30.774109,8290,0.527524,0.270236,0.463043,0.084754,0.030498,1.000459
2011-09-26T14:02:30.784109,8300,0.464199,0.331893,0.438780,0.084506,0.034432,1.004167
2011-09-26T14:02:30.794109,8310,0.400873,0.393550,0.414517,0.084257,0.038367,1.007876
2011-09-26T14:02:30.804109,8320,0.337548,0.455207,0.390254,0.084009,0.042301,1.011585
2011-09-26T14:02:30.814109,8330,0.274223,0.516864,0.365991,0.083761,0.046235,1.015293
2011-09-26T14:02:30.824109,8340,0.210897,0.578521,0.341728,0.083513,0.050169,1.019002
2011-09-26T14:02:30.834109,8350,0.147572,0.640178,0.317464,0.083264,0.054104,1.022711
2011-09-26T14:02:30.844109,8360,0.084247,0.701835,0.293201,0.083016,0.058038,1.026419
2011-09-26T14:02:30.854109,8370,0.056596,0.690080,0.269592,0.082658,0.054709,1.021540
2011-09-26T14:02:30.864109,8380,0.030197,0.675748,0.246006,0.082295,0.051125,1.016358
2011-09-26T14:02:30.874109,8390,0.003798,0.661416,0.222421,0.081933,0.047541,1.011177
2011-09-26T14:02:30.884109,8400,-0.022601,0.647085,0.198835,0.081570,0.043957,1.005996
2011-09-26T14:02:30.894109,8410,-0.049000,0.632753,0.175249,0.081208,0.040374,1.000815
2011-09-26T14:02:30.904109,8420,-0.075398,0.618421,0.151663,0.080845,0.036790,0.995634
2011-09-26T14:02:30.914109,8430,-0.101797,0.604090,0.128077,0.080483,0.033206,0.990453
2011-09-26T14:02:30.924109,8440,-0.128196,0.589758,0.104491,0.080120,0.029622,0.985271
2011-09-26T14:02:30.934109,8450,-0.154595,0.575426,0.080905,0.079758,0.026038,0.980090
2011-09-26T14:02:30.944109,8460,-0.180994,0.561095,0.057319,0.079395,0.022454,0.974909
2011-09-26T14:02:30.954109,8470,-0.266664,0.554766,0.031799,0.077950,0.022016,0.975991
2011-09-26T14:02:30.964109,8480,-0.354485,0.548727,0.006209,0.076466,0.021691,0.977301
2011-09-26T14:02:30.974109,8490,-0.442306,0.542689,-0.019381,0.074981,0.021367,0.978610
2011-09-26T14:02:30.984109,8500,-0.530126,0.536651,-0.044971,0.073497,0.021042,0.979920
2011-09-26T14:02:30.994109,8510,-0.617947,0.530612,-0.070561,0.072013,0.020718,0.981229
2011-09-26T14:02:31.004109,8520,-0.705768,0.524574,-0.096151,0.070528,0.020393,0.982539
2011-09-26T14:02:31.014109,8530,-0.793589,0.518535,-0.121740,0.069044,0.020069,0.983848
2011-09-26T14:02:31.024109,8540,-0.881410,0.512497,-0.147330,0.067559,0.019744,0.985158
2011-09-26T14:02:31.034109,8550,-0.969230,0.506458,-0.172920,0.066075,0.019420,0.986467
2011-09-26T14:02:31.044109,8560,-1.057051,0.500420,-0.198510,0.064590,0.019095,0.987777
2011-09-26T14:02:31.054109,8570,-1.144872,0.494381,-0.224100,0.063106,0.018771,0.989086
2011-09-26T14:02:31.064109,8580,-1.023327,0.461921,-0.246376,0.061534,0.017936,0.989461
2011-09-26T14:02:31.074109,8590,-0.889246,0.427879,-0.268454,0.059957,0.017071,0.989780
2011-09-26T14:02:31.084109,8600,-0.755165,0.393837,-0.290532,0.058380,0.016206,0.990099
2011-09-26T14:02:31.094109,8610,-0.621084,0.359795,-0.312610,0.056803,0.015340,0.990419
2011-09-26T14:02:31.104109,8620,-0.487003,0.325752,-0.334687,0.055227,0.014475,0.990738
2011-09-26T14:02:31.114109,8630,-0.352922,0.291710,-0.356765,0.053650,0.013610,0.991057
2011-09-26T14:02:31.124109,8640,-0.218841,0.257668,-0.378843,0.052073,0.012744,0.991376
2011-09-26T14:02:31.134109,8650,-0.084760,0.223626,-0.400921,0.050496,0.011879,0.991695
2011-09-26T14:02:31.144109,8660,0.049321,0.189584,-0.422999,0.048919,0.011014,0.992014
2011-09-26T14:02:31.154109,8670,0.183401,0.155541,-0.445076,0.047342,0.010148,0.992333
2011-09-26T14:02:31.164109,8680,0.230711,0.119085,-0.433463,0.045514,0.010215,0.993323
2011-09-26T14:02:31.174109,8690,0.274936,0.082543,-0.420652,0.043678,0.010315,0.994337
2011-09-26T14:02:31.184109,8700,0.319160,0.046001,-0.407841,0.041842,0.010415,0.995352
2011-09-26T14:02:31.194109,8710,0.363385,0.009459,-0.395031,0.040006,0.010514,0.996366
2011-09-26T14:02:31.204109,8720,0.407610,-0.027083,-0.382220,0.038169,0.010614,0.997380
2011-09-26T14:02:31.214109,8730,0.451835,-0.063625,-0.369409,0.036333,0.010714,0.998394
2011-09-26T14:02:31.224109,8740,0.496060,-0.100167,-0.356598,0.034497,0.010814,0.999408
2011-09-26T14:02:31.234109,8750,0.540285,-0.136709,-0.343787,0.032660,0.010913,1.000422
2011-09-26T14:02:31.244109,8760,0.584509,-0.173251,-0.330977,0.030824,0.011013,1.001436
2011-09-26T14:02:31.254109,8770,0.628734,-0.209793,-0.318166,0.028988,0.011113,1.002450
2011-09-26T14:02:31.264109,8780,0.694859,-0.218161,-0.321458,0.027779,0.012210,1.002695
2011-09-26T14:02:31.274109,8790,0.761840,-0.225428,-0.325380,0.026596,0.013347,1.002910
2011-09-26T14:02:31.284109,8800,0.828821,-0.232695,-0.329301,0.025412,0.014484,1.003125
2011-09-26T14:02:31.294109,8810,0.895802,-0.239962,-0.333223,0.024228,0.015621,1.003339
2011-09-26T14:02:31.304109,8820,0.962782,-0.247229,-0.337145,0.023044,0.016757,1.003554
2011-09-26T14:02:31.314109,8830,1.029763,-0.254496,-0.341066,0.021860,0.017894,1.003769
2011-09-26T14:02:31.324109,8840,1.096744,-0.261763,-0.344988,0.020676,0.019031,1.003984
2011-09-26T14:02:31.334109,8850,1.163725,-0.269030,-0.348909,0.019492,0.020167,1.004198
2011-09-26T14:02:31.344109,8860,1.230705,-0.276297,-0.352831,0.018308,0.021304,1.004413
2011-09-26T14:02:31.354109,8870,1.297686,-0.283565,-0.356752,0.017124,0.022441,1.004628
2011-09-26T14:02:31.364109,8880,1.364667,-0.290832,-0.360674,0.015940,0.023577,1.004843
2011-09-26T14:02:31.374109,8890,1.206762,-0.277158,-0.348520,0.014054,0.026978,1.003512
2011-09-26T14:02:31.384109,8900,1.040308,-0.262688,-0.335754,0.012140,0.030464,1.002122
2011-09-26T14:02:31.394109,8910,0.873855,-0.248218,-0.322989,0.010227,0.033950,1.000732
2011-09-26T14:02:31.404109,8920,0.707401,-0.233748,-0.310224,0.008314,0.037436,0.999343
2011-09-26T14:02:31.414109,8930,0.540947,-0.219278,-0.297459,0.006401,0.040922,0.997953
2011-09-26T14:02:31.424109,8940,0.374494,-0.204808,-0.284693,0.004487,0.044408,0.996564
2011-09-26T14:02:31.434109,8950,0.208040,-0.190338,-0.271928,0.002574,0.047894,0.995174
2011-09-26T14:02:31.444109,8960,0.041587,-0.175868,-0.259163,0.000661,0.051380,0.993784
2011-09-26T14:02:31.454109,8970,-0.124867,-0.161398,-0.246398,-0.001252,0.054866,0.992395
2011-09-26T14:02:31.464109,8980,-0.291321,-0.146928,-0.233632,-0.003165,0.058353,0.991005
2011-09-26T14:02:31.474109,8990,-0.296048,-0.192251,-0.238349,-0.003396,0.055259,0.993998
2011-09-26T14:02:31.484109,9000,-0.294474,-0.239904,-0.243747,-0.003560,0.051909,0.997162
2011-09-26T14:02:31.494109,9010,-0.292900,-0.287556,-0.249145,-0.003725,0.048560,1.000325
2011-09-26T14:02:31.504109,9020,-0.291326,-0.335209,-0.254542,-0.003890,0.045210,1.003489
2011-09-26T14:02:31.514109,9030,-0.289752,-0.382861,-0.259940,-0.004054,0.041860,1.006653
2011-09-26T14:02:31.524109,9040,-0.288178,-0.430514,-0.265338,-0.004219,0.038510,1.009816
2011-09-26T14:02:31.534109,9050,-0.286604,-0.478166,-0.270736,-0.004384,0.035160,1.012980
2011-09-26T14:02:31.544109,9060,-0.285030,-0.525819,-0.276134,-0.004549,0.031811,1.016144
2011-09-26T14:02:31.554109,9070,-0.283456,-0.573471,-0.281532,-0.004713,0.028461,1.019307
2011-09-26T14:02:31.564109,9080,-0.281882,-0.621123,-0.286929,-0.004878,0.025111,1.022471
2011-09-26T14:02:31.574109,9090,-0.119466,-0.552459,-0.269452,-0.004898,0.024780,1.022387
2011-09-26T14:02:31.584109,9100,0.051901,-0.477323,-0.250701,-0.004910,0.024618,1.022123
2011-09-26T14:02:31.594109,9110,0.223267,-0.402187,-0.231950,-0.004922,0.024455,1.021859
2011-09-26T14:02:31.604109,9120,0.394633,-0.327050,-0.213200,-0.004935,0.024293,1.021595
2011-09-26T14:02:31.614109,9130,0.565999,-0.251914,-0.194449,-0.004947,0.024130,1.021331
2011-09-26T14:02:31.624109,9140,0.737365,-0.176778,-0.175698,-0.004959,0.023968,1.021066
2011-09-26T14:02:31.634109,9150,0.908731,-0.101641,-0.156948,-0.004971,0.023805,1.020802
2011-09-26T14:02:31.644109,9160,1.080097,-0.026505,-0.138197,-0.004983,0.023643,1.020538
2011-09-26T14:02:31.654109,9170,1.251463,0.048631,-0.119447,-0.004995,0.023480,1.020274
2011-09-26T14:02:31.664109,9180,1.422829,0.123768,-0.100696,-0.005007,0.023317,1.020010
2011-09-26T14:02:31.674109,9190,1.594195,0.198904,-0.081945,-0.005020,0.023155,1.019746
2011-09-26T14:02:31.684109,9200,1.467165,0.331288,-0.079363,-0.004957,0.026052,1.020346
2011-09-26T14:02:31.694109,9210,1.327767,0.466045,-0.077450,-0.004892,0.029076,1.020983
2011-09-26T14:02:31.704109,9220,1.188370,0.600802,-0.075537,-0.004827,0.032100,1.021620
2011-09-26T14:02:31.714109,9230,1.048973,0.735558,-0.073624,-0.004761,0.035124,1.022256
2011-09-26T14:02:31.724109,9240,0.909576,0.870315,-0.071712,-0.004696,0.038148,1.022893
2011-09-26T14:02:31.734109,9250,0.770179,1.005072,-0.069799,-0.004631,0.041172,1.023530
2011-09-26T14:02:31.744109,9260,0.630781,1.139828,-0.067886,-0.004565,0.044196,1.024166
2011-09-26T14:02:31.754109,9270,0.491384,1.274585,-0.065974,-0.004500,0.047220,1.024803
2011-09-26T14:02:31.764109,9280,0.351987,1.409342,-0.064061,-0.004435,0.050244,1.025440
2011-09-26T14:02:31.774109,9290,0.212590,1.544098,-0.062148,-0.004369,0.053268,1.026076
2011-09-26T14:02:31.784109,9300,0.182229,1.511730,-0.069961,-0.006636,0.054716,1.025141
2011-09-26T14:02:31.794109,9310,0.156600,1.472107,-0.078195,-0.009005,0.056095,1.024138
2011-09-26T14:02:31.804109,9320,0.130972,1.432485,-0.086430,-0.011373,0.057474,1.023135
2011-09-26T14:02:31.814109,9330,0.105344,1.392862,-0.094664,-0.013741,0.058853,1.022131
2011-09-26T14:02:31.824109,9340,0.079716,1.353239,-0.102898,-0.016110,0.060233,1.021128
2011-09-26T14:02:31.834109,9350,0.054088,1.313616,-0.111133,-0.018478,0.061612,1.020125
2011-09-26T14:02:31.844109,9360,0.028460,1.273994,-0.119367,-0.020846,0.062991,1.019122
2011-09-26T14:02:31.854109,9370,0.002832,1.234371,-0.127602,-0.023215,0.064370,1.018118
2011-09-26T14:02:31.864109,9380,-0.022796,1.194748,-0.135836,-0.025583,0.065749,1.017115
2011-09-26T14:02:31.874109,9390,-0.048425,1.155125,-0.144071,-0.027952,0.067129,1.016112
2011-09-26T14:02:31.884109,9400,-0.074053,1.115503,-0.152305,-0.030320,0.068508,1.015109
2011-09-26T14:02:31.894109,9410,-0.023753,1.046044,-0.095602,-0.029678,0.063481,1.011173
2011-09-26T14:02:31.904109,9420,0.029845,0.975288,-0.036078,-0.028906,0.058176,1.007109
2011-09-26T14:02:31.914109,9430,0.083443,0.904533,0.023446,-0.028134,0.052871,1.003046
2011-09-26T14:02:31.924109,9440,0.137040,0.833778,0.082970,-0.027362,0.047566,0.998983
2011-09-26T14:02:31.934109,9450,0.190638,0.763023,0.142494,-0.026590,0.042260,0.994919
2011-09-26T14:02:31.944109,9460,0.244236,0.692268,0.202018,-0.025818,0.036955,0.990856
2011-09-26T14:02:31.954109,9470,0.297834,0.621513,0.261542,-0.025046,0.031650,0.986793
2011-09-26T14:02:31.964109,9480,0.351431,0.550758,0.321066,-0.024273,0.026345,0.982729
2011-09-26T14:02:31.974109,9490,0.405029,0.480003,0.380590,-0.023501,0.021040,0.978666
2011-09-26T14:02:31.984109,9500,0.458627,0.409248,0.440114,-0.022729,0.015735,0.974603
2011-09-26T14:02:31.994109,9510,0.496113,0.404806,0.463095,-0.023335,0.016856,0.976181
2011-09-26T14:02:32.004109,9520,0.532917,0.403169,0.484530,-0.023998,0.018250,0.977999
2011-09-26T14:02:32.014109,9530,0.569722,0.401533,0.505965,-0.024662,0.019644,0.979816
2011-09-26T14:02:32.024109,9540,0.606526,0.399897,0.527400,-0.025326,0.021037,0.981633
2011-09-26T14:02:32.034109,9550,0.643330,0.398261,0.548835,-0.025990,0.022431,0.983450
2011-09-26T14:02:32.044109,9560,0.680135,0.396625,0.570270,-0.026654,0.023824,0.985268
2011-09-26T14:02:32.054109,9570,0.716939,0.394989,0.591705,-0.027317,0.025218,0.987085
2011-09-26T14:02:32.064109,9580,0.753743,0.393353,0.613140,-0.027981,0.026612,0.988902
2011-09-26T14:02:32.074109,9590,0.790548,0.391717,0.634575,-0.028645,0.028005,0.990719
2011-09-26T14:02:32.084109,9600,0.827352,0.390081,0.656009,-0.029309,0.029399,0.992537
2011-09-26T14:02:32.094109,9610,0.864156,0.388445,0.677444,-0.029972,0.030792,0.994354
2011-09-26T14:02:32.104109,9620,0.900961,0.386809,0.698879,-0.030636,0.032186,0.996171
2011-09-26T14:02:32.114109,9630,0.937765,0.385173,0.720314,-0.031300,0.033580,0.997988
2011-09-26T14:02:32.124109,9640,0.974569,0.383537,0.741749,-0.031964,0.034973,0.999806
2011-09-26T14:02:32.134109,9650,1.011373,0.381900,0.763183,-0.032628,0.036367,1.001623
2011-09-26T14:02:32.144109,9660,1.048177,0.380264,0.784618,-0.033291,0.037760,1.003440
2011-09-26T14:02:32.154109,9670,1.084981,0.378628,0.806053,-0.033955,0.039154,1.005257
2011-09-26T14:02:32.164109,9680,1.121785,0.376992,0.827488,-0.034619,0.040548,1.007074
2011-09-26T14:02:32.174109,9690,1.158589,0.375356,0.848922,-0.035283,0.041941,1.008892
2011-09-26T14:02:32.184109,9700,1.195393,0.373720,0.870357,-0.035946,0.043335,1.010709
2011-09-26T14:02:32.194109,9710,1.232197,0.372084,0.891792,-0.036610,0.044728,1.012526
2011-09-26T14:02:32.204109,9720,1.269001,0.370448,0.913227,-0.037274,0.046122,1.014343
2011-09-26T14:02:32.214109,9730,1.305805,0.368812,0.934661,-0.037938,0.047516,1.016161
2011-09-26T14:02:32.224109,9740,1.186107,0.424654,0.956642,-0.036477,0.047483,1.019424
2011-09-26T14:02:32.234109,9750,1.060109,0.482810,0.978644,-0.034930,0.047394,1.022746
2011-09-26T14:02:32.244109,9760,0.934111,0.540966,1.000646,-0.033383,0.047304,1.026067
2011-09-26T14:02:32.254109,9770,0.808113,0.599121,1.022649,-0.031837,0.047214,1.029389
2011-09-26T14:02:32.264109,9780,0.682116,0.657277,1.044651,-0.030290,0.047124,1.032711
2011-09-26T14:02:32.274109,9790,0.556118,0.715433,1.066653,-0.028743,0.047035,1.036032
2011-09-26T14:02:32.284109,9800,0.430120,0.773589,1.088656,-0.027197,0.046945,1.039354
2011-09-26T14:02:32.294109,9810,0.304122,0.831744,1.110658,-0.025650,0.046855,1.042675
2011-09-26T14:02:32.304109,9820,0.266370,0.811058,1.101057,-0.027982,0.054253,1.034800
2011-09-26T14:02:32.314109,9830,0.232622,0.786793,1.090022,-0.030489,0.061991,1.026416
2011-09-26T14:02:32.324109,9840,0.198874,0.762529,1.078987,-0.032996,0.069728,1.018032
2011-09-26T14:02:32.334109,9850,0.165127,0.738265,1.067952,-0.035504,0.077466,1.009649
2011-09-26T14:02:32.344109,9860,0.131379,0.714000,1.056917,-0.038011,0.085203,1.001265
2011-09-26T14:02:32.354109,9870,0.097631,0.689736,1.045882,-0.040518,0.092941,0.992881
2011-09-26T14:02:32.364109,9880,0.063883,0.665471,1.034847,-0.043026,0.100678,0.984497
2011-09-26T14:02:32.374109,9890,0.030136,0.641207,1.023812,-0.045533,0.108416,0.976113
2011-09-26T14:02:32.384109,9900,-0.003612,0.616943,1.012777,-0.048040,0.116153,0.967730
2011-09-26T14:02:32.394109,9910,-0.037360,0.592678,1.001742,-0.050548,0.123891,0.959346
2011-09-26T14:02:32.404109,9920,0.018850,0.554839,1.013096,-0.048892,0.115847,0.965877
2011-09-26T14:02:32.414109,9930,0.079132,0.516385,1.025464,-0.047047,0.107089,0.973084
2011-09-26T14:02:32.424109,9940,0.139414,0.477930,1.037831,-0.045203,0.098330,0.980291
2011-09-26T14:02:32.434109,9950,0.199696,0.439476,1.050199,-0.043358,0.089572,0.987498
2011-09-26T14:02:32.444109,9960,0.259979,0.401022,1.062566,-0.041514,0.080814,0.994704
2011-09-26T14:02:32.454109,9970,0.320261,0.362568,1.074934,-0.039669,0.072056,1.001911
2011-09-26T14:02:32.464109,9980,0.380543,0.324114,1.087301,-0.037824,0.063297,1.009118
2011-09-26T14:02:32.474109,9990,0.440825,0.285660,1.099669,-0.035980,0.054539,1.016324
2011-09-26T14:02:32.484109,10000,0.501107,0.247206,1.112036,-0.034135,0.045781,1.023531
2011-09-26T14:02:32.494109,10010,0.561390,0.208752,1.124404,-0.032291,0.037023,1.030738
2011-09-26T14:02:32.504109,10020,0.574721,0.228675,1.123105,-0.032426,0.040153,1.023320
2011-09-26T14:02:32.514109,10030,0.585701,0.251523,1.121122,-0.032661,0.043880,1.015170
2011-09-26T14:02:32.524109,10040,0.596681,0.274370,1.119138,-0.032895,0.047606,1.007020
2011-09-26T14:02:32.534109,10050,0.607661,0.297218,1.117155,-0.033130,0.051332,0.998869
2011-09-26T14:02:32.544109,10060,0.618641,0.320065,1.115172,-0.033364,0.055059,0.990719
2011-09-26T14:02:32.554109,10070,0.629621,0.342913,1.113188,-0.033599,0.058785,0.982569
2011-09-26T14:02:32.564109,10080,0.640601,0.365760,1.111205,-0.033833,0.062511,0.974419
2011-09-26T14:02:32.574109,10090,0.651581,0.388608,1.109222,-0.034067,0.066237,0.966268
2011-09-26T14:02:32.584109,10100,0.662561,0.411455,1.107239,-0.034302,0.069964,0.958118
2011-09-26T14:02:32.594109,10110,0.673541,0.434303,1.105255,-0.034536,0.073690,0.949968
2011-09-26T14:02:32.604109,10120,0.684521,0.457150,1.103272,-0.034771,0.077416,0.941818
2011-09-26T14:02:32.614109,10130,0.598247,0.285659,1.107415,-0.035110,0.078014,0.952244
2011-09-26T14:02:32.624109,10140,0.507176,0.104583,1.111861,-0.035454,0.078458,0.963586
2011-09-26T14:02:32.634109,10150,0.416106,-0.076492,1.116306,-0.035798,0.078902,0.974928
2011-09-26T14:02:32.644109,10160,0.325036,-0.257568,1.120752,-0.036142,0.079346,0.986270
2011-09-26T14:02:32.654109,10170,0.233966,-0.438643,1.125197,-0.036486,0.079790,0.997612
2011-09-26T14:02:32.664109,10180,0.142896,-0.619718,1.129642,-0.036831,0.080234,1.008954
2011-09-26T14:02:32.674109,10190,0.051826,-0.800794,1.134088,-0.037175,0.080678,1.020296
2011-09-26T14:02:32.684109,10200,-0.039244,-0.981869,1.138533,-0.037519,0.081122,1.031638
2011-09-26T14:02:32.694109,10210,-0.130314,-1.162944,1.142979,-0.037863,0.081566,1.042980
2011-09-26T14:02:32.704109,10220,-0.221385,-1.344020,1.147424,-0.038207,0.082010,1.054322
2011-09-26T14:02:32.714109,10230,-0.426771,-1.309248,1.141349,-0.035900,0.078667,1.053520
2011-09-26T14:02:32.724109,10240,-0.637685,-1.264040,1.134765,-0.033466,0.075140,1.052130
2011-09-26T14:02:32.734109,10250,-0.848599,-1.218833,1.128181,-0.031031,0.071613,1.050741
2011-09-26T14:02:32.744109,10260,-1.059513,-1.173625,1.121597,-0.028596,0.068087,1.049351
2011-09-26T14:02:32.754109,10270,-1.270427,-1.128418,1.115014,-0.026161,0.064560,1.047961
2011-09-26T14:02:32.764109,10280,-1.481341,-1.083210,1.108430,-0.023727,0.061033,1.046572
2011-09-26T14:02:32.774109,10290,-1.692255,-1.038002,1.101846,-0.021292,0.057506,1.045182
2011-09-26T14:02:32.784109,10300,-1.903169,-0.992795,1.095262,-0.018857,0.053980,1.043792
2011-09-26T14:02:32.794109,10310,-2.114083,-0.947587,1.088679,-0.016423,0.050453,1.042403
2011-09-26T14:02:32.804109,10320,-2.324996,-0.902380,1.082095,-0.013988,0.046926,1.041013
2011-09-26T14:02:32.814109,10330,-2.078514,-0.937563,1.076869,-0.015607,0.041109,1.035062
2011-09-26T14:02:32.824109,10340,-1.813063,-0.976080,1.071699,-0.017394,0.035197,1.028923
2011-09-26T14:02:32.834109,10350,-1.547612,-1.014597,1.066529,-0.019181,0.029285,1.022783
2011-09-26T14:02:32.844109,10360,-1.282161,-1.053114,1.061359,-0.020968,0.023372,1.016644
2011-09-26T14:02:32.854109,10370,-1.016710,-1.091631,1.056189,-0.022755,0.017460,1.010504
2011-09-26T14:02:32.864109,10380,-0.751259,-1.130148,1.051019,-0.024541,0.011548,1.004364
2011-09-26T14:02:32.874109,10390,-0.485807,-1.168665,1.045850,-0.026328,0.005636,0.998225
2011-09-26T14:02:32.884109,10400,-0.220356,-1.207182,1.040680,-0.028115,-0.000277,0.992085
2011-09-26T14:02:32.894109,10410,0.045095,-1.245699,1.035510,-0.029902,-0.006189,0.985946
2011-09-26T14:02:32.904109,10420,0.310546,-1.284215,1.030340,-0.031689,-0.012101,0.979806
2011-09-26T14:02:32.914109,10430,0.575997,-1.322732,1.025170,-0.033476,-0.018014,0.973666
2011-09-26T14:02:32.924109,10440,0.619928,-1.318252,1.023471,-0.033845,-0.004779,0.979985
2011-09-26T14:02:32.934109,10450,0.652738,-1.311612,1.021947,-0.034143,0.009416,0.986929
2011-09-26T14:02:32.944109,10460,0.685548,-1.304973,1.020422,-0.034440,0.023612,0.993873
2011-09-26T14:02:32.954109,10470,0.718357,-1.298333,1.018897,-0.034738,0.037807,1.000817
2011-09-26T14:02:32.964109,10480,0.751167,-1.291694,1.017373,-0.035035,0.052003,1.007761
2011-09-26T14:02:32.974109,10490,0.783977,-1.285055,1.015848,-0.035333,0.066199,1.014705
2011-09-26T14:02:32.984109,10500,0.816787,-1.278415,1.014324,-0.035630,0.080394,1.021649
2011-09-26T14:02:32.994109,10510,0.849597,-1.271776,1.012799,-0.035928,0.094590,1.028593
2011-09-26T14:02:33.004109,10520,0.882407,-1.265136,1.011274,-0.036226,0.108785,1.035537
2011-09-26T14:02:33.014109,10530,0.915217,-1.258497,1.009750,-0.036523,0.122981,1.042481
2011-09-26T14:02:33.024109,10540,0.756082,-1.103393,0.916441,-0.035420,0.116177,1.043638
2011-09-26T14:02:33.034109,10550,0.586839,-0.940471,0.818300,-0.034242,0.108267,1.044491
2011-09-26T14:02:33.044109,10560,0.417596,-0.777549,0.720158,-0.033065,0.100357,1.045343
2011-09-26T14:02:33.054109,10570,0.248352,-0.614627,0.622017,-0.031888,0.092447,1.046196
2011-09-26T14:02:33.064109,10580,0.079109,-0.451706,0.523875,-0.030710,0.084537,1.047049
2011-09-26T14:02:33.074109,10590,-0.090134,-0.288784,0.425734,-0.029533,0.076627,1.047901
2011-09-26T14:02:33.084109,10600,-0.259377,-0.125862,0.327592,-0.028356,0.068717,1.048754
2011-09-26T14:02:33.094109,10610,-0.428620,0.037060,0.229451,-0.027178,0.060807,1.049607
2011-09-26T14:02:33.104109,10620,-0.597863,0.199982,0.131309,-0.026001,0.052897,1.050459
2011-09-26T14:02:33.114109,10630,-0.767106,0.362904,0.033168,-0.024824,0.044987,1.051312
2011-09-26T14:02:33.124109,10640,-0.708269,0.560104,0.093936,-0.028166,0.037660,1.045237
2011-09-26T14:02:33.134109,10650,-0.637551,0.759090,0.162982,-0.031743,0.030364,1.038802
2011-09-26T14:02:33.144109,10660,-0.566833,0.958076,0.232029,-0.035321,0.023067,1.032366
2011-09-26T14:02:33.154109,10670,-0.496115,1.157062,0.301075,-0.038898,0.015771,1.025930
2011-09-26T14:02:33.164109,10680,-0.425397,1.356048,0.370121,-0.042476,0.008474,1.019495
2011-09-26T14:02:33.174109,10690,-0.354679,1.555034,0.439167,-0.046053,0.001178,1.013059
2011-09-26T14:02:33.184109,10700,-0.283961,1.754020,0.508214,-0.049631,-0.006119,1.006623
2011-09-26T14:02:33.194109,10710,-0.213242,1.953006,0.577260,-0.053208,-0.013415,1.000187
2011-09-26T14:02:33.204109,10720,-0.142524,2.151992,0.646306,-0.056786,-0.020712,0.993752
2011-09-26T14:02:33.214109,10730,-0.071806,2.350978,0.715352,-0.060363,-0.028008,0.987316
2011-09-26T14:02:33.224109,10740,-0.001088,2.549964,0.784398,-0.063941,-0.035305,0.980880
2011-09-26T14:02:33.234109,10750,-0.004260,2.478490,0.804492,-0.062786,-0.028800,0.975693
2011-09-26T14:02:33.244109,10760,-0.010599,2.395420,0.822486,-0.061428,-0.021704,0.970559
2011-09-26T14:02:33.254109,10770,-0.016939,2.312350,0.840481,-0.060070,-0.014608,0.965425
2011-09-26T14:02:33.264109,10780,-0.023278,2.229279,0.858475,-0.058712,-0.007512,0.960290
2011-09-26T14:02:33.274109,10790,-0.029618,2.146209,0.876470,-0.057354,-0.000416,0.955156
2011-09-26T14:02:33.284109,10800,-0.035958,2.063139,0.894464,-0.055996,0.006680,0.950022
2011-09-26T14:02:33.294109,10810,-0.042297,1.980069,0.912458,-0.054638,0.013776,0.944888
2011-09-26T14:02:33.304109,10820,-0.048637,1.896999,0.930453,-0.053280,0.020872,0.939754
2011-09-26T14:02:33.314109,10830,-0.054976,1.813929,0.948447,-0.051922,0.027968,0.934620
2011-09-26T14:02:33.324109,10840,-0.061316,1.730859,0.966442,-0.050564,0.035064,0.929486
2011-09-26T14:02:33.334109,10850,-0.060753,1.530875,0.933854,-0.049269,0.037800,0.935710
2011-09-26T14:02:33.344109,10860,-0.059808,1.324428,0.898469,-0.047979,0.040295,0.942562
2011-09-26T14:02:33.354109,10870,-0.058863,1.117981,0.863084,-0.046688,0.042790,0.949415
2011-09-26T14:02:33.364109,10880,-0.057919,0.911533,0.827699,-0.045397,0.045285,0.956267
2011-09-26T14:02:33.374109,10890,-0.056974,0.705086,0.792314,-0.044107,0.047780,0.963119
2011-09-26T14:02:33.384109,10900,-0.056030,0.498639,0.756929,-0.042816,0.050274,0.969971
2011-09-26T14:02:33.394109,10910,-0.055085,0.292191,0.721545,-0.041525,0.052769,0.976824
2011-09-26T14:02:33.404109,10920,-0.054140,0.085744,0.686160,-0.040235,0.055264,0.983676
2011-09-26T14:02:33.414109,10930,-0.053196,-0.120703,0.650775,-0.038944,0.057759,0.990528
2011-09-26T14:02:33.424109,10940,-0.052251,-0.327151,0.615390,-0.037653,0.060254,0.997380
2011-09-26T14:02:33.434109,10950,-0.099135,-0.297901,0.576758,-0.037569,0.059307,0.996862
2011-09-26T14:02:33.444109,10960,-0.148612,-0.255876,0.537951,-0.037550,0.058174,0.995944
2011-09-26T14:02:33.454109,10970,-0.198089,-0.213850,0.499143,-0.037531,0.057040,0.995026
2011-09-26T14:02:33.464109,10980,-0.247566,-0.171825,0.460335,-0.037512,0.055907,0.994108
2011-09-26T14:02:33.474109,10990,-0.297043,-0.129800,0.421528,-0.037493,0.054774,0.993190
2011-09-26T14:02:33.484109,11000,-0.346520,-0.087775,0.382720,-0.037473,0.053640,0.992272
2011-09-26T14:02:33.494109,11010,-0.395997,-0.045749,0.343913,-0.037454,0.052507,0.991354
2011-09-26T14:02:33.504109,11020,-0.445474,-0.003724,0.305105,-0.037435,0.051374,0.990436
2011-09-26T14:02:33.514109,11030,-0.494951,0.038301,0.266297,-0.037416,0.050240,0.989518
2011-09-26T14:02:33.524109,11040,-0.544428,0.080326,0.227490,-0.037397,0.049107,0.988600
2011-09-26T14:02:33.534109,11050,-0.593905,0.122352,0.188682,-0.037378,0.047974,0.987682
2011-09-26T14:02:33.544109,11060,-0.659007,0.028786,0.185996,-0.037808,0.048452,0.986947
2011-09-26T14:02:33.554109,11070,-0.725240,-0.074598,0.185925,-0.038271,0.049047,0.986226
2011-09-26T14:02:33.564109,11080,-0.791474,-0.177983,0.185855,-0.038733,0.049643,0.985505
2011-09-26T14:02:33.574109,11090,-0.857707,-0.281368,0.185784,-0.039196,0.050238,0.984784
2011-09-26T14:02:33.584109,11100,-0.923941,-0.384753,0.185714,-0.039658,0.050833,0.984063
2011-09-26T14:02:33.594109,11110,-0.990174,-0.488138,0.185643,-0.040121,0.051428,0.983342
2011-09-26T14:02:33.604109,11120,-1.056408,-0.591523,0.185573,-0.040584,0.052023,0.982620
2011-09-26T14:02:33.614109,11130,-1.122641,-0.694907,0.185502,-0.041046,0.052619,0.981899
2011-09-26T14:02:33.624109,11140,-1.188875,-0.798292,0.185432,-0.041509,0.053214,0.981178
2011-09-26T14:02:33.634109,11150,-1.255108,-0.901677,0.185361,-0.041972,0.053809,0.980457
2011-09-26T14:02:33.644109,11160,-1.383402,-0.788249,0.142734,-0.043007,0.054909,0.986230
2011-09-26T14:02:33.654109,11170,-1.515234,-0.662462,0.097680,-0.044076,0.056038,0.992374
2011-09-26T14:02:33.664109,11180,-1.647066,-0.536675,0.052627,-0.045144,0.057167,0.998518
2011-09-26T14:02:33.674109,11190,-1.778898,-0.410887,0.007573,-0.046213,0.058296,1.004662
2011-09-26T14:02:33.684109,11200,-1.910730,-0.285100,-0.037480,-0.047281,0.059425,1.010806
2011-09-26T14:02:33.694109,11210,-2.042561,-0.159313,-0.082534,-0.048350,0.060554,1.016950
2011-09-26T14:02:33.704109,11220,-2.174393,-0.033526,-0.127587,-0.049418,0.061682,1.023094
2011-09-26T14:02:33.714109,11230,-2.306225,0.092261,-0.172641,-0.050487,0.062811,1.029238
2011-09-26T14:02:33.724109,11240,-2.438057,0.218049,-0.217694,-0.051555,0.063940,1.035381
2011-09-26T14:02:33.734109,11250,-2.569889,0.343836,-0.262748,-0.052624,0.065069,1.041525
2011-09-26T14:02:33.744109,11260,-2.515047,0.375264,-0.314378,-0.052775,0.063160,1.040876
2011-09-26T14:02:33.754109,11270,-2.450067,0.401568,-0.366367,-0.052876,0.061086,1.039858
2011-09-26T14:02:33.764109,11280,-2.385087,0.427872,-0.418355,-0.052977,0.059012,1.038840
2011-09-26T14:02:33.774109,11290,-2.320107,0.454176,-0.470343,-0.053078,0.056938,1.037822
2011-09-26T14:02:33.784109,11300,-2.255127,0.480480,-0.522331,-0.053179,0.054865,1.036804
2011-09-26T14:02:33.794109,11310,-2.190146,0.506784,-0.574319,-0.053280,0.052791,1.035786
2011-09-26T14:02:33.804109,11320,-2.125166,0.533088,-0.626307,-0.053381,0.050717,1.034767
2011-09-26T14:02:33.814109,11330,-2.060186,0.559392,-0.678295,-0.053482,0.048643,1.033749
2011-09-26T14:02:33.824109,11340,-1.995206,0.585696,-0.730284,-0.053583,0.046569,1.032731
2011-09-26T14:02:33.834109,11350,-1.930226,0.612000,-0.782272,-0.053684,0.044495,1.031713
2011-09-26T14:02:33.844109,11360,-1.865246,0.638303,-0.834260,-0.053786,0.042421,1.030695
2011-09-26T14:02:33.854109,11370,-1.736260,0.755112,-0.848398,-0.057035,0.035683,1.028614
2011-09-26T14:02:33.864109,11380,-1.603911,0.876676,-0.860548,-0.060449,0.028699,1.026477
2011-09-26T14:02:33.874109,11390,-1.471562,0.998241,-0.872697,-0.063863,0.021715,1.024339
2011-09-26T14:02:33.884109,11400,-1.339212,1.119805,-0.884846,-0.067278,0.014732,1.022202
2011-09-26T14:02:33.894109,11410,-1.206863,1.241369,-0.896996,-0.070692,0.007748,1.020065
2011-09-26T14:02:33.904109,11420,-1.074514,1.362934,-0.909145,-0.074106,0.000765,1.017928
2011-09-26T14:02:33.914109,11430,-0.942165,1.484498,-0.921295,-0.077521,-0.006219,1.015791
2011-09-26T14:02:33.924109,11440,-0.809815,1.606063,-0.933444,-0.080935,-0.013202,1.013654
2011-09-26T14:02:33.934109,11450,-0.677466,1.727627,-0.945593,-0.084350,-0.020186,1.011516
2011-09-26T14:02:33.944109,11460,-0.545117,1.849191,-0.957743,-0.087764,-0.027169,1.009379
2011-09-26T14:02:33.954109,11470,-0.532706,1.867625,-1.009366,-0.086005,-0.024493,1.007782
2011-09-26T14:02:33.964109,11480,-0.526197,1.880983,-1.062931,-0.083992,-0.021342,1.006212
2011-09-26T14:02:33.974109,11490,-0.519689,1.894342,-1.116496,-0.081979,-0.018191,1.004641
2011-09-26T14:02:33.984109,11500,-0.513180,1.907701,-1.170062,-0.079966,-0.015040,1.003070
2011-09-26T14:02:33.994109,11510,-0.506671,1.921059,-1.223627,-0.077953,-0.011888,1.001500
2011-09-26T14:02:34.004109,11520,-0.500162,1.934418,-1.277193,-0.075940,-0.008737,0.999929
2011-09-26T14:02:34.014109,11530,-0.493653,1.947777,-1.330758,-0.073927,-0.005586,0.998359
2011-09-26T14:02:34.024109,11540,-0.487145,1.961135,-1.384323,-0.071914,-0.002435,0.996788
2011-09-26T14:02:34.034109,11550,-0.480636,1.974494,-1.437889,-0.069901,0.000717,0.995218
2011-09-26T14:02:34.044109,11560,-0.474127,1.987853,-1.491454,-0.067887,0.003868,0.993647
2011-09-26T14:02:34.054109,11570,-0.539651,1.956705,-1.592628,-0.068959,0.005752,0.994422
2011-09-26T14:02:34.064109,11580,-0.610915,1.922010,-1.697596,-0.070275,0.007535,0.995383
2011-09-26T14:02:34.074109,11590,-0.682180,1.887315,-1.802563,-0.071592,0.009318,0.996344
2011-09-26T14:02:34.084109,11600,-0.753444,1.852620,-1.907531,-0.072909,0.011101,0.997306
2011-09-26T14:02:34.094109,11610,-0.824708,1.817926,-2.012498,-0.074226,0.012884,0.998267
2011-09-26T14:02:34.104109,11620,-0.895972,1.783231,-2.117466,-0.075542,0.014668,0.999229
2011-09-26T14:02:34.114109,11630,-0.967236,1.748536,-2.222434,-0.076859,0.016451,1.000190
2011-09-26T14:02:34.124109,11640,-1.038501,1.713842,-2.327401,-0.078176,0.018234,1.001151
2011-09-26T14:02:34.134109,11650,-1.109765,1.679147,-2.432369,-0.079493,0.020017,1.002113
2011-09-26T14:02:34.144109,11660,-1.181029,1.644452,-2.537336,-0.080810,0.021800,1.003074
2011-09-26T14:02:34.154109,11670,-1.252293,1.609757,-2.642304,-0.082126,0.023583,1.004036
2011-09-26T14:02:34.164109,11680,-1.204709,1.463826,-2.701065,-0.083894,0.015157,0.999215
2011-09-26T14:02:34.174109,11690,-1.150947,1.312112,-2.757423,-0.085685,0.006201,0.994095
2011-09-26T14:02:34.184109,11700,-1.097186,1.160398,-2.813782,-0.087477,-0.002756,0.988974
2011-09-26T14:02:34.194109,11710,-1.043424,1.008684,-2.870140,-0.089268,-0.011713,0.983853
2011-09-26T14:02:34.204109,11720,-0.989662,0.856970,-2.926499,-0.091059,-0.020669,0.978732
2011-09-26T14:02:34.214109,11730,-0.935900,0.705256,-2.982857,-0.092850,-0.029626,0.973612
2011-09-26T14:02:34.224109,11740,-0.882138,0.553542,-3.039216,-0.094642,-0.038582,0.968491
2011-09-26T14:02:34.234109,11750,-0.828376,0.401828,-3.095574,-0.096433,-0.047539,0.963370
2011-09-26T14:02:34.244109,11760,-0.774614,0.250114,-3.151933,-0.098224,-0.056496,0.958250
2011-09-26T14:02:34.254109,11770,-0.720852,0.098400,-3.208291,-0.100015,-0.065452,0.953129
2011-09-26T14:02:34.264109,11780,-0.635887,-0.006538,-3.231055,-0.101090,-0.061638,0.956942
2011-09-26T14:02:34.274109,11790,-0.549481,-0.109318,-3.252268,-0.102131,-0.057234,0.961167
2011-09-26T14:02:34.284109,11800,-0.463076,-0.212098,-3.273481,-0.103173,-0.052830,0.965393
2011-09-26T14:02:34.294109,11810,-0.376670,-0.314877,-3.294694,-0.104214,-0.048426,0.969618
2011-09-26T14:02:34.304109,11820,-0.290265,-0.417657,-3.315907,-0.105256,-0.044022,0.973843
2011-09-26T14:02:34.314109,11830,-0.203859,-0.520437,-3.337119,-0.106297,-0.039618,0.978069
2011-09-26T14:02:34.324109,11840,-0.117454,-0.623217,-3.358332,-0.107339,-0.035214,0.982294
2011-09-26T14:02:34.334109,11850,-0.031048,-0.725996,-3.379545,-0.108380,-0.030810,0.986519
2011-09-26T14:02:34.344109,11860,0.055357,-0.828776,-3.400758,-0.109422,-0.026406,0.990745
2011-09-26T14:02:34.354109,11870,0.141763,-0.931556,-3.421971,-0.110463,-0.022002,0.994970
2011-09-26T14:02:34.364109,11880,0.196193,-1.042478,-3.496501,-0.112554,-0.023353,0.994378
2011-09-26T14:02:34.374109,11890,0.248890,-1.153842,-3.573921,-0.114702,-0.025015,0.993526
2011-09-26T14:02:34.384109,11900,0.301587,-1.265206,-3.651342,-0.116850,-0.026678,0.992673
2011-09-26T14:02:34.394109,11910,0.354284,-1.376570,-3.728762,-0.118998,-0.028340,0.991820
2011-09-26T14:02:34.404109,11920,0.406981,-1.487934,-3.806182,-0.121146,-0.030002,0.990968
2011-09-26T14:02:34.414109,11930,0.459678,-1.599297,-3.883602,-0.123294,-0.031665,0.990115
2011-09-26T14:02:34.424109,11940,0.512375,-1.710661,-3.961022,-0.125442,-0.033327,0.989262
2011-09-26T14:02:34.434109,11950,0.565072,-1.822025,-4.038442,-0.127590,-0.034989,0.988410
2011-09-26T14:02:34.444109,11960,0.617770,-1.933389,-4.115862,-0.129738,-0.036652,0.987557
2011-09-26T14:02:34.454109,11970,0.670467,-2.044753,-4.193283,-0.131886,-0.038314,0.986704
2011-09-26T14:02:34.464109,11980,0.723164,-2.156116,-4.270703,-0.134034,-0.039976,0.985852
2011-09-26T14:02:34.474109,11990,0.685358,-2.219608,-4.338502,-0.136295,-0.037163,0.987486
2011-09-26T14:02:34.484109,12000,0.642141,-2.280238,-4.405726,-0.138563,-0.034083,0.989269
2011-09-26T14:02:34.494109,12010,0.598924,-2.340868,-4.472950,-0.140831,-0.031002,0.991053
2011-09-26T14:02:34.504109,12020,0.555707,-2.401497,-4.540174,-0.143099,-0.027922,0.992836
2011-09-26T14:02:34.514109,12030,0.512490,-2.462127,-4.607398,-0.145367,-0.024842,0.994619
2011-09-26T14:02:34.524109,12040,0.469273,-2.522756,-4.674622,-0.147635,-0.021761,0.996402
2011-09-26T14:02:34.534109,12050,0.426056,-2.583386,-4.741845,-0.149903,-0.018681,0.998185
2011-09-26T14:02:34.544109,12060,0.382839,-2.644016,-4.809069,-0.152171,-0.015600,0.999968
2011-09-26T14:02:34.554109,12070,0.339622,-2.704645,-4.876293,-0.154439,-0.012520,1.001751
2011-09-26T14:02:34.564109,12080,0.296405,-2.765275,-4.943517,-0.156707,-0.009439,1.003535
2011-09-26T14:02:34.574109,12090,0.203535,-2.742695,-5.007373,-0.153082,-0.008308,1.003573
2011-09-26T14:02:34.584109,12100,0.107823,-2.715353,-5.071037,-0.149119,-0.007289,1.003512
2011-09-26T14:02:34.594109,12110,0.012112,-2.688012,-5.134700,-0.145156,-0.006270,1.003451
2011-09-26T14:02:34.604109,12120,-0.083600,-2.660670,-5.198364,-0.141193,-0.005250,1.003389
2011-09-26T14:02:34.614109,12130,-0.179311,-2.633328,-5.262027,-0.137230,-0.004231,1.003328
2011-09-26T14:02:34.624109,12140,-0.275023,-2.605987,-5.325690,-0.133267,-0.003212,1.003267
2011-09-26T14:02:34.634109,12150,-0.370735,-2.578645,-5.389354,-0.129304,-0.002193,1.003206
2011-09-26T14:02:34.644109,12160,-0.466446,-2.551304,-5.453017,-0.125341,-0.001173,1.003144
2011-09-26T14:02:34.654109,12170,-0.562158,-2.523962,-5.516681,-0.121378,-0.000154,1.003083
2011-09-26T14:02:34.664109,12180,-0.657869,-2.496620,-5.580344,-0.117415,0.000865,1.003022
2011-09-26T14:02:34.674109,12190,-0.667916,-2.452011,-5.679401,-0.115185,0.000482,1.006433
2011-09-26T14:02:34.684109,12200,-0.673812,-2.406564,-5.780173,-0.113038,0.000030,1.010012
2011-09-26T14:02:34.694109,12210,-0.679708,-2.361118,-5.880944,-0.110892,-0.000421,1.013591
2011-09-26T14:02:34.704109,12220,-0.685604,-2.315671,-5.981716,-0.108745,-0.000872,1.017170
2011-09-26T14:02:34.714109,12230,-0.691500,-2.270224,-6.082488,-0.106598,-0.001324,1.020749
2011-09-26T14:02:34.724109,12240,-0.697396,-2.224778,-6.183260,-0.104452,-0.001775,1.024328
2011-09-26T14:02:34.734109,12250,-0.703292,-2.179331,-6.284032,-0.102305,-0.002226,1.027907
2011-09-26T14:02:34.744109,12260,-0.709188,-2.133885,-6.384803,-0.100159,-0.002678,1.031487
2011-09-26T14:02:34.754109,12270,-0.715084,-2.088438,-6.485575,-0.098012,-0.003129,1.035066
2011-09-26T14:02:34.764109,12280,-0.720980,-2.042992,-6.586347,-0.095865,-0.003580,1.038645
2011-09-26T14:02:34.774109,12290,-0.726876,-1.997545,-6.687119,-0.093719,-0.004032,1.042224
2011-09-26T14:02:34.784109,12300,-0.483120,-1.796398,-6.772628,-0.094806,-0.014192,1.054158
2011-09-26T14:02:34.794109,12310,-0.225581,-1.586656,-6.857295,-0.096072,-0.024888,1.066553
2011-09-26T14:02:34.804109,12320,0.031959,-1.376913,-6.941961,-0.097338,-0.035584,1.078948
2011-09-26T14:02:34.814109,12330,0.289498,-1.167171,-7.026628,-0.098604,-0.046279,1.091344
2011-09-26T14:02:34.824109,12340,0.547037,-0.957428,-7.111295,-0.099870,-0.056975,1.103739
2011-09-26T14:02:34.834109,12350,0.804576,-0.747686,-7.195961,-0.101136,-0.067671,1.116134
2011-09-26T14:02:34.844109,12360,1.062115,-0.537943,-7.280628,-0.102402,-0.078367,1.128529
2011-09-26T14:02:34.854109,12370,1.319655,-0.328201,-7.365295,-0.103668,-0.089063,1.140924
2011-09-26T14:02:34.864109,12380,1.577194,-0.118458,-7.449961,-0.104934,-0.099759,1.153320
2011-09-26T14:02:34.874109,12390,1.834733,0.091284,-7.534628,-0.106200,-0.110455,1.165715
2011-09-26T14:02:34.884109,12400,1.824385,0.294470,-7.523222,-0.103299,-0.108201,1.146706
2011-09-26T14:02:34.894109,12410,1.801122,0.497340,-7.507184,-0.100197,-0.105323,1.126183
2011-09-26T14:02:34.904109,12420,1.777859,0.700209,-7.491146,-0.097095,-0.102445,1.105660
2011-09-26T14:02:34.914109,12430,1.754595,0.903079,-7.475108,-0.093993,-0.099566,1.085136
2011-09-26T14:02:34.924109,12440,1.731332,1.105949,-7.459070,-0.090891,-0.096688,1.064613
2011-09-26T14:02:34.934109,12450,1.708069,1.308818,-7.443032,-0.087789,-0.093810,1.044090
2011-09-26T14:02:34.944109,12460,1.684805,1.511688,-7.426994,-0.084688,-0.090932,1.023567
2011-09-26T14:02:34.954109,12470,1.661542,1.714558,-7.410956,-0.081586,-0.088054,1.003044
2011-09-26T14:02:34.964109,12480,1.638278,1.917427,-7.394918,-0.078484,-0.085176,0.982521
2011-09-26T14:02:34.974109,12490,1.615015,2.120297,-7.378880,-0.075382,-0.082297,0.961998
2011-09-26T14:02:34.984109,12500,1.662335,2.136857,-7.441887,-0.077453,-0.071787,0.965402
2011-09-26T14:02:34.994109,12510,1.713552,2.143131,-7.509258,-0.079810,-0.060855,0.970126
2011-09-26T14:02:35.004109,12520,1.764769,2.149405,-7.576629,-0.082167,-0.049923,0.974851
2011-09-26T14:02:35.014109,12530,1.815987,2.155679,-7.644000,-0.084524,-0.038991,0.979575
2011-09-26T14:02:35.024109,12540,1.867204,2.161953,-7.711371,-0.086881,-0.028059,0.984300
2011-09-26T14:02:35.034109,12550,1.918421,2.168227,-7.778742,-0.089238,-0.017127,0.989024
2011-09-26T14:02:35.044109,12560,1.969638,2.174501,-7.846114,-0.091595,-0.006196,0.993749
2011-09-26T14:02:35.054109,12570,2.020855,2.180775,-7.913485,-0.093952,0.004736,0.998473
2011-09-26T14:02:35.064109,12580,2.072072,2.187049,-7.980856,-0.096309,0.015668,1.003198
2011-09-26T14:02:35.074109,12590,2.123289,2.193323,-8.048227,-0.098666,0.026600,1.007923
2011-09-26T14:02:35.084109,12600,2.174506,2.199597,-8.115598,-0.101023,0.037532,1.012647
2011-09-26T14:02:35.094109,12610,1.903371,2.139304,-8.163222,-0.099325,0.027741,1.004937
2011-09-26T14:02:35.104109,12620,1.609080,2.074229,-8.209427,-0.097335,0.016461,0.996333
2011-09-26T14:02:35.114109,12630,1.314790,2.009155,-8.255632,-0.095346,0.005181,0.987730
2011-09-26T14:02:35.124109,12640,1.020500,1.944080,-8.301838,-0.093357,-0.006099,0.979127
2011-09-26T14:02:35.134109,12650,0.726209,1.879006,-8.348043,-0.091367,-0.017379,0.970523
2011-09-26T14:02:35.144109,12660,0.431919,1.813931,-8.394249,-0.089378,-0.028659,0.961920
2011-09-26T14:02:35.154109,12670,0.137629,1.748857,-8.440454,-0.087388,-0.039939,0.953317
2011-09-26T14:02:35.164109,12680,-0.156662,1.683782,-8.486659,-0.085399,-0.051219,0.944713
2011-09-26T14:02:35.174109,12690,-0.450952,1.618708,-8.532865,-0.083410,-0.062499,0.936110
2011-09-26T14:02:35.184109,12700,-0.745243,1.553633,-8.579070,-0.081420,-0.073779,0.927506
2011-09-26T14:02:35.194109,12710,-0.778507,1.368536,-8.635649,-0.081127,-0.074614,0.929081
2011-09-26T14:02:35.204109,12720,-0.796607,1.176465,-8.692830,-0.080931,-0.074841,0.931248
2011-09-26T14:02:35.214109,12730,-0.814707,0.984395,-8.750011,-0.080736,-0.075069,0.933414
2011-09-26T14:02:35.224109,12740,-0.832807,0.792325,-8.807192,-0.080540,-0.075297,0.935581
2011-09-26T14:02:35.234109,12750,-0.850907,0.600254,-8.864374,-0.080345,-0.075525,0.937747
2011-09-26T14:02:35.244109,12760,-0.869007,0.408184,-8.921555,-0.080150,-0.075752,0.939914
2011-09-26T14:02:35.254109,12770,-0.887107,0.216113,-8.978736,-0.079954,-0.075980,0.942080
2011-09-26T14:02:35.264109,12780,-0.905207,0.024043,-9.035917,-0.079759,-0.076208,0.944247
2011-09-26T14:02:35.274109,12790,-0.923307,-0.168027,-9.093098,-0.079563,-0.076435,0.946413
2011-09-26T14:02:35.284109,12800,-0.941407,-0.360098,-9.150280,-0.079368,-0.076663,0.948580
2011-09-26T14:02:35.294109,12810,-0.959507,-0.552168,-9.207461,-0.079173,-0.076891,0.950746
2011-09-26T14:02:35.304109,12820,-0.915560,-0.647436,-9.331334,-0.077245,-0.076965,0.956269
2011-09-26T14:02:35.314109,12830,-0.867875,-0.736872,-9.459225,-0.075213,-0.077031,0.961994
2011-09-26T14:02:35.324109,12840,-0.820190,-0.826309,-9.587115,-0.073181,-0.077096,0.967719
2011-09-26T14:02:35.334109,12850,-0.772505,-0.915745,-9.715006,-0.071149,-0.077161,0.973444
2011-09-26T14:02:35.344109,12860,-0.724820,-1.005182,-9.842896,-0.069117,-0.077227,0.979169
2011-09-26T14:02:35.354109,12870,-0.677135,-1.094618,-9.970787,-0.067085,-0.077292,0.984894
2011-09-26T14:02:35.364109,12880,-0.629450,-1.184055,-10.098677,-0.065053,-0.077357,0.990619
2011-09-26T14:02:35.374109,12890,-0.581765,-1.273492,-10.226568,-0.063021,-0.077423,0.996344
2011-09-26T14:02:35.384109,12900,-0.534080,-1.362928,-10.354458,-0.060989,-0.077488,1.002069
2011-09-26T14:02:35.394109,12910,-0.486395,-1.452365,-10.482348,-0.058958,-0.077553,1.007794
2011-09-26T14:02:35.404109,12920,-0.490586,-1.480777,-10.609006,-0.056922,-0.080332,1.008987
2011-09-26T14:02:35.414109,12930,-0.497681,-1.505773,-10.735595,-0.054887,-0.083262,1.009926
2011-09-26T14:02:35.424109,12940,-0.504775,-1.530770,-10.862184,-0.052852,-0.086192,1.010864
2011-09-26T14:02:35.434109,12950,-0.511870,-1.555767,-10.988773,-0.050816,-0.089122,1.011803
2011-09-26T14:02:35.444109,12960,-0.518965,-1.580763,-11.115362,-0.048781,-0.092052,1.012742
2011-09-26T14:02:35.454109,12970,-0.526060,-1.605760,-11.241951,-0.046746,-0.094982,1.013681
2011-09-26T14:02:35.464109,12980,-0.533155,-1.630757,-11.368540,-0.044711,-0.097912,1.014620
2011-09-26T14:02:35.474109,12990,-0.540249,-1.655753,-11.495129,-0.042675,-0.100842,1.015558
2011-09-26T14:02:35.484109,13000,-0.547344,-1.680750,-11.621718,-0.040640,-0.103772,1.016497
2011-09-26T14:02:35.494109,13010,-0.554439,-1.705747,-11.748307,-0.038605,-0.106702,1.017436
2011-09-26T14:02:35.504109,13020,-0.593521,-1.638281,-11.909302,-0.037638,-0.106066,1.016943
2011-09-26T14:02:35.514109,13030,-0.634415,-1.565577,-12.072245,-0.036732,-0.105228,1.016370
2011-09-26T14:02:35.524109,13040,-0.675308,-1.492874,-12.235189,-0.035826,-0.104389,1.015796
2011-09-26T14:02:35.534109,13050,-0.716202,-1.420170,-12.398132,-0.034920,-0.103551,1.015223
2011-09-26T14:02:35.544109,13060,-0.757096,-1.347466,-12.561076,-0.034014,-0.102713,1.014649
2011-09-26T14:02:35.554109,13070,-0.797990,-1.274762,-12.724019,-0.033108,-0.101875,1.014075
2011-09-26T14:02:35.564109,13080,-0.838884,-1.202059,-12.886963,-0.032202,-0.101036,1.013502
2011-09-26T14:02:35.574109,13090,-0.879778,-1.129355,-13.049906,-0.031296,-0.100198,1.012928
2011-09-26T14:02:35.584109,13100,-0.920671,-1.056651,-13.212850,-0.030390,-0.099360,1.012355
2011-09-26T14:02:35.594109,13110,-0.961565,-0.983948,-13.375794,-0.029484,-0.098522,1.011781
2011-09-26T14:02:35.604109,13120,-1.002459,-0.911244,-13.538737,-0.028578,-0.097684,1.011207
2011-09-26T14:02:35.614109,13130,-1.044106,-0.878984,-13.713479,-0.028446,-0.099833,1.010856
2011-09-26T14:02:35.624109,13140,-1.085802,-0.849328,-13.888981,-0.028365,-0.102175,1.010519
2011-09-26T14:02:35.634109,13150,-1.127497,-0.819672,-14.064483,-0.028284,-0.104516,1.010182
2011-09-26T14:02:35.644109,13160,-1.169192,-0.790016,-14.239985,-0.028202,-0.106858,1.009845
2011-09-26T14:02:35.654109,13170,-1.210888,-0.760360,-14.415487,-0.028121,-0.109200,1.009508
2011-09-26T14:02:35.664109,13180,-1.252583,-0.730705,-14.590989,-0.028040,-0.111541,1.009171
2011-09-26T14:02:35.674109,13190,-1.294279,-0.701049,-14.766492,-0.027958,-0.113883,1.008834
2011-09-26T14:02:35.684109,13200,-1.335974,-0.671393,-14.941994,-0.027877,-0.116225,1.008497
2011-09-26T14:02:35.694109,13210,-1.377670,-0.641737,-15.117496,-0.027795,-0.118567,1.008160
2011-09-26T14:02:35.704109,13220,-1.419365,-0.612081,-15.292998,-0.027714,-0.120908,1.007823
2011-09-26T14:02:35.714109,13230,-1.389867,-0.595493,-15.455068,-0.027994,-0.124781,1.008097
2011-09-26T14:02:35.724109,13240,-1.355890,-0.579727,-15.616293,-0.028296,-0.128751,1.008409
2011-09-26T14:02:35.734109,13250,-1.321912,-0.563962,-15.777518,-0.028599,-0.132720,1.008720
2011-09-26T14:02:35.744109,13260,-1.287934,-0.548196,-15.938743,-0.028902,-0.136690,1.009032
2011-09-26T14:02:35.754109,13270,-1.253956,-0.532430,-16.099968,-0.029204,-0.140659,1.009344
2011-09-26T14:02:35.764109,13280,-1.219978,-0.516664,-16.261193,-0.029507,-0.144629,1.009656
2011-09-26T14:02:35.774109,13290,-1.186000,-0.500899,-16.422418,-0.029809,-0.148598,1.009968
2011-09-26T14:02:35.784109,13300,-1.152022,-0.485133,-16.583643,-0.030112,-0.152568,1.010280
2011-09-26T14:02:35.794109,13310,-1.118045,-0.469367,-16.744868,-0.030415,-0.156537,1.010592
2011-09-26T14:02:35.804109,13320,-1.084067,-0.453602,-16.906093,-0.030717,-0.160507,1.010904
2011-09-26T14:02:35.814109,13330,-1.032104,-0.377946,-17.004761,-0.030495,-0.161811,1.011890
2011-09-26T14:02:35.824109,13340,-0.979084,-0.298772,-17.099754,-0.030242,-0.162959,1.012916
2011-09-26T14:02:35.834109,13350,-0.926064,-0.219598,-17.194746,-0.029989,-0.164107,1.013942
2011-09-26T14:02:35.844109,13360,-0.873044,-0.140424,-17.289739,-0.029735,-0.165255,1.014968
2011-09-26T14:02:35.854109,13370,-0.820024,-0.061250,-17.384732,-0.029482,-0.166403,1.015994
2011-09-26T14:02:35.864109,13380,-0.767005,0.017925,-17.479725,-0.029229,-0.167551,1.017020
2011-09-26T14:02:35.874109,13390,-0.713985,0.097099,-17.574718,-0.028976,-0.168699,1.018046
2011-09-26T14:02:35.884109,13400,-0.660965,0.176273,-17.669711,-0.028723,-0.169847,1.019072
2011-09-26T14:02:35.894109,13410,-0.607945,0.255447,-17.764703,-0.028470,-0.170995,1.020098
2011-09-26T14:02:35.904109,13420,-0.554925,0.334621,-17.859696,-0.028216,-0.172143,1.021124
2011-09-26T14:02:35.914109,13430,-0.501906,0.413795,-17.954689,-0.027963,-0.173291,1.022150
2011-09-26T14:02:35.924109,13440,-0.479938,0.442432,-18.024668,-0.028472,-0.174457,1.019359
2011-09-26T14:02:35.934109,13450,-0.459928,0.467883,-18.093070,-0.029028,-0.175624,1.016327
2011-09-26T14:02:35.944109,13460,-0.439917,0.493334,-18.161472,-0.029585,-0.176791,1.013295
2011-09-26T14:02:35.954109,13470,-0.419907,0.518785,-18.229874,-0.030141,-0.177958,1.010263
2011-09-26T14:02:35.964109,13480,-0.399897,0.544236,-18.298276,-0.030698,-0.179125,1.007231
2011-09-26T14:02:35.974109,13490,-0.379886,0.569687,-18.366678,-0.031254,-0.180292,1.004199
2011-09-26T14:02:35.984109,13500,-0.359876,0.595138,-18.435080,-0.031811,-0.181459,1.001167
2011-09-26T14:02:35.994109,13510,-0.339866,0.620589,-18.503482,-0.032367,-0.182626,0.998135
2011-09-26T14:02:36.004109,13520,-0.319856,0.646040,-18.571884,-0.032924,-0.183793,0.995103
2011-09-26T14:02:36.014109,13530,-0.299845,0.671490,-18.640286,-0.033481,-0.184961,0.992071
