pc_time,ts_ms,gyroX,gyroY,gyroZ,accelX,accelY,accelZ
2011-09-29T13:54:59.995847,0,-0.330020,0.454101,-0.356404,0.018925,0.047511,1.001167
2011-09-29T13:55:00.005847,10,-0.362731,0.466062,-0.336566,0.017328,0.045237,1.000546
2011-09-29T13:55:00.015847,20,-0.395443,0.478023,-0.316728,0.015731,0.042964,0.999925
2011-09-29T13:55:00.025847,30,-0.428154,0.489984,-0.296890,0.014134,0.040691,0.999304
2011-09-29T13:55:00.035847,40,-0.460866,0.501944,-0.277051,0.012537,0.038418,0.998683
2011-09-29T13:55:00.045847,50,-0.493577,0.513905,-0.257213,0.010941,0.036145,0.998062
2011-09-29T13:55:00.055847,60,-0.526288,0.525866,-0.237375,0.009344,0.033872,0.997441
2011-09-29T13:55:00.065847,70,-0.559000,0.537827,-0.217537,0.007747,0.031598,0.996820
2011-09-29T13:55:00.075847,80,-0.591711,0.549788,-0.197698,0.006150,0.029325,0.996199
2011-09-29T13:55:00.085847,90,-0.624423,0.561748,-0.177860,0.004553,0.027052,0.995578
2011-09-29T13:55:00.095847,100,-0.657134,0.573709,-0.158022,0.002957,0.024779,0.994957
2011-09-29T13:55:00.105847,110,-0.689734,0.585560,-0.138059,0.001364,0.022510,0.994342
2011-09-29T13:55:00.115847,120,-0.691468,0.566831,-0.083561,0.000857,0.021548,0.995124
2011-09-29T13:55:00.125847,130,-0.693202,0.548103,-0.029062,0.000350,0.020585,0.995906
2011-09-29T13:55:00.135847,140,-0.694936,0.529374,0.025436,-0.000156,0.019623,0.996688
2011-09-29T13:55:00.145847,150,-0.696670,0.510645,0.079934,-0.000663,0.018660,0.997470
2011-09-29T13:55:00.155847,160,-0.698404,0.491917,0.134433,-0.001170,0.017698,0.998252
2011-09-29T13:55:00.165847,170,-0.700138,0.473188,0.188931,-0.001677,0.016735,0.999034
2011-09-29T13:55:00.175847,180,-0.701872,0.454459,0.243430,-0.002183,0.015773,0.999816
2011-09-29T13:55:00.185847,190,-0.703606,0.435731,0.297928,-0.002690,0.014810,1.000598
2011-09-29T13:55:00.195847,200,-0.705340,0.417002,0.352427,-0.003197,0.013848,1.001380
2011-09-29T13:55:00.205847,210,-0.706907,0.398367,0.406802,-0.003702,0.012890,1.002162
2011-09-29T13:55:00.215847,220,-0.610102,0.435094,0.388490,-0.003384,0.014963,1.003422
2011-09-29T13:55:00.225847,230,-0.513296,0.471822,0.370178,-0.003066,0.017035,1.004681
2011-09-29T13:55:00.235847,240,-0.416490,0.508549,0.351865,-0.002749,0.019108,1.005940
2011-09-29T13:55:00.245847,250,-0.319684,0.545276,0.333553,-0.002431,0.021180,1.007199
2011-09-29T13:55:00.255847,260,-0.222879,0.582004,0.315240,-0.002113,0.023253,1.008459
2011-09-29T13:55:00.265847,270,-0.126073,0.618731,0.296928,-0.001795,0.025325,1.009718
2011-09-29T13:55:00.275847,280,-0.029267,0.655458,0.278615,-0.001478,0.027398,1.010977
2011-09-29T13:55:00.285847,290,0.067539,0.692186,0.260303,-0.001160,0.029470,1.012236
2011-09-29T13:55:00.295847,300,0.164345,0.728913,0.241990,-0.000842,0.031543,1.013496
2011-09-29T13:55:00.305847,310,0.261150,0.765641,0.223678,-0.000524,0.033615,1.014755
2011-09-29T13:55:00.315847,320,0.246464,0.809038,0.210413,-0.002644,0.032841,1.013706
2011-09-29T13:55:00.325847,330,0.229649,0.852562,0.197244,-0.004810,0.032012,1.012613
2011-09-29T13:55:00.335847,340,0.212835,0.896086,0.184075,-0.006976,0.031184,1.011520
2011-09-29T13:55:00.345847,350,0.196021,0.939610,0.170906,-0.009142,0.030355,1.010426
2011-09-29T13:55:00.355847,360,0.179206,0.983135,0.157738,-0.011308,0.029526,1.009333
2011-09-29T13:55:00.365847,370,0.162392,1.026659,0.144569,-0.013474,0.028697,1.008240
2011-09-29T13:55:00.375847,380,0.145578,1.070183,0.131400,-0.015640,0.027869,1.007147
2011-09-29T13:55:00.385847,390,0.128763,1.113707,0.118231,-0.017806,0.027040,1.006054
2011-09-29T13:55:00.395847,400,0.111949,1.157232,0.105063,-0.019971,0.026211,1.004961
2011-09-29T13:55:00.405847,410,0.095135,1.200756,0.091894,-0.022137,0.025383,1.003868
2011-09-29T13:55:00.415847,420,0.078498,1.243975,0.079008,-0.024309,0.024553,1.002769
2011-09-29T13:55:00.425847,430,0.114176,1.197463,0.149109,-0.028074,0.023442,1.000085
2011-09-29T13:55:00.435847,440,0.149854,1.150952,0.219210,-0.031839,0.022332,0.997400
2011-09-29T13:55:00.445847,450,0.185532,1.104441,0.289312,-0.035604,0.021221,0.994715
2011-09-29T13:55:00.455847,460,0.221210,1.057929,0.359413,-0.039369,0.020111,0.992031
2011-09-29T13:55:00.465847,470,0.256888,1.011418,0.429514,-0.043134,0.019000,0.989346
2011-09-29T13:55:00.475847,480,0.292566,0.964906,0.499616,-0.046899,0.017890,0.986661
2011-09-29T13:55:00.485847,490,0.328244,0.918395,0.569717,-0.050664,0.016779,0.983977
2011-09-29T13:55:00.495847,500,0.363921,0.871884,0.639818,-0.054429,0.015669,0.981292
2011-09-29T13:55:00.505847,510,0.399599,0.825372,0.709920,-0.058194,0.014558,0.978607
2011-09-29T13:55:00.515847,520,0.434698,0.778960,0.779602,-0.061948,0.013489,0.975956
2011-09-29T13:55:00.525847,530,0.396015,0.745129,0.795879,-0.064328,0.017659,0.977544
2011-09-29T13:55:00.535847,540,0.357332,0.711299,0.812156,-0.066708,0.021830,0.979132
2011-09-29T13:55:00.545847,550,0.318649,0.677468,0.828433,-0.069088,0.026000,0.980720
2011-09-29T13:55:00.555847,560,0.279966,0.643638,0.844710,-0.071468,0.030171,0.982308
2011-09-29T13:55:00.565847,570,0.241283,0.609807,0.860987,-0.073848,0.034341,0.983897
2011-09-29T13:55:00.575847,580,0.202600,0.575976,0.877264,-0.076228,0.038512,0.985485
2011-09-29T13:55:00.585847,590,0.163917,0.542146,0.893541,-0.078608,0.042682,0.987073
2011-09-29T13:55:00.595847,600,0.125234,0.508315,0.909818,-0.080988,0.046853,0.988661
2011-09-29T13:55:00.605847,610,0.086551,0.474485,0.926095,-0.083368,0.051023,0.990249
2011-09-29T13:55:00.615847,620,0.047589,0.441407,0.941782,-0.085712,0.055128,0.991817
2011-09-29T13:55:00.625847,630,-0.013949,0.469383,0.909638,-0.085141,0.053946,0.991785
2011-09-29T13:55:00.635847,640,-0.075486,0.497359,0.877493,-0.084569,0.052763,0.991752
2011-09-29T13:55:00.645847,650,-0.137024,0.525334,0.845348,-0.083998,0.051580,0.991719
2011-09-29T13:55:00.655847,660,-0.198561,0.553310,0.813203,-0.083426,0.050398,0.991686
2011-09-29T13:55:00.665847,670,-0.260099,0.581286,0.781058,-0.082855,0.049215,0.991653
2011-09-29T13:55:00.675847,680,-0.321637,0.609261,0.748913,-0.082283,0.048032,0.991620
2011-09-29T13:55:00.685847,690,-0.383174,0.637237,0.716769,-0.081712,0.046849,0.991588
2011-09-29T13:55:00.695847,700,-0.444712,0.665213,0.684624,-0.081140,0.045667,0.991555
2011-09-29T13:55:00.705847,710,-0.506250,0.693188,0.652479,-0.080569,0.044484,0.991522
2011-09-29T13:55:00.715847,720,-0.567787,0.721164,0.620334,-0.079997,0.043301,0.991489
2011-09-29T13:55:00.725847,730,-0.628919,0.748334,0.589490,-0.079426,0.042095,0.991446
2011-09-29T13:55:00.735847,740,-0.656567,0.709120,0.665834,-0.078836,0.038908,0.990543
2011-09-29T13:55:00.745847,750,-0.684216,0.669906,0.742178,-0.078246,0.035722,0.989641
2011-09-29T13:55:00.755847,760,-0.711865,0.630692,0.818522,-0.077657,0.032536,0.988738
2011-09-29T13:55:00.765847,770,-0.739513,0.591478,0.894865,-0.077067,0.029350,0.987835
2011-09-29T13:55:00.775847,780,-0.767162,0.552264,0.971209,-0.076477,0.026164,0.986933
2011-09-29T13:55:00.785847,790,-0.794811,0.513050,1.047553,-0.075887,0.022978,0.986030
2011-09-29T13:55:00.795847,800,-0.822460,0.473836,1.123897,-0.075298,0.019792,0.985128
2011-09-29T13:55:00.805847,810,-0.850108,0.434622,1.200241,-0.074708,0.016605,0.984225
2011-09-29T13:55:00.815847,820,-0.877757,0.395407,1.276585,-0.074118,0.013419,0.983323
2011-09-29T13:55:00.825847,830,-0.905406,0.356193,1.352929,-0.073528,0.010233,0.982420
2011-09-29T13:55:00.835847,840,-0.864972,0.321238,1.397430,-0.074185,0.011698,0.984756
2011-09-29T13:55:00.845847,850,-0.824160,0.286306,1.441755,-0.074849,0.013189,0.987111
2011-09-29T13:55:00.855847,860,-0.783348,0.251374,1.486079,-0.075512,0.014679,0.989465
2011-09-29T13:55:00.865847,870,-0.742536,0.216442,1.530404,-0.076176,0.016170,0.991819
2011-09-29T13:55:00.875847,880,-0.701725,0.181510,1.574729,-0.076839,0.017660,0.994174
2011-09-29T13:55:00.885847,890,-0.660913,0.146578,1.619053,-0.077503,0.019151,0.996528
2011-09-29T13:55:00.895847,900,-0.620101,0.111646,1.663378,-0.078166,0.020642,0.998882
2011-09-29T13:55:00.905847,910,-0.579289,0.076714,1.707703,-0.078830,0.022132,1.001236
2011-09-29T13:55:00.915847,920,-0.538478,0.041782,1.752027,-0.079493,0.023623,1.003591
2011-09-29T13:55:00.925847,930,-0.497666,0.006850,1.796352,-0.080157,0.025113,1.005945
2011-09-29T13:55:00.935847,940,-0.456969,-0.027442,1.839813,-0.080817,0.026578,1.008270
2011-09-29T13:55:00.945847,950,-0.423552,-0.021263,1.828678,-0.081276,0.026408,1.008731
2011-09-29T13:55:00.955847,960,-0.390135,-0.015085,1.817543,-0.081736,0.026238,1.009192
2011-09-29T13:55:00.965847,970,-0.356717,-0.008906,1.806407,-0.082195,0.026068,1.009653
2011-09-29T13:55:00.975847,980,-0.323300,-0.002727,1.795272,-0.082654,0.025898,1.010114
2011-09-29T13:55:00.985847,990,-0.289882,0.003452,1.784137,-0.083113,0.025728,1.010576
2011-09-29T13:55:00.995847,1000,-0.256465,0.009630,1.773002,-0.083573,0.025558,1.011037
2011-09-29T13:55:01.005847,1010,-0.223048,0.015809,1.761867,-0.084032,0.025388,1.011498
2011-09-29T13:55:01.015847,1020,-0.189630,0.021988,1.750731,-0.084491,0.025218,1.011959
2011-09-29T13:55:01.025847,1030,-0.156213,0.028166,1.739596,-0.084950,0.025048,1.012420
2011-09-29T13:55:01.035847,1040,-0.123492,0.035048,1.728952,-0.085405,0.024884,1.012878
2011-09-29T13:55:01.045847,1050,-0.131580,0.083157,1.747061,-0.085596,0.025064,1.013132
2011-09-29T13:55:01.055847,1060,-0.139668,0.131265,1.765171,-0.085787,0.025244,1.013385
2011-09-29T13:55:01.065847,1070,-0.147756,0.179374,1.783281,-0.085978,0.025425,1.013639
2011-09-29T13:55:01.075847,1080,-0.155845,0.227482,1.801391,-0.086170,0.025605,1.013893
2011-09-29T13:55:01.085847,1090,-0.163933,0.275590,1.819501,-0.086361,0.025786,1.014146
2011-09-29T13:55:01.095847,1100,-0.172021,0.323699,1.837611,-0.086552,0.025966,1.014400
2011-09-29T13:55:01.105847,1110,-0.180109,0.371807,1.855721,-0.086743,0.026146,1.014654
2011-09-29T13:55:01.115847,1120,-0.188197,0.419916,1.873831,-0.086934,0.026327,1.014908
2011-09-29T13:55:01.125847,1130,-0.196286,0.468024,1.891941,-0.087125,0.026507,1.015161
2011-09-29T13:55:01.135847,1140,-0.204337,0.516026,1.909479,-0.087315,0.026695,1.015386
2011-09-29T13:55:01.145847,1150,-0.210141,0.557612,1.892513,-0.087415,0.027357,1.013872
2011-09-29T13:55:01.155847,1160,-0.215945,0.599198,1.875546,-0.087516,0.028019,1.012358
2011-09-29T13:55:01.165847,1170,-0.221749,0.640783,1.858579,-0.087617,0.028682,1.010844
2011-09-29T13:55:01.175847,1180,-0.227554,0.682369,1.841613,-0.087718,0.029344,1.009330
2011-09-29T13:55:01.185847,1190,-0.233358,0.723955,1.824646,-0.087819,0.030006,1.007815
2011-09-29T13:55:01.195847,1200,-0.239162,0.765540,1.807679,-0.087920,0.030668,1.006301
2011-09-29T13:55:01.205847,1210,-0.244966,0.807126,1.790713,-0.088020,0.031330,1.004787
2011-09-29T13:55:01.215847,1220,-0.250771,0.848712,1.773746,-0.088121,0.031992,1.003273
2011-09-29T13:55:01.225847,1230,-0.256575,0.890298,1.756779,-0.088222,0.032654,1.001759
2011-09-29T13:55:01.235847,1240,-0.262379,0.931883,1.739813,-0.088323,0.033316,1.000245
2011-09-29T13:55:01.245847,1250,-0.268018,0.972287,1.722774,-0.088418,0.033936,0.998737
2011-09-29T13:55:01.255847,1260,-0.265282,0.952958,1.702072,-0.088233,0.032415,0.997535
2011-09-29T13:55:01.265847,1270,-0.262547,0.933629,1.681370,-0.088049,0.030894,0.996334
2011-09-29T13:55:01.275847,1280,-0.259811,0.914301,1.660668,-0.087864,0.029373,0.995133
2011-09-29T13:55:01.285847,1290,-0.257076,0.894972,1.639966,-0.087680,0.027852,0.993931
2011-09-29T13:55:01.295847,1300,-0.254340,0.875643,1.619264,-0.087495,0.026332,0.992730
2011-09-29T13:55:01.305847,1310,-0.251605,0.856315,1.598562,-0.087310,0.024811,0.991529
2011-09-29T13:55:01.315847,1320,-0.248869,0.836986,1.577861,-0.087126,0.023290,0.990328
2011-09-29T13:55:01.325847,1330,-0.246134,0.817657,1.557159,-0.086941,0.021769,0.989126
2011-09-29T13:55:01.335847,1340,-0.243398,0.798328,1.536457,-0.086756,0.020248,0.987925
2011-09-29T13:55:01.345847,1350,-0.240663,0.779000,1.515755,-0.086572,0.018727,0.986724
2011-09-29T13:55:01.355847,1360,-0.173547,0.710300,1.520008,-0.081355,0.017765,0.986676
2011-09-29T13:55:01.365847,1370,-0.106320,0.641517,1.524304,-0.076129,0.016804,0.986631
2011-09-29T13:55:01.375847,1380,-0.039094,0.572733,1.528600,-0.070903,0.015844,0.986585
2011-09-29T13:55:01.385847,1390,0.028133,0.503949,1.532896,-0.065677,0.014883,0.986539
2011-09-29T13:55:01.395847,1400,0.095359,0.435165,1.537191,-0.060451,0.013922,0.986494
2011-09-29T13:55:01.405847,1410,0.162585,0.366381,1.541487,-0.055226,0.012962,0.986448
2011-09-29T13:55:01.415847,1420,0.229812,0.297597,1.545783,-0.050000,0.012001,0.986402
2011-09-29T13:55:01.425847,1430,0.297038,0.228813,1.550079,-0.044774,0.011040,0.986357
2011-09-29T13:55:01.435847,1440,0.364264,0.160029,1.554374,-0.039548,0.010079,0.986311
2011-09-29T13:55:01.445847,1450,0.431491,0.091246,1.558670,-0.034322,0.009119,0.986265
2011-09-29T13:55:01.455847,1460,0.497658,0.023039,1.563587,-0.029107,0.008243,0.986237
2011-09-29T13:55:01.465847,1470,0.519973,-0.021268,1.594206,-0.024336,0.010899,0.986942
2011-09-29T13:55:01.475847,1480,0.542288,-0.065576,1.624826,-0.019565,0.013556,0.987647
2011-09-29T13:55:01.485847,1490,0.564603,-0.109883,1.655446,-0.014795,0.016212,0.988351
2011-09-29T13:55:01.495847,1500,0.586918,-0.154190,1.686065,-0.010024,0.018868,0.989056
2011-09-29T13:55:01.505847,1510,0.609233,-0.198498,1.716685,-0.005253,0.021524,0.989760
2011-09-29T13:55:01.515847,1520,0.631548,-0.242805,1.747305,-0.000482,0.024180,0.990465
2011-09-29T13:55:01.525847,1530,0.653863,-0.287112,1.777924,0.004289,0.026836,0.991170
2011-09-29T13:55:01.535847,1540,0.676177,-0.331420,1.808544,0.009060,0.029492,0.991874
2011-09-29T13:55:01.545847,1550,0.698492,-0.375727,1.839163,0.013831,0.032148,0.992579
2011-09-29T13:55:01.555847,1560,0.719953,-0.419370,1.869003,0.018528,0.034774,0.993282
2011-09-29T13:55:01.565847,1570,0.703946,-0.433881,1.864628,0.019967,0.036060,0.993911
2011-09-29T13:55:01.575847,1580,0.687939,-0.448392,1.860254,0.021407,0.037346,0.994540
2011-09-29T13:55:01.585847,1590,0.671933,-0.462903,1.855879,0.022847,0.038632,0.995170
2011-09-29T13:55:01.595847,1600,0.655926,-0.477414,1.851504,0.024287,0.039918,0.995799
2011-09-29T13:55:01.605847,1610,0.639919,-0.491925,1.847129,0.025726,0.041204,0.996428
2011-09-29T13:55:01.615847,1620,0.623912,-0.506436,1.842755,0.027166,0.042490,0.997058
2011-09-29T13:55:01.625847,1630,0.607905,-0.520947,1.838380,0.028606,0.043776,0.997687
2011-09-29T13:55:01.635847,1640,0.591898,-0.535458,1.834005,0.030046,0.045062,0.998316
2011-09-29T13:55:01.645847,1650,0.575891,-0.549969,1.829630,0.031485,0.046348,0.998946
2011-09-29T13:55:01.655847,1660,0.558540,-0.562908,1.826344,0.032899,0.047557,0.999573
2011-09-29T13:55:01.665847,1670,0.485541,-0.510786,1.868139,0.033229,0.045572,1.000130
2011-09-29T13:55:01.675847,1680,0.412542,-0.458663,1.909933,0.033559,0.043588,1.000686
2011-09-29T13:55:01.685847,1690,0.339543,-0.406541,1.951727,0.033890,0.041604,1.001242
2011-09-29T13:55:01.695847,1700,0.266544,-0.354419,1.993521,0.034220,0.039619,1.001798
2011-09-29T13:55:01.705847,1710,0.193545,-0.302296,2.035315,0.034550,0.037635,1.002354
2011-09-29T13:55:01.715847,1720,0.120546,-0.250174,2.077110,0.034880,0.035651,1.002911
2011-09-29T13:55:01.725847,1730,0.047547,-0.198052,2.118904,0.035210,0.033666,1.003467
2011-09-29T13:55:01.735847,1740,-0.025452,-0.145929,2.160698,0.035540,0.031682,1.004023
2011-09-29T13:55:01.745847,1750,-0.098452,-0.093807,2.202492,0.035871,0.029698,1.004579
2011-09-29T13:55:01.755847,1760,-0.171451,-0.041685,2.244287,0.036201,0.027714,1.005135
2011-09-29T13:55:01.765847,1770,-0.242734,0.010143,2.286590,0.036517,0.025777,1.005665
2011-09-29T13:55:01.775847,1780,-0.247356,0.050519,2.348671,0.036290,0.025710,1.005158
2011-09-29T13:55:01.785847,1790,-0.251979,0.090896,2.410752,0.036063,0.025642,1.004652
2011-09-29T13:55:01.795847,1800,-0.256601,0.131272,2.472832,0.035836,0.025574,1.004145
2011-09-29T13:55:01.805847,1810,-0.261224,0.171649,2.534913,0.035609,0.025507,1.003638
2011-09-29T13:55:01.815847,1820,-0.265846,0.212025,2.596994,0.035382,0.025439,1.003132
2011-09-29T13:55:01.825847,1830,-0.270469,0.252402,2.659075,0.035155,0.025371,1.002625
2011-09-29T13:55:01.835847,1840,-0.275091,0.292778,2.721155,0.034928,0.025303,1.002118
2011-09-29T13:55:01.845847,1850,-0.279713,0.333155,2.783236,0.034701,0.025236,1.001612
2011-09-29T13:55:01.855847,1860,-0.284336,0.373531,2.845317,0.034474,0.025168,1.001105
2011-09-29T13:55:01.865847,1870,-0.289219,0.413550,2.906448,0.034239,0.025133,1.000612
2011-09-29T13:55:01.875847,1880,-0.308643,0.433609,2.914579,0.033538,0.026905,1.000877
2011-09-29T13:55:01.885847,1890,-0.328066,0.453669,2.922709,0.032836,0.028678,1.001141
2011-09-29T13:55:01.895847,1900,-0.347490,0.473728,2.930840,0.032135,0.030451,1.001406
2011-09-29T13:55:01.905847,1910,-0.366914,0.493788,2.938970,0.031434,0.032224,1.001671
2011-09-29T13:55:01.915847,1920,-0.386337,0.513847,2.947101,0.030732,0.033996,1.001935
2011-09-29T13:55:01.925847,1930,-0.405761,0.533907,2.955232,0.030031,0.035769,1.002200
2011-09-29T13:55:01.935847,1940,-0.425184,0.553966,2.963362,0.029330,0.037542,1.002464
2011-09-29T13:55:01.945847,1950,-0.444608,0.574026,2.971493,0.028628,0.039315,1.002729
2011-09-29T13:55:01.955847,1960,-0.464032,0.594085,2.979623,0.027927,0.041087,1.002994
2011-09-29T13:55:01.965847,1970,-0.483947,0.614099,2.987881,0.027250,0.042766,1.003235
2011-09-29T13:55:01.975847,1980,-0.518975,0.632711,3.000051,0.027309,0.041551,1.002765
2011-09-29T13:55:01.985847,1990,-0.554004,0.651322,3.012221,0.027368,0.040335,1.002295
2011-09-29T13:55:01.995847,2000,-0.589033,0.669934,3.024391,0.027428,0.039120,1.001825
2011-09-29T13:55:02.005847,2010,-0.624061,0.688545,3.036561,0.027487,0.037905,1.001355
2011-09-29T13:55:02.015847,2020,-0.659090,0.707157,3.048731,0.027546,0.036689,1.000884
2011-09-29T13:55:02.025847,2030,-0.694119,0.725768,3.060900,0.027606,0.035474,1.000414
2011-09-29T13:55:02.035847,2040,-0.729147,0.744379,3.073070,0.027665,0.034259,0.999944
2011-09-29T13:55:02.045847,2050,-0.764176,0.762991,3.085240,0.027724,0.033043,0.999474
2011-09-29T13:55:02.055847,2060,-0.799205,0.781602,3.097410,0.027784,0.031828,0.999004
2011-09-29T13:55:02.065847,2070,-0.834233,0.800214,3.109580,0.027843,0.030613,0.998533
2011-09-29T13:55:02.075847,2080,-0.868618,0.818189,3.122133,0.027900,0.029450,0.998078
2011-09-29T13:55:02.085847,2090,-0.880964,0.814379,3.147811,0.027863,0.030100,0.998140
2011-09-29T13:55:02.095847,2100,-0.893310,0.810569,3.173489,0.027826,0.030750,0.998201
2011-09-29T13:55:02.105847,2110,-0.905656,0.806760,3.199166,0.027790,0.031400,0.998263
2011-09-29T13:55:02.115847,2120,-0.918002,0.802950,3.224844,0.027753,0.032050,0.998324
2011-09-29T13:55:02.125847,2130,-0.930348,0.799141,3.250522,0.027716,0.032699,0.998386
2011-09-29T13:55:02.135847,2140,-0.942694,0.795331,3.276199,0.027680,0.033349,0.998447
2011-09-29T13:55:02.145847,2150,-0.955040,0.791521,3.301877,0.027643,0.033999,0.998508
2011-09-29T13:55:02.155847,2160,-0.967387,0.787712,3.327554,0.027606,0.034649,0.998570
2011-09-29T13:55:02.165847,2170,-0.979733,0.783902,3.353232,0.027570,0.035298,0.998631
2011-09-29T13:55:02.175847,2180,-0.991785,0.779437,3.377526,0.027527,0.035908,0.998662
2011-09-29T13:55:02.185847,2190,-0.995099,0.755457,3.360620,0.027312,0.035311,0.997765
2011-09-29T13:55:02.195847,2200,-0.998413,0.731476,3.343714,0.027096,0.034715,0.996869
2011-09-29T13:55:02.205847,2210,-1.001727,0.707495,3.326808,0.026881,0.034118,0.995972
2011-09-29T13:55:02.215847,2220,-1.005041,0.683515,3.309901,0.026665,0.033521,0.995076
2011-09-29T13:55:02.225847,2230,-1.008355,0.659534,3.292995,0.026449,0.032925,0.994180
2011-09-29T13:55:02.235847,2240,-1.011669,0.635554,3.276089,0.026234,0.032328,0.993283
2011-09-29T13:55:02.245847,2250,-1.014983,0.611573,3.259183,0.026018,0.031732,0.992387
2011-09-29T13:55:02.255847,2260,-1.018297,0.587593,3.242277,0.025803,0.031135,0.991490
2011-09-29T13:55:02.265847,2270,-1.021611,0.563612,3.225371,0.025587,0.030539,0.990594
2011-09-29T13:55:02.275847,2280,-1.024925,0.539632,3.208465,0.025371,0.029942,0.989698
2011-09-29T13:55:02.285847,2290,-1.027238,0.514494,3.192495,0.025175,0.029331,0.988812
2011-09-29T13:55:02.295847,2300,-0.999645,0.454809,3.204492,0.025559,0.028304,0.988240
2011-09-29T13:55:02.305847,2310,-0.972053,0.395123,3.216489,0.025942,0.027276,0.987669
2011-09-29T13:55:02.315847,2320,-0.944460,0.335438,3.228485,0.026325,0.026248,0.987097
2011-09-29T13:55:02.325847,2330,-0.916867,0.275752,3.240482,0.026709,0.025220,0.986526
2011-09-29T13:55:02.335847,2340,-0.889275,0.216067,3.252479,0.027092,0.024192,0.985954
2011-09-29T13:55:02.345847,2350,-0.861682,0.156381,3.264476,0.027475,0.023164,0.985383
2011-09-29T13:55:02.355847,2360,-0.834090,0.096696,3.276473,0.027859,0.022136,0.984811
2011-09-29T13:55:02.365847,2370,-0.806497,0.037010,3.288470,0.028242,0.021108,0.984240
2011-09-29T13:55:02.375847,2380,-0.778905,-0.022675,3.300466,0.028626,0.020080,0.983668
2011-09-29T13:55:02.385847,2390,-0.752897,-0.081039,3.312207,0.029018,0.019112,0.983186
2011-09-29T13:55:02.395847,2400,-0.776275,-0.098209,3.315981,0.029676,0.019995,0.985472
2011-09-29T13:55:02.405847,2410,-0.799653,-0.115379,3.319755,0.030334,0.020877,0.987758
2011-09-29T13:55:02.415847,2420,-0.823031,-0.132550,3.323529,0.030992,0.021760,0.990044
2011-09-29T13:55:02.425847,2430,-0.846409,-0.149720,3.327303,0.031651,0.022642,0.992330
2011-09-29T13:55:02.435847,2440,-0.869787,-0.166891,3.331077,0.032309,0.023525,0.994615
2011-09-29T13:55:02.445847,2450,-0.893165,-0.184061,3.334850,0.032967,0.024408,0.996901
2011-09-29T13:55:02.455847,2460,-0.916543,-0.201231,3.338624,0.033626,0.025290,0.999187
2011-09-29T13:55:02.465847,2470,-0.939921,-0.218402,3.342398,0.034284,0.026173,1.001473
2011-09-29T13:55:02.475847,2480,-0.963299,-0.235572,3.346172,0.034942,0.027055,1.003759
2011-09-29T13:55:02.485847,2490,-0.985118,-0.252150,3.349196,0.035610,0.027869,1.005980
2011-09-29T13:55:02.495847,2500,-0.963178,-0.252101,3.331184,0.036547,0.026747,1.006375
2011-09-29T13:55:02.505847,2510,-0.941238,-0.252053,3.313172,0.037484,0.025625,1.006770
2011-09-29T13:55:02.515847,2520,-0.919298,-0.252004,3.295160,0.038422,0.024503,1.007165
2011-09-29T13:55:02.525847,2530,-0.897358,-0.251955,3.277148,0.039359,0.023381,1.007560
2011-09-29T13:55:02.535847,2540,-0.875417,-0.251906,3.259136,0.040296,0.022259,1.007955
2011-09-29T13:55:02.545847,2550,-0.853477,-0.251857,3.241124,0.041233,0.021137,1.008350
2011-09-29T13:55:02.555847,2560,-0.831537,-0.251809,3.223112,0.042170,0.020015,1.008745
2011-09-29T13:55:02.565847,2570,-0.809597,-0.251760,3.205101,0.043107,0.018893,1.009140
2011-09-29T13:55:02.575847,2580,-0.787657,-0.251711,3.187089,0.044044,0.017771,1.009535
2011-09-29T13:55:02.585847,2590,-0.765717,-0.251662,3.169077,0.044981,0.016649,1.009930
2011-09-29T13:55:02.595847,2600,-0.743837,-0.251531,3.150913,0.045933,0.015581,1.010325
2011-09-29T13:55:02.605847,2610,-0.723699,-0.249022,3.128362,0.047321,0.016070,1.010710
2011-09-29T13:55:02.615847,2620,-0.703561,-0.246513,3.105811,0.048709,0.016559,1.011096
2011-09-29T13:55:02.625847,2630,-0.683424,-0.244004,3.083261,0.050097,0.017048,1.011482
2011-09-29T13:55:02.635847,2640,-0.663286,-0.241495,3.060710,0.051485,0.017537,1.011868
2011-09-29T13:55:02.645847,2650,-0.643148,-0.238986,3.038160,0.052873,0.018026,1.012253
2011-09-29T13:55:02.655847,2660,-0.623010,-0.236477,3.015609,0.054261,0.018515,1.012639
2011-09-29T13:55:02.665847,2670,-0.602872,-0.233968,2.993058,0.055649,0.019004,1.013025
2011-09-29T13:55:02.675847,2680,-0.582734,-0.231459,2.970508,0.057037,0.019493,1.013411
2011-09-29T13:55:02.685847,2690,-0.562597,-0.228950,2.947957,0.058425,0.019982,1.013796
2011-09-29T13:55:02.695847,2700,-0.541774,-0.226194,2.924936,0.059819,0.020495,1.014137
2011-09-29T13:55:02.705847,2710,-0.503656,-0.217174,2.890042,0.061343,0.021616,1.013342
2011-09-29T13:55:02.715847,2720,-0.465539,-0.208155,2.855148,0.062868,0.022736,1.012548
2011-09-29T13:55:02.725847,2730,-0.427421,-0.199136,2.820254,0.064393,0.023856,1.011753
2011-09-29T13:55:02.735847,2740,-0.389303,-0.190117,2.785360,0.065918,0.024976,1.010958
2011-09-29T13:55:02.745847,2750,-0.351186,-0.181098,2.750466,0.067442,0.026096,1.010164
2011-09-29T13:55:02.755847,2760,-0.313068,-0.172079,2.715572,0.068967,0.027217,1.009369
2011-09-29T13:55:02.765847,2770,-0.274950,-0.163060,2.680678,0.070492,0.028337,1.008574
2011-09-29T13:55:02.775847,2780,-0.236832,-0.154041,2.645784,0.072017,0.029457,1.007780
2011-09-29T13:55:02.785847,2790,-0.198715,-0.145022,2.610890,0.073541,0.030577,1.006985
2011-09-29T13:55:02.795847,2800,-0.161057,-0.136383,2.576050,0.075061,0.031644,1.006204
2011-09-29T13:55:02.805847,2810,-0.140726,-0.142052,2.543248,0.076374,0.030700,1.005948
2011-09-29T13:55:02.815847,2820,-0.120394,-0.147721,2.510446,0.077687,0.029756,1.005692
2011-09-29T13:55:02.825847,2830,-0.100063,-0.153390,2.477643,0.079000,0.028812,1.005436
2011-09-29T13:55:02.835847,2840,-0.079731,-0.159059,2.444841,0.080313,0.027868,1.005180
2011-09-29T13:55:02.845847,2850,-0.059400,-0.164729,2.412038,0.081626,0.026924,1.004924
2011-09-29T13:55:02.855847,2860,-0.039068,-0.170398,2.379236,0.082939,0.025980,1.004668
2011-09-29T13:55:02.865847,2870,-0.018737,-0.176067,2.346433,0.084252,0.025036,1.004412
2011-09-29T13:55:02.875847,2880,0.001594,-0.181736,2.313631,0.085565,0.024092,1.004156
2011-09-29T13:55:02.885847,2890,0.021926,-0.187405,2.280829,0.086878,0.023148,1.003900
2011-09-29T13:55:02.895847,2900,0.042257,-0.193074,2.248026,0.088192,0.022204,1.003644
2011-09-29T13:55:02.905847,2910,0.062476,-0.196892,2.217327,0.089481,0.021270,1.003448
2011-09-29T13:55:02.915847,2920,0.079385,-0.146263,2.248474,0.090069,0.020633,1.005038
2011-09-29T13:55:02.925847,2930,0.096293,-0.095634,2.279621,0.090656,0.019996,1.006629
2011-09-29T13:55:02.935847,2940,0.113202,-0.045005,2.310768,0.091244,0.019359,1.008219
2011-09-29T13:55:02.945847,2950,0.130110,0.005624,2.341916,0.091832,0.018723,1.009809
2011-09-29T13:55:02.955847,2960,0.147019,0.056253,2.373063,0.092419,0.018086,1.011399
2011-09-29T13:55:02.965847,2970,0.163927,0.106883,2.404210,0.093007,0.017449,1.012989
2011-09-29T13:55:02.975847,2980,0.180836,0.157512,2.435357,0.093595,0.016812,1.014579
2011-09-29T13:55:02.985847,2990,0.197744,0.208141,2.466504,0.094182,0.016175,1.016169
2011-09-29T13:55:02.995847,3000,0.214653,0.258770,2.497652,0.094770,0.015539,1.017760
2011-09-29T13:55:03.005847,3010,0.232866,0.308419,2.527930,0.095370,0.015016,1.019189
2011-09-29T13:55:03.015847,3020,0.282077,0.334774,2.537563,0.096273,0.017199,1.016790
2011-09-29T13:55:03.025847,3030,0.331288,0.361129,2.547197,0.097176,0.019383,1.014392
2011-09-29T13:55:03.035847,3040,0.380499,0.387485,2.556830,0.098079,0.021566,1.011994
2011-09-29T13:55:03.045847,3050,0.429710,0.413840,2.566463,0.098982,0.023750,1.009596
2011-09-29T13:55:03.055847,3060,0.478921,0.440195,2.576097,0.099884,0.025934,1.007198
2011-09-29T13:55:03.065847,3070,0.528132,0.466551,2.585730,0.100787,0.028117,1.004800
2011-09-29T13:55:03.075847,3080,0.577343,0.492906,2.595363,0.101690,0.030301,1.002402
2011-09-29T13:55:03.085847,3090,0.626555,0.519262,2.604997,0.102593,0.032484,1.000004
2011-09-29T13:55:03.095847,3100,0.675766,0.545617,2.614630,0.103496,0.034668,0.997605
2011-09-29T13:55:03.105847,3110,0.724977,0.571972,2.624263,0.104398,0.036852,0.995207
2011-09-29T13:55:03.115847,3120,0.770886,0.596104,2.632774,0.105210,0.038954,0.992919
2011-09-29T13:55:03.125847,3130,0.738379,0.567417,2.614613,0.103862,0.039137,0.993247
2011-09-29T13:55:03.135847,3140,0.705873,0.538731,2.596452,0.102514,0.039319,0.993576
2011-09-29T13:55:03.145847,3150,0.673366,0.510045,2.578291,0.101165,0.039501,0.993904
2011-09-29T13:55:03.155847,3160,0.640860,0.481359,2.560129,0.099817,0.039683,0.994232
2011-09-29T13:55:03.165847,3170,0.608353,0.452673,2.541968,0.098469,0.039866,0.994560
2011-09-29T13:55:03.175847,3180,0.575847,0.423987,2.523807,0.097120,0.040048,0.994888
2011-09-29T13:55:03.185847,3190,0.543341,0.395300,2.505646,0.095772,0.040230,0.995216
2011-09-29T13:55:03.195847,3200,0.510834,0.366614,2.487485,0.094424,0.040412,0.995544
2011-09-29T13:55:03.205847,3210,0.478328,0.337928,2.469324,0.093075,0.040594,0.995872
2011-09-29T13:55:03.215847,3220,0.445851,0.308200,2.453055,0.091789,0.040657,0.995976
2011-09-29T13:55:03.225847,3230,0.414027,0.256095,2.477403,0.091835,0.038147,0.991256
2011-09-29T13:55:03.235847,3240,0.382202,0.203990,2.501751,0.091882,0.035638,0.986536
2011-09-29T13:55:03.245847,3250,0.350377,0.151885,2.526099,0.091928,0.033128,0.981816
2011-09-29T13:55:03.255847,3260,0.318552,0.099779,2.550446,0.091974,0.030619,0.977096
2011-09-29T13:55:03.265847,3270,0.286727,0.047674,2.574794,0.092021,0.028109,0.972377
2011-09-29T13:55:03.275847,3280,0.254903,-0.004431,2.599142,0.092067,0.025600,0.967657
2011-09-29T13:55:03.285847,3290,0.223078,-0.056536,2.623490,0.092113,0.023090,0.962937
2011-09-29T13:55:03.295847,3300,0.191253,-0.108641,2.647837,0.092160,0.020581,0.958217
2011-09-29T13:55:03.305847,3310,0.159428,-0.160746,2.672185,0.092206,0.018071,0.953498
2011-09-29T13:55:03.315847,3320,0.128285,-0.213402,2.695543,0.092248,0.015730,0.949022
2011-09-29T13:55:03.325847,3330,0.120975,-0.285338,2.684285,0.092122,0.019259,0.953070
2011-09-29T13:55:03.335847,3340,0.113666,-0.357274,2.673027,0.091996,0.022788,0.957119
2011-09-29T13:55:03.345847,3350,0.106356,-0.429209,2.661769,0.091871,0.026317,0.961168
2011-09-29T13:55:03.355847,3360,0.099046,-0.501145,2.650511,0.091745,0.029846,0.965217
2011-09-29T13:55:03.365847,3370,0.091736,-0.573081,2.639253,0.091619,0.033375,0.969266
2011-09-29T13:55:03.375847,3380,0.084426,-0.645016,2.627996,0.091494,0.036904,0.973315
2011-09-29T13:55:03.385847,3390,0.077116,-0.716952,2.616738,0.091368,0.040432,0.977364
2011-09-29T13:55:03.395847,3400,0.069807,-0.788888,2.605480,0.091242,0.043961,0.981413
2011-09-29T13:55:03.405847,3410,0.062497,-0.860823,2.594222,0.091116,0.047490,0.985462
2011-09-29T13:55:03.415847,3420,0.055187,-0.932759,2.582964,0.090991,0.051019,0.989511
2011-09-29T13:55:03.425847,3430,0.047825,-0.998726,2.572463,0.090865,0.054276,0.993382
2011-09-29T13:55:03.435847,3440,0.039300,-0.932785,2.578676,0.090742,0.051502,0.993319
2011-09-29T13:55:03.445847,3450,0.030775,-0.866844,2.584889,0.090618,0.048728,0.993255
2011-09-29T13:55:03.455847,3460,0.022251,-0.800903,2.591102,0.090494,0.045954,0.993192
2011-09-29T13:55:03.465847,3470,0.013726,-0.734961,2.597315,0.090371,0.043180,0.993129
2011-09-29T13:55:03.475847,3480,0.005201,-0.669020,2.603528,0.090247,0.040406,0.993066
2011-09-29T13:55:03.485847,3490,-0.003323,-0.603079,2.609741,0.090123,0.037632,0.993003
2011-09-29T13:55:03.495847,3500,-0.011848,-0.537137,2.615954,0.090000,0.034858,0.992940
2011-09-29T13:55:03.505847,3510,-0.020373,-0.471196,2.622167,0.089876,0.032085,0.992877
2011-09-29T13:55:03.515847,3520,-0.028897,-0.405255,2.628380,0.089752,0.029311,0.992813
2011-09-29T13:55:03.525847,3530,-0.032236,-0.342769,2.636580,0.089605,0.026601,0.992681
2011-09-29T13:55:03.535847,3540,0.058583,-0.343037,2.680849,0.089037,0.025065,0.991280
2011-09-29T13:55:03.545847,3550,0.149402,-0.343305,2.725119,0.088469,0.023528,0.989880
2011-09-29T13:55:03.555847,3560,0.240222,-0.343572,2.769388,0.087901,0.021992,0.988480
2011-09-29T13:55:03.565847,3570,0.331041,-0.343840,2.813657,0.087332,0.020455,0.987080
2011-09-29T13:55:03.575847,3580,0.421860,-0.344107,2.857927,0.086764,0.018919,0.985680
2011-09-29T13:55:03.585847,3590,0.512680,-0.344375,2.902196,0.086196,0.017382,0.984280
2011-09-29T13:55:03.595847,3600,0.603499,-0.344643,2.946466,0.085628,0.015846,0.982880
2011-09-29T13:55:03.605847,3610,0.694319,-0.344910,2.990735,0.085059,0.014309,0.981480
2011-09-29T13:55:03.615847,3620,0.785138,-0.345178,3.035005,0.084491,0.012773,0.980080
2011-09-29T13:55:03.625847,3630,0.875957,-0.345445,3.079274,0.083923,0.011236,0.978680
2011-09-29T13:55:03.635847,3640,0.964289,-0.348653,3.124084,0.083308,0.009895,0.977402
2011-09-29T13:55:03.645847,3650,1.005030,-0.408102,3.179226,0.081796,0.012296,0.978466
2011-09-29T13:55:03.655847,3660,1.045771,-0.467551,3.234369,0.080285,0.014696,0.979530
2011-09-29T13:55:03.665847,3670,1.086511,-0.527000,3.289512,0.078773,0.017097,0.980594
2011-09-29T13:55:03.675847,3680,1.127252,-0.586449,3.344655,0.077261,0.019497,0.981658
2011-09-29T13:55:03.685847,3690,1.167993,-0.645897,3.399797,0.075750,0.021898,0.982722
2011-09-29T13:55:03.695847,3700,1.208734,-0.705346,3.454940,0.074238,0.024298,0.983786
2011-09-29T13:55:03.705847,3710,1.249475,-0.764795,3.510083,0.072726,0.026699,0.984850
2011-09-29T13:55:03.715847,3720,1.290216,-0.824244,3.565226,0.071215,0.029099,0.985914
2011-09-29T13:55:03.725847,3730,1.330957,-0.883692,3.620368,0.069703,0.031499,0.986977
2011-09-29T13:55:03.735847,3740,1.366311,-0.943373,3.672457,0.068306,0.034072,0.987822
2011-09-29T13:55:03.745847,3750,1.307615,-1.007099,3.671230,0.068916,0.039642,0.984840
2011-09-29T13:55:03.755847,3760,1.248919,-1.070826,3.670002,0.069526,0.045212,0.981858
2011-09-29T13:55:03.765847,3770,1.190223,-1.134552,3.668774,0.070136,0.050782,0.978876
2011-09-29T13:55:03.775847,3780,1.131527,-1.198279,3.667547,0.070746,0.056352,0.975894
2011-09-29T13:55:03.785847,3790,1.072831,-1.262005,3.666319,0.071355,0.061922,0.972912
2011-09-29T13:55:03.795847,3800,1.014135,-1.325731,3.665092,0.071965,0.067493,0.969930
2011-09-29T13:55:03.805847,3810,0.955438,-1.389458,3.663864,0.072575,0.073063,0.966948
2011-09-29T13:55:03.815847,3820,0.896742,-1.453184,3.662637,0.073185,0.078633,0.963966
2011-09-29T13:55:03.825847,3830,0.838046,-1.516911,3.661409,0.073795,0.084203,0.960983
2011-09-29T13:55:03.835847,3840,0.776325,-1.582205,3.659061,0.074366,0.089470,0.958319
2011-09-29T13:55:03.845847,3850,0.641974,-1.685139,3.629827,0.074017,0.087458,0.963272
2011-09-29T13:55:03.855847,3860,0.507622,-1.788073,3.600593,0.073668,0.085447,0.968225
2011-09-29T13:55:03.865847,3870,0.373271,-1.891008,3.571359,0.073319,0.083435,0.973179
2011-09-29T13:55:03.875847,3880,0.238920,-1.993942,3.542125,0.072969,0.081424,0.978132
2011-09-29T13:55:03.885847,3890,0.104568,-2.096876,3.512891,0.072620,0.079412,0.983085
2011-09-29T13:55:03.895847,3900,-0.029783,-2.199810,3.483657,0.072271,0.077400,0.988039
2011-09-29T13:55:03.905847,3910,-0.164134,-2.302744,3.454423,0.071922,0.075389,0.992992
2011-09-29T13:55:03.915847,3920,-0.298486,-2.405679,3.425189,0.071572,0.073377,0.997945
2011-09-29T13:55:03.925847,3930,-0.432837,-2.508613,3.395955,0.071223,0.071366,1.002899
2011-09-29T13:55:03.935847,3940,-0.567188,-2.611547,3.366721,0.070874,0.069354,1.007852
2011-09-29T13:55:03.945847,3950,-0.698684,-2.701846,3.341348,0.070605,0.067151,1.012922
2011-09-29T13:55:03.955847,3960,-0.782021,-2.579084,3.381072,0.071683,0.061710,1.019956
2011-09-29T13:55:03.965847,3970,-0.865358,-2.456321,3.420797,0.072760,0.056270,1.026991
2011-09-29T13:55:03.975847,3980,-0.948696,-2.333558,3.460521,0.073838,0.050830,1.034025
2011-09-29T13:55:03.985847,3990,-1.032033,-2.210795,3.500246,0.074916,0.045390,1.041059
2011-09-29T13:55:03.995847,4000,-1.115370,-2.088032,3.539970,0.075994,0.039949,1.048094
2011-09-29T13:55:04.005847,4010,-1.198708,-1.965269,3.579695,0.077072,0.034509,1.055128
2011-09-29T13:55:04.015847,4020,-1.282045,-1.842506,3.619419,0.078150,0.029069,1.062163
2011-09-29T13:55:04.025847,4030,-1.365382,-1.719743,3.659144,0.079227,0.023628,1.069197
2011-09-29T13:55:04.035847,4040,-1.448720,-1.596980,3.698868,0.080305,0.018188,1.076231
2011-09-29T13:55:04.045847,4050,-1.516829,-1.469849,3.736705,0.081368,0.012990,1.082703
2011-09-29T13:55:04.055847,4060,-1.330614,-1.269763,3.743029,0.082185,0.011832,1.079783
2011-09-29T13:55:04.065847,4070,-1.144399,-1.069678,3.749352,0.083002,0.010673,1.076862
2011-09-29T13:55:04.075847,4080,-0.958183,-0.869592,3.755675,0.083819,0.009515,1.073942
2011-09-29T13:55:04.085847,4090,-0.771968,-0.669506,3.761998,0.084636,0.008357,1.071021
2011-09-29T13:55:04.095847,4100,-0.585753,-0.469420,3.768321,0.085453,0.007199,1.068101
2011-09-29T13:55:04.105847,4110,-0.399538,-0.269335,3.774644,0.086270,0.006040,1.065180
2011-09-29T13:55:04.115847,4120,-0.213323,-0.069249,3.780968,0.087087,0.004882,1.062260
2011-09-29T13:55:04.125847,4130,-0.027108,0.130837,3.787291,0.087904,0.003724,1.059339
2011-09-29T13:55:04.135847,4140,0.159107,0.330923,3.793614,0.088721,0.002566,1.056419
2011-09-29T13:55:04.145847,4150,0.345323,0.531008,3.799937,0.089539,0.001408,1.053498
2011-09-29T13:55:04.155847,4160,0.529581,0.722806,3.804665,0.090140,0.000514,1.050452
2011-09-29T13:55:04.165847,4170,0.682229,0.780723,3.783618,0.087255,0.003896,1.045378
2011-09-29T13:55:04.175847,4180,0.834877,0.838641,3.762572,0.084371,0.007278,1.040305
2011-09-29T13:55:04.185847,4190,0.987525,0.896559,3.741526,0.081486,0.010661,1.035231
2011-09-29T13:55:04.195847,4200,1.140173,0.954476,3.720480,0.078602,0.014043,1.030157
2011-09-29T13:55:04.205847,4210,1.292821,1.012394,3.699433,0.075717,0.017425,1.025084
2011-09-29T13:55:04.215847,4220,1.445470,1.070311,3.678387,0.072833,0.020807,1.020010
2011-09-29T13:55:04.225847,4230,1.598118,1.128229,3.657341,0.069948,0.024189,1.014936
2011-09-29T13:55:04.235847,4240,1.750766,1.186147,3.636295,0.067064,0.027571,1.009863
2011-09-29T13:55:04.245847,4250,1.903414,1.244064,3.615249,0.064179,0.030954,1.004789
2011-09-29T13:55:04.255847,4260,2.046691,1.296152,3.593547,0.061364,0.034333,1.000061
2011-09-29T13:55:04.265847,4270,2.035994,1.252460,3.561079,0.059678,0.037670,1.001014
2011-09-29T13:55:04.275847,4280,2.025297,1.208767,3.528612,0.057991,0.041007,1.001968
2011-09-29T13:55:04.285847,4290,2.014600,1.165075,3.496144,0.056305,0.044345,1.002921
2011-09-29T13:55:04.295847,4300,2.003904,1.121382,3.463677,0.054619,0.047682,1.003874
2011-09-29T13:55:04.305847,4310,1.993207,1.077690,3.431209,0.052933,0.051019,1.004827
2011-09-29T13:55:04.315847,4320,1.982510,1.033997,3.398742,0.051247,0.054356,1.005780
2011-09-29T13:55:04.325847,4330,1.971814,0.990305,3.366274,0.049561,0.057693,1.006734
2011-09-29T13:55:04.335847,4340,1.961117,0.946612,3.333807,0.047875,0.061030,1.007687
2011-09-29T13:55:04.345847,4350,1.950420,0.902919,3.301339,0.046189,0.064367,1.008640
2011-09-29T13:55:04.355847,4360,1.936619,0.860504,3.268965,0.044535,0.067503,1.009380
2011-09-29T13:55:04.365847,4370,1.860948,0.843538,3.238449,0.043508,0.066626,1.005871
2011-09-29T13:55:04.375847,4380,1.785277,0.826572,3.207932,0.042481,0.065748,1.002362
2011-09-29T13:55:04.385847,4390,1.709606,0.809606,3.177416,0.041454,0.064870,0.998853
2011-09-29T13:55:04.395847,4400,1.633935,0.792640,3.146900,0.040427,0.063992,0.995344
2011-09-29T13:55:04.405847,4410,1.558264,0.775674,3.116383,0.039400,0.063115,0.991835
2011-09-29T13:55:04.415847,4420,1.482593,0.758708,3.085867,0.038373,0.062237,0.988326
2011-09-29T13:55:04.425847,4430,1.406922,0.741742,3.055351,0.037346,0.061359,0.984817
2011-09-29T13:55:04.435847,4440,1.331251,0.724776,3.024834,0.036319,0.060481,0.981308
2011-09-29T13:55:04.445847,4450,1.255580,0.707810,2.994318,0.035292,0.059604,0.977799
2011-09-29T13:55:04.455847,4460,1.179909,0.690844,2.963802,0.034265,0.058726,0.974290
2011-09-29T13:55:04.465847,4470,1.108586,0.667969,2.930487,0.033247,0.057792,0.971071
2011-09-29T13:55:04.475847,4480,1.103184,0.555523,2.854757,0.032356,0.055999,0.972248
2011-09-29T13:55:04.485847,4490,1.097781,0.443077,2.779026,0.031466,0.054206,0.973425
2011-09-29T13:55:04.495847,4500,1.092378,0.330631,2.703296,0.030576,0.052413,0.974601
2011-09-29T13:55:04.505847,4510,1.086976,0.218185,2.627565,0.029686,0.050620,0.975778
2011-09-29T13:55:04.515847,4520,1.081573,0.105739,2.551835,0.028795,0.048827,0.976955
2011-09-29T13:55:04.525847,4530,1.076170,-0.006706,2.476105,0.027905,0.047034,0.978132
2011-09-29T13:55:04.535847,4540,1.070768,-0.119152,2.400374,0.027015,0.045241,0.979308
2011-09-29T13:55:04.545847,4550,1.065365,-0.231598,2.324644,0.026124,0.043448,0.980485
2011-09-29T13:55:04.555847,4560,1.059962,-0.344044,2.248913,0.025234,0.041656,0.981662
2011-09-29T13:55:04.565847,4570,1.052210,-0.451649,2.172917,0.024419,0.040118,0.982926
2011-09-29T13:55:04.575847,4580,1.004923,-0.477808,2.092445,0.024869,0.042880,0.985666
2011-09-29T13:55:04.585847,4590,0.957636,-0.503966,2.011973,0.025319,0.045642,0.988405
2011-09-29T13:55:04.595847,4600,0.910349,-0.530125,1.931500,0.025768,0.048403,0.991144
2011-09-29T13:55:04.605847,4610,0.863062,-0.556284,1.851028,0.026218,0.051165,0.993883
2011-09-29T13:55:04.615847,4620,0.815775,-0.582442,1.770556,0.026668,0.053927,0.996622
2011-09-29T13:55:04.625847,4630,0.768488,-0.608601,1.690084,0.027117,0.056689,0.999362
2011-09-29T13:55:04.635847,4640,0.721201,-0.634760,1.609612,0.027567,0.059450,1.002101
2011-09-29T13:55:04.645847,4650,0.673914,-0.660918,1.529140,0.028017,0.062212,1.004840
2011-09-29T13:55:04.655847,4660,0.626627,-0.687077,1.448667,0.028466,0.064974,1.007579
2011-09-29T13:55:04.665847,4670,0.578063,-0.710498,1.368602,0.028793,0.067421,1.010217
2011-09-29T13:55:04.675847,4680,0.510691,-0.693610,1.294518,0.027307,0.065228,1.011351
2011-09-29T13:55:04.685847,4690,0.443319,-0.676721,1.220434,0.025820,0.063035,1.012485
2011-09-29T13:55:04.695847,4700,0.375947,-0.659833,1.146350,0.024334,0.060843,1.013620
2011-09-29T13:55:04.705847,4710,0.308575,-0.642945,1.072266,0.022848,0.058650,1.014754
2011-09-29T13:55:04.715847,4720,0.241204,-0.626057,0.998182,0.021362,0.056457,1.015889
2011-09-29T13:55:04.725847,4730,0.173832,-0.609168,0.924098,0.019875,0.054264,1.017023
2011-09-29T13:55:04.735847,4740,0.106460,-0.592280,0.850014,0.018389,0.052072,1.018158
2011-09-29T13:55:04.745847,4750,0.039088,-0.575392,0.775930,0.016903,0.049879,1.019292
2011-09-29T13:55:04.755847,4760,-0.028284,-0.558503,0.701846,0.015417,0.047686,1.020426
2011-09-29T13:55:04.765847,4770,-0.095656,-0.541615,0.627762,0.013930,0.045493,1.021561
2011-09-29T13:55:04.775847,4780,-0.163605,-0.521882,0.553261,0.012586,0.043458,1.022422
2011-09-29T13:55:04.785847,4790,-0.240509,-0.458051,0.472286,0.013448,0.043859,1.019041
2011-09-29T13:55:04.795847,4800,-0.317413,-0.394220,0.391311,0.014309,0.044260,1.015660
2011-09-29T13:55:04.805847,4810,-0.394316,-0.330389,0.310336,0.015171,0.044661,1.012280
2011-09-29T13:55:04.815847,4820,-0.471220,-0.266558,0.229362,0.016032,0.045062,1.008899
2011-09-29T13:55:04.825847,4830,-0.548124,-0.202727,0.148387,0.016894,0.045463,1.005519
2011-09-29T13:55:04.835847,4840,-0.625027,-0.138895,0.067412,0.017755,0.045864,1.002138
2011-09-29T13:55:04.845847,4850,-0.701931,-0.075064,-0.013562,0.018617,0.046265,0.998757
2011-09-29T13:55:04.855847,4860,-0.778835,-0.011233,-0.094537,0.019478,0.046666,0.995377
2011-09-29T13:55:04.865847,4870,-0.855738,0.052598,-0.175512,0.020340,0.047067,0.991996
2011-09-29T13:55:04.875847,4880,-0.927103,0.110617,-0.259735,0.021064,0.047329,0.988511
2011-09-29T13:55:04.885847,4890,-0.914504,0.080534,-0.393191,0.019706,0.045482,0.983438
2011-09-29T13:55:04.895847,4900,-0.901905,0.050451,-0.526647,0.018349,0.043636,0.978365
2011-09-29T13:55:04.905847,4910,-0.889306,0.020368,-0.660103,0.016991,0.041789,0.973292
2011-09-29T13:55:04.915847,4920,-0.876707,-0.009715,-0.793559,0.015633,0.039943,0.968219
2011-09-29T13:55:04.925847,4930,-0.864108,-0.039798,-0.927015,0.014275,0.038096,0.963145
2011-09-29T13:55:04.935847,4940,-0.851509,-0.069881,-1.060471,0.012918,0.036250,0.958072
2011-09-29T13:55:04.945847,4950,-0.838910,-0.099964,-1.193927,0.011560,0.034403,0.952999
2011-09-29T13:55:04.955847,4960,-0.826311,-0.130047,-1.327383,0.010202,0.032557,0.947926
2011-09-29T13:55:04.965847,4970,-0.813712,-0.160130,-1.460839,0.008844,0.030710,0.942853
2011-09-29T13:55:04.975847,4980,-0.801113,-0.190212,-1.594295,0.007487,0.028864,0.937780
2011-09-29T13:55:04.985847,4990,-0.785498,-0.227019,-1.726617,0.006199,0.027133,0.933386
2011-09-29T13:55:04.995847,5000,-0.724022,-0.366081,-1.841680,0.005979,0.027170,0.939312
2011-09-29T13:55:05.005847,5010,-0.662546,-0.505144,-1.956744,0.005759,0.027207,0.945238
2011-09-29T13:55:05.015847,5020,-0.601070,-0.644206,-2.071807,0.005538,0.027244,0.951164
2011-09-29T13:55:05.025847,5030,-0.539593,-0.783269,-2.186871,0.005318,0.027281,0.957091
2011-09-29T13:55:05.035847,5040,-0.478117,-0.922331,-2.301934,0.005098,0.027318,0.963017
2011-09-29T13:55:05.045847,5050,-0.416641,-1.061394,-2.416998,0.004877,0.027355,0.968943
2011-09-29T13:55:05.055847,5060,-0.355164,-1.200456,-2.532061,0.004657,0.027392,0.974870
2011-09-29T13:55:05.065847,5070,-0.293688,-1.339519,-2.647125,0.004437,0.027429,0.980796
2011-09-29T13:55:05.075847,5080,-0.232212,-1.478581,-2.762188,0.004216,0.027466,0.986722
2011-09-29T13:55:05.085847,5090,-0.186104,-1.600783,-2.872736,0.004064,0.027537,0.992598
2011-09-29T13:55:05.095847,5100,-0.344888,-1.498201,-2.923079,0.004809,0.028071,0.997802
2011-09-29T13:55:05.105847,5110,-0.503673,-1.395619,-2.973422,0.005555,0.028605,1.003005
2011-09-29T13:55:05.115847,5120,-0.662457,-1.293037,-3.023766,0.006301,0.029138,1.008209
2011-09-29T13:55:05.125847,5130,-0.821241,-1.190455,-3.074109,0.007046,0.029672,1.013412
2011-09-29T13:55:05.135847,5140,-0.980025,-1.087873,-3.124452,0.007792,0.030205,1.018616
2011-09-29T13:55:05.145847,5150,-1.138809,-0.985291,-3.174795,0.008538,0.030739,1.023820
2011-09-29T13:55:05.155847,5160,-1.297593,-0.882709,-3.225139,0.009283,0.031273,1.029023
2011-09-29T13:55:05.165847,5170,-1.456377,-0.780126,-3.275482,0.010029,0.031806,1.034227
2011-09-29T13:55:05.175847,5180,-1.615162,-0.677544,-3.325825,0.010775,0.032340,1.039431
2011-09-29T13:55:05.185847,5190,-1.757758,-0.582505,-3.373836,0.011442,0.032561,1.044199
2011-09-29T13:55:05.195847,5200,-1.684622,-0.587990,-3.390753,0.011063,0.028624,1.043160
2011-09-29T13:55:05.205847,5210,-1.611487,-0.593474,-3.407670,0.010684,0.024686,1.042121
2011-09-29T13:55:05.215847,5220,-1.538352,-0.598958,-3.424587,0.010305,0.020749,1.041082
2011-09-29T13:55:05.225847,5230,-1.465216,-0.604442,-3.441505,0.009925,0.016811,1.040044
2011-09-29T13:55:05.235847,5240,-1.392081,-0.609927,-3.458422,0.009546,0.012874,1.039005
2011-09-29T13:55:05.245847,5250,-1.318946,-0.615411,-3.475339,0.009167,0.008936,1.037966
2011-09-29T13:55:05.255847,5260,-1.245810,-0.620895,-3.492256,0.008788,0.004999,1.036927
2011-09-29T13:55:05.265847,5270,-1.172675,-0.626379,-3.509174,0.008409,0.001061,1.035889
2011-09-29T13:55:05.275847,5280,-1.099540,-0.631864,-3.526091,0.008030,-0.002876,1.034850
2011-09-29T13:55:05.285847,5290,-1.026405,-0.637348,-3.543008,0.007650,-0.006814,1.033811
2011-09-29T13:55:05.295847,5300,-0.951388,-0.639779,-3.558381,0.007267,-0.010612,1.032782
2011-09-29T13:55:05.305847,5310,-0.842070,-0.586558,-3.545605,0.006803,-0.011871,1.031920
2011-09-29T13:55:05.315847,5320,-0.732752,-0.533338,-3.532829,0.006338,-0.013130,1.031058
2011-09-29T13:55:05.325847,5330,-0.623434,-0.480117,-3.520052,0.005874,-0.014389,1.030196
2011-09-29T13:55:05.335847,5340,-0.514116,-0.426896,-3.507276,0.005410,-0.015647,1.029334
2011-09-29T13:55:05.345847,5350,-0.404799,-0.373675,-3.494500,0.004946,-0.016906,1.028472
2011-09-29T13:55:05.355847,5360,-0.295481,-0.320454,-3.481723,0.004482,-0.018165,1.027610
2011-09-29T13:55:05.365847,5370,-0.186163,-0.267233,-3.468947,0.004017,-0.019424,1.026748
2011-09-29T13:55:05.375847,5380,-0.076845,-0.214013,-3.456170,0.003553,-0.020683,1.025886
2011-09-29T13:55:05.385847,5390,0.032472,-0.160792,-3.443394,0.003089,-0.021942,1.025024
2011-09-29T13:55:05.395847,5400,0.150029,-0.109275,-3.432984,0.002589,-0.023069,1.024031
2011-09-29T13:55:05.405847,5410,0.378594,-0.080719,-3.454451,0.001608,-0.022411,1.021272
2011-09-29T13:55:05.415847,5420,0.607159,-0.052162,-3.475917,0.000628,-0.021754,1.018512
2011-09-29T13:55:05.425847,5430,0.835724,-0.023606,-3.497384,-0.000353,-0.021096,1.015753
2011-09-29T13:55:05.435847,5440,1.064289,0.004951,-3.518851,-0.001334,-0.020439,1.012994
2011-09-29T13:55:05.445847,5450,1.292853,0.033507,-3.540318,-0.002315,-0.019781,1.010234
2011-09-29T13:55:05.455847,5460,1.521418,0.062064,-3.561785,-0.003296,-0.019124,1.007475
2011-09-29T13:55:05.465847,5470,1.749983,0.090620,-3.583252,-0.004276,-0.018466,1.004715
2011-09-29T13:55:05.475847,5480,1.978548,0.119177,-3.604719,-0.005257,-0.017809,1.001956
2011-09-29T13:55:05.485847,5490,2.207113,0.147733,-3.626186,-0.006238,-0.017151,0.999197
2011-09-29T13:55:05.495847,5500,2.435678,0.176290,-3.647652,-0.007219,-0.016494,0.996437
2011-09-29T13:55:05.505847,5510,2.644552,0.201900,-3.666742,-0.008103,-0.015494,0.993789
2011-09-29T13:55:05.515847,5520,2.608428,0.190844,-3.656251,-0.007785,-0.010234,0.992527
2011-09-29T13:55:05.525847,5530,2.572304,0.179788,-3.645760,-0.007468,-0.004974,0.991265
2011-09-29T13:55:05.535847,5540,2.536179,0.168733,-3.635269,-0.007150,0.000286,0.990003
2011-09-29T13:55:05.545847,5550,2.500055,0.157677,-3.624778,-0.006833,0.005546,0.988741
2011-09-29T13:55:05.555847,5560,2.463930,0.146621,-3.614287,-0.006515,0.010807,0.987479
2011-09-29T13:55:05.565847,5570,2.427806,0.135566,-3.603796,-0.006198,0.016067,0.986217
2011-09-29T13:55:05.575847,5580,2.391681,0.124510,-3.593305,-0.005880,0.021327,0.984955
2011-09-29T13:55:05.585847,5590,2.355557,0.113454,-3.582814,-0.005563,0.026587,0.983693
2011-09-29T13:55:05.595847,5600,2.319433,0.102399,-3.572323,-0.005245,0.031847,0.982431
2011-09-29T13:55:05.605847,5610,2.272741,0.090000,-3.565301,-0.005002,0.037003,0.981312
2011-09-29T13:55:05.615847,5620,2.093433,0.060746,-3.601813,-0.005691,0.040858,0.981996
2011-09-29T13:55:05.625847,5630,1.914125,0.031493,-3.638326,-0.006381,0.044712,0.982680
2011-09-29T13:55:05.635847,5640,1.734817,0.002240,-3.674838,-0.007070,0.048567,0.983363
2011-09-29T13:55:05.645847,5650,1.555509,-0.027014,-3.711351,-0.007759,0.052421,0.984047
2011-09-29T13:55:05.655847,5660,1.376201,-0.056267,-3.747863,-0.008449,0.056275,0.984730
2011-09-29T13:55:05.665847,5670,1.196893,-0.085520,-3.784376,-0.009138,0.060130,0.985414
2011-09-29T13:55:05.675847,5680,1.017585,-0.114774,-3.820888,-0.009827,0.063984,0.986097
2011-09-29T13:55:05.685847,5690,0.838277,-0.144027,-3.857401,-0.010517,0.067839,0.986781
2011-09-29T13:55:05.695847,5700,0.658969,-0.173280,-3.893913,-0.011206,0.071693,0.987464
2011-09-29T13:55:05.705847,5710,0.481057,-0.199945,-3.926920,-0.011869,0.074893,0.988197
2011-09-29T13:55:05.715847,5720,0.321307,-0.192937,-3.914324,-0.012192,0.069583,0.989575
2011-09-29T13:55:05.725847,5730,0.161557,-0.185930,-3.901727,-0.012514,0.064272,0.990953
2011-09-29T13:55:05.735847,5740,0.001807,-0.178922,-3.889131,-0.012837,0.058962,0.992330
2011-09-29T13:55:05.745847,5750,-0.157943,-0.171914,-3.876535,-0.013160,0.053652,0.993708
2011-09-29T13:55:05.755847,5760,-0.317693,-0.164906,-3.863938,-0.013482,0.048341,0.995086
2011-09-29T13:55:05.765847,5770,-0.477443,-0.157899,-3.851342,-0.013805,0.043031,0.996463
2011-09-29T13:55:05.775847,5780,-0.637193,-0.150891,-3.838746,-0.014127,0.037720,0.997841
2011-09-29T13:55:05.785847,5790,-0.796943,-0.143883,-3.826149,-0.014450,0.032410,0.999219
2011-09-29T13:55:05.795847,5800,-0.956693,-0.136875,-3.813553,-0.014772,0.027100,1.000596
2011-09-29T13:55:05.805847,5810,-1.116443,-0.129868,-3.800957,-0.015095,0.021789,1.001974
2011-09-29T13:55:05.815847,5820,-1.269865,-0.123619,-3.786313,-0.015386,0.016691,1.003208
2011-09-29T13:55:05.825847,5830,-1.317981,-0.129994,-3.737596,-0.015152,0.015116,1.002061
2011-09-29T13:55:05.835847,5840,-1.366096,-0.136369,-3.688879,-0.014917,0.013540,1.000914
2011-09-29T13:55:05.845847,5850,-1.414212,-0.142744,-3.640162,-0.014683,0.011965,0.999767
2011-09-29T13:55:05.855847,5860,-1.462328,-0.149119,-3.591445,-0.014448,0.010390,0.998620
2011-09-29T13:55:05.865847,5870,-1.510443,-0.155494,-3.542728,-0.014214,0.008815,0.997473
2011-09-29T13:55:05.875847,5880,-1.558559,-0.161869,-3.494011,-0.013979,0.007240,0.996326
2011-09-29T13:55:05.885847,5890,-1.606675,-0.168245,-3.445294,-0.013745,0.005665,0.995179
2011-09-29T13:55:05.895847,5900,-1.654791,-0.174620,-3.396577,-0.013510,0.004090,0.994032
2011-09-29T13:55:05.905847,5910,-1.702906,-0.180995,-3.347860,-0.013276,0.002515,0.992884
2011-09-29T13:55:05.915847,5920,-1.739338,-0.185279,-3.302829,-0.013084,0.001065,0.992045
2011-09-29T13:55:05.925847,5930,-1.630807,-0.163618,-3.303527,-0.013416,0.001178,0.995023
2011-09-29T13:55:05.935847,5940,-1.522276,-0.141956,-3.304226,-0.013749,0.001292,0.998002
2011-09-29T13:55:05.945847,5950,-1.413744,-0.120295,-3.304925,-0.014081,0.001405,1.000980
2011-09-29T13:55:05.955847,5960,-1.305213,-0.098634,-3.305624,-0.014414,0.001518,1.003958
2011-09-29T13:55:05.965847,5970,-1.196682,-0.076973,-3.306322,-0.014746,0.001631,1.006936
2011-09-29T13:55:05.975847,5980,-1.088150,-0.055312,-3.307021,-0.015079,0.001744,1.009915
2011-09-29T13:55:05.985847,5990,-0.979619,-0.033651,-3.307720,-0.015411,0.001857,1.012893
2011-09-29T13:55:05.995847,6000,-0.871087,-0.011989,-3.308419,-0.015743,0.001970,1.015871
2011-09-29T13:55:06.005847,6010,-0.762556,0.009672,-3.309117,-0.016076,0.002083,1.018849
2011-09-29T13:55:06.015847,6020,-0.654025,0.031333,-3.309816,-0.016408,0.002196,1.021828
2011-09-29T13:55:06.025847,6030,-0.549360,0.054387,-3.308444,-0.016729,0.002263,1.024429
2011-09-29T13:55:06.035847,6040,-0.488392,0.093180,-3.283673,-0.016912,0.001803,1.022772
2011-09-29T13:55:06.045847,6050,-0.427423,0.131974,-3.258902,-0.017095,0.001343,1.021115
2011-09-29T13:55:06.055847,6060,-0.366455,0.170767,-3.234130,-0.017278,0.000883,1.019457
2011-09-29T13:55:06.065847,6070,-0.305486,0.209561,-3.209359,-0.017461,0.000423,1.017800
2011-09-29T13:55:06.075847,6080,-0.244518,0.248354,-3.184588,-0.017644,-0.000037,1.016143
2011-09-29T13:55:06.085847,6090,-0.183549,0.287147,-3.159816,-0.017827,-0.000497,1.014485
2011-09-29T13:55:06.095847,6100,-0.122580,0.325941,-3.135045,-0.018010,-0.000957,1.012828
2011-09-29T13:55:06.105847,6110,-0.061612,0.364734,-3.110274,-0.018193,-0.001417,1.011171
2011-09-29T13:55:06.115847,6120,-0.000643,0.403527,-3.085502,-0.018376,-0.001877,1.009513
2011-09-29T13:55:06.125847,6130,0.062336,0.437463,-3.059542,-0.018588,-0.002352,1.007907
2011-09-29T13:55:06.135847,6140,0.148199,0.416130,-3.020059,-0.019123,-0.002992,1.006879
2011-09-29T13:55:06.145847,6150,0.234063,0.394797,-2.980575,-0.019657,-0.003631,1.005851
2011-09-29T13:55:06.155847,6160,0.319926,0.373463,-2.941091,-0.020192,-0.004271,1.004823
2011-09-29T13:55:06.165847,6170,0.405789,0.352130,-2.901607,-0.020727,-0.004911,1.003795
2011-09-29T13:55:06.175847,6180,0.491652,0.330796,-2.862124,-0.021261,-0.005551,1.002767
2011-09-29T13:55:06.185847,6190,0.577515,0.309463,-2.822640,-0.021796,-0.006190,1.001739
2011-09-29T13:55:06.195847,6200,0.663379,0.288129,-2.783156,-0.022330,-0.006830,1.000711
2011-09-29T13:55:06.205847,6210,0.749242,0.266796,-2.743672,-0.022865,-0.007470,0.999683
2011-09-29T13:55:06.215847,6220,0.835105,0.245462,-2.704189,-0.023400,-0.008110,0.998656
2011-09-29T13:55:06.225847,6230,0.920042,0.224210,-2.662986,-0.023880,-0.008500,0.997722
2011-09-29T13:55:06.235847,6240,0.994974,0.203840,-2.603206,-0.023777,-0.006192,0.997811
2011-09-29T13:55:06.245847,6250,1.069906,0.183470,-2.543426,-0.023673,-0.003884,0.997900
2011-09-29T13:55:06.255847,6260,1.144838,0.163100,-2.483646,-0.023570,-0.001575,0.997989
2011-09-29T13:55:06.265847,6270,1.219770,0.142730,-2.423866,-0.023466,0.000733,0.998077
2011-09-29T13:55:06.275847,6280,1.294702,0.122360,-2.364086,-0.023362,0.003041,0.998166
2011-09-29T13:55:06.285847,6290,1.369634,0.101990,-2.304306,-0.023259,0.005349,0.998255
2011-09-29T13:55:06.295847,6300,1.444566,0.081620,-2.244526,-0.023155,0.007657,0.998344
2011-09-29T13:55:06.305847,6310,1.519498,0.061250,-2.184746,-0.023052,0.009965,0.998433
2011-09-29T13:55:06.315847,6320,1.594430,0.040880,-2.124966,-0.022948,0.012273,0.998522
2011-09-29T13:55:06.325847,6330,1.669361,0.020510,-2.065186,-0.022845,0.014581,0.998610
2011-09-29T13:55:06.335847,6340,1.741626,0.001521,-2.009760,-0.022675,0.016881,0.998718
2011-09-29T13:55:06.345847,6350,1.780325,-0.000094,-2.009139,-0.021682,0.019078,0.999060
2011-09-29T13:55:06.355847,6360,1.819024,-0.001708,-2.008517,-0.020689,0.021275,0.999402
2011-09-29T13:55:06.365847,6370,1.857723,-0.003322,-2.007895,-0.019696,0.023472,0.999744
2011-09-29T13:55:06.375847,6380,1.896422,-0.004937,-2.007273,-0.018703,0.025668,1.000086
2011-09-29T13:55:06.385847,6390,1.935120,-0.006551,-2.006651,-0.017710,0.027865,1.000428
2011-09-29T13:55:06.395847,6400,1.973819,-0.008166,-2.006029,-0.016717,0.030062,1.000770
2011-09-29T13:55:06.405847,6410,2.012518,-0.009780,-2.005408,-0.015724,0.032259,1.001112
2011-09-29T13:55:06.415847,6420,2.051217,-0.011394,-2.004786,-0.014731,0.034456,1.001454
2011-09-29T13:55:06.425847,6430,2.089916,-0.013009,-2.004164,-0.013738,0.036652,1.001796
2011-09-29T13:55:06.435847,6440,2.118147,-0.012013,-2.000410,-0.013015,0.038631,1.002167
2011-09-29T13:55:06.445847,6450,2.035115,0.016723,-1.963368,-0.015151,0.038287,1.002849
2011-09-29T13:55:06.455847,6460,1.952083,0.045460,-1.926325,-0.017287,0.037943,1.003530
2011-09-29T13:55:06.465847,6470,1.869051,0.074197,-1.889282,-0.019423,0.037600,1.004212
2011-09-29T13:55:06.475847,6480,1.786019,0.102934,-1.852239,-0.021560,0.037256,1.004894
2011-09-29T13:55:06.485847,6490,1.702987,0.131670,-1.815197,-0.023696,0.036912,1.005575
2011-09-29T13:55:06.495847,6500,1.619955,0.160407,-1.778154,-0.025832,0.036569,1.006257
2011-09-29T13:55:06.505847,6510,1.536923,0.189144,-1.741111,-0.027968,0.036225,1.006938
2011-09-29T13:55:06.515847,6520,1.453891,0.217880,-1.704068,-0.030104,0.035881,1.007620
2011-09-29T13:55:06.525847,6530,1.370859,0.246617,-1.667026,-0.032241,0.035537,1.008301
2011-09-29T13:55:06.535847,6540,1.287827,0.275354,-1.629983,-0.034377,0.035194,1.008983
2011-09-29T13:55:06.545847,6550,1.201630,0.297923,-1.594618,-0.036777,0.035103,1.009512
2011-09-29T13:55:06.555847,6560,1.080265,0.251989,-1.577889,-0.042106,0.037821,1.008353
2011-09-29T13:55:06.565847,6570,0.958901,0.206055,-1.561161,-0.047436,0.040538,1.007193
2011-09-29T13:55:06.575847,6580,0.837537,0.160121,-1.544432,-0.052765,0.043256,1.006034
2011-09-29T13:55:06.585847,6590,0.716172,0.114187,-1.527703,-0.058095,0.045974,1.004874
2011-09-29T13:55:06.595847,6600,0.594808,0.068253,-1.510975,-0.063424,0.048691,1.003714
2011-09-29T13:55:06.605847,6610,0.473444,0.022319,-1.494246,-0.068754,0.051409,1.002555
2011-09-29T13:55:06.615847,6620,0.352079,-0.023616,-1.477517,-0.074083,0.054126,1.001395
2011-09-29T13:55:06.625847,6630,0.230715,-0.069550,-1.460789,-0.079413,0.056844,1.000236
2011-09-29T13:55:06.635847,6640,0.109351,-0.115484,-1.444060,-0.084742,0.059562,0.999076
2011-09-29T13:55:06.645847,6650,-0.009105,-0.159844,-1.434319,-0.090171,0.062007,0.997974
2011-09-29T13:55:06.655847,6660,-0.098404,-0.188421,-1.494634,-0.096600,0.061719,0.997440
2011-09-29T13:55:06.665847,6670,-0.187702,-0.216998,-1.554949,-0.103029,0.061431,0.996906
2011-09-29T13:55:06.675847,6680,-0.277000,-0.245575,-1.615263,-0.109459,0.061143,0.996372
2011-09-29T13:55:06.685847,6690,-0.366299,-0.274152,-1.675578,-0.115888,0.060854,0.995838
2011-09-29T13:55:06.695847,6700,-0.455597,-0.302730,-1.735893,-0.122317,0.060566,0.995305
2011-09-29T13:55:06.705847,6710,-0.544896,-0.331307,-1.796207,-0.128746,0.060278,0.994771
2011-09-29T13:55:06.715847,6720,-0.634194,-0.359884,-1.856522,-0.135175,0.059990,0.994237
2011-09-29T13:55:06.725847,6730,-0.723492,-0.388461,-1.916837,-0.141604,0.059702,0.993703
2011-09-29T13:55:06.735847,6740,-0.812791,-0.417038,-1.977152,-0.148033,0.059414,0.993169
2011-09-29T13:55:06.745847,6750,-0.900133,-0.445106,-2.031924,-0.154019,0.058832,0.992742
2011-09-29T13:55:06.755847,6760,-0.967495,-0.467969,-2.030099,-0.155486,0.055252,0.993402
2011-09-29T13:55:06.765847,6770,-1.034858,-0.490832,-2.028273,-0.156953,0.051672,0.994063
2011-09-29T13:55:06.775847,6780,-1.102220,-0.513695,-2.026447,-0.158419,0.048092,0.994723
2011-09-29T13:55:06.785847,6790,-1.169583,-0.536558,-2.024621,-0.159886,0.044512,0.995383
2011-09-29T13:55:06.795847,6800,-1.236946,-0.559421,-2.022796,-0.161353,0.040932,0.996044
2011-09-29T13:55:06.805847,6810,-1.304308,-0.582285,-2.020970,-0.162819,0.037352,0.996704
2011-09-29T13:55:06.815847,6820,-1.371671,-0.605148,-2.019144,-0.164286,0.033772,0.997364
2011-09-29T13:55:06.825847,6830,-1.439033,-0.628011,-2.017318,-0.165753,0.030192,0.998025
2011-09-29T13:55:06.835847,6840,-1.506396,-0.650874,-2.015492,-0.167219,0.026612,0.998685
2011-09-29T13:55:06.845847,6850,-1.573758,-0.673737,-2.013667,-0.168686,0.023032,0.999345
2011-09-29T13:55:06.855847,6860,-1.628166,-0.693245,-2.013229,-0.170088,0.019656,0.999904
2011-09-29T13:55:06.865847,6870,-1.546649,-0.677553,-2.027357,-0.170819,0.018428,0.999401
2011-09-29T13:55:06.875847,6880,-1.465131,-0.661861,-2.041484,-0.171549,0.017200,0.998898
2011-09-29T13:55:06.885847,6890,-1.383613,-0.646169,-2.055612,-0.172279,0.015973,0.998395
2011-09-29T13:55:06.895847,6900,-1.302096,-0.630476,-2.069739,-0.173010,0.014745,0.997892
2011-09-29T13:55:06.905847,6910,-1.220578,-0.614784,-2.083867,-0.173740,0.013517,0.997389
2011-09-29T13:55:06.915847,6920,-1.139060,-0.599092,-2.097995,-0.174470,0.012289,0.996886
2011-09-29T13:55:06.925847,6930,-1.057542,-0.583400,-2.112122,-0.175201,0.011061,0.996383
2011-09-29T13:55:06.935847,6940,-0.976025,-0.567707,-2.126250,-0.175931,0.009833,0.995880
2011-09-29T13:55:06.945847,6950,-0.894507,-0.552015,-2.140377,-0.176661,0.008606,0.995377
2011-09-29T13:55:06.955847,6960,-0.812084,-0.536949,-2.159715,-0.177365,0.007582,0.994967
2011-09-29T13:55:06.965847,6970,-0.720579,-0.528159,-2.231302,-0.177800,0.008608,0.995481
2011-09-29T13:55:06.975847,6980,-0.629074,-0.519370,-2.302889,-0.178235,0.009634,0.995995
2011-09-29T13:55:06.985847,6990,-0.537569,-0.510580,-2.374476,-0.178669,0.010660,0.996509
2011-09-29T13:55:06.995847,7000,-0.446064,-0.501790,-2.446063,-0.179104,0.011686,0.997023
2011-09-29T13:55:07.005847,7010,-0.354559,-0.493001,-2.517650,-0.179539,0.012712,0.997537
2011-09-29T13:55:07.015847,7020,-0.263054,-0.484211,-2.589237,-0.179974,0.013738,0.998052
2011-09-29T13:55:07.025847,7030,-0.171549,-0.475422,-2.660824,-0.180409,0.014764,0.998566
2011-09-29T13:55:07.035847,7040,-0.080044,-0.466632,-2.732411,-0.180844,0.015791,0.999080
2011-09-29T13:55:07.045847,7050,0.011461,-0.457843,-2.803998,-0.181279,0.016817,0.999594
2011-09-29T13:55:07.055847,7060,0.103273,-0.452067,-2.869537,-0.181650,0.017648,1.000072
2011-09-29T13:55:07.065847,7070,0.198049,-0.475411,-2.876655,-0.181405,0.016600,1.000194
2011-09-29T13:55:07.075847,7080,0.292825,-0.498755,-2.883773,-0.181161,0.015551,1.000316
2011-09-29T13:55:07.085847,7090,0.387601,-0.522099,-2.890892,-0.180917,0.014503,1.000439
2011-09-29T13:55:07.095847,7100,0.482377,-0.545443,-2.898010,-0.180672,0.013454,1.000561
2011-09-29T13:55:07.105847,7110,0.577153,-0.568787,-2.905128,-0.180428,0.012406,1.000684
2011-09-29T13:55:07.115847,7120,0.671929,-0.592131,-2.912246,-0.180184,0.011358,1.000806
2011-09-29T13:55:07.125847,7130,0.766705,-0.615475,-2.919364,-0.179939,0.010309,1.000928
2011-09-29T13:55:07.135847,7140,0.861481,-0.638819,-2.926482,-0.179695,0.009261,1.001051
2011-09-29T13:55:07.145847,7150,0.956257,-0.662162,-2.933600,-0.179451,0.008212,1.001173
2011-09-29T13:55:07.155847,7160,1.051033,-0.685506,-2.940718,-0.179207,0.007164,1.001296
2011-09-29T13:55:07.165847,7170,1.136476,-0.704677,-2.943485,-0.178972,0.006414,1.001389
2011-09-29T13:55:07.175847,7180,1.128111,-0.681900,-2.902515,-0.178831,0.008669,1.001191
2011-09-29T13:55:07.185847,7190,1.119745,-0.659123,-2.861545,-0.178691,0.010924,1.000994
2011-09-29T13:55:07.195847,7200,1.111379,-0.636346,-2.820575,-0.178551,0.013179,1.000796
2011-09-29T13:55:07.205847,7210,1.103013,-0.613569,-2.779604,-0.178411,0.015434,1.000598
2011-09-29T13:55:07.215847,7220,1.094648,-0.590791,-2.738634,-0.178271,0.017689,1.000401
2011-09-29T13:55:07.225847,7230,1.086282,-0.568014,-2.697664,-0.178131,0.019944,1.000203
2011-09-29T13:55:07.235847,7240,1.077916,-0.545237,-2.656694,-0.177991,0.022199,1.000005
2011-09-29T13:55:07.245847,7250,1.069550,-0.522460,-2.615724,-0.177851,0.024454,0.999808
2011-09-29T13:55:07.255847,7260,1.061185,-0.499683,-2.574754,-0.177711,0.026709,0.999610
2011-09-29T13:55:07.265847,7270,1.055678,-0.482877,-2.535104,-0.177664,0.028744,0.999116
2011-09-29T13:55:07.275847,7280,1.080100,-0.528595,-2.509281,-0.178592,0.028485,0.995526
2011-09-29T13:55:07.285847,7290,1.104523,-0.574314,-2.483457,-0.179521,0.028225,0.991936
2011-09-29T13:55:07.295847,7300,1.128946,-0.620032,-2.457634,-0.180450,0.027966,0.988345
2011-09-29T13:55:07.305847,7310,1.153369,-0.665750,-2.431811,-0.181378,0.027706,0.984755
2011-09-29T13:55:07.315847,7320,1.177791,-0.711469,-2.405987,-0.182307,0.027446,0.981165
2011-09-29T13:55:07.325847,7330,1.202214,-0.757187,-2.380164,-0.183236,0.027187,0.977575
2011-09-29T13:55:07.335847,7340,1.226637,-0.802905,-2.354340,-0.184164,0.026927,0.973984
2011-09-29T13:55:07.345847,7350,1.251060,-0.848624,-2.328517,-0.185093,0.026667,0.970394
2011-09-29T13:55:07.355847,7360,1.275482,-0.894342,-2.302694,-0.186022,0.026408,0.966804
2011-09-29T13:55:07.365847,7370,1.299905,-0.940060,-2.276870,-0.186950,0.026148,0.963213
2011-09-29T13:55:07.375847,7380,1.313838,-0.979728,-2.254550,-0.187939,0.026433,0.960489
2011-09-29T13:55:07.385847,7390,1.227834,-0.961757,-2.265607,-0.189500,0.031902,0.966012
2011-09-29T13:55:07.395847,7400,1.141831,-0.943786,-2.276664,-0.191061,0.037371,0.971534
2011-09-29T13:55:07.405847,7410,1.055827,-0.925815,-2.287720,-0.192621,0.042840,0.977057
2011-09-29T13:55:07.415847,7420,0.969824,-0.907844,-2.298777,-0.194182,0.048310,0.982580
2011-09-29T13:55:07.425847,7430,0.883820,-0.889873,-2.309834,-0.195743,0.053779,0.988103
2011-09-29T13:55:07.435847,7440,0.797817,-0.871902,-2.320891,-0.197304,0.059248,0.993626
2011-09-29T13:55:07.445847,7450,0.711813,-0.853930,-2.331947,-0.198864,0.064717,0.999149
2011-09-29T13:55:07.455847,7460,0.625810,-0.835959,-2.343004,-0.200425,0.070186,1.004672
2011-09-29T13:55:07.465847,7470,0.539806,-0.817988,-2.354061,-0.201986,0.075655,1.010195
2011-09-29T13:55:07.475847,7480,0.449133,-0.797545,-2.362287,-0.203380,0.080227,1.015204
2011-09-29T13:55:07.485847,7490,0.316002,-0.754634,-2.344779,-0.203262,0.076635,1.015544
2011-09-29T13:55:07.495847,7500,0.182871,-0.711722,-2.327272,-0.203144,0.073044,1.015884
2011-09-29T13:55:07.505847,7510,0.049741,-0.668810,-2.309764,-0.203026,0.069452,1.016224
2011-09-29T13:55:07.515847,7520,-0.083390,-0.625898,-2.292256,-0.202908,0.065861,1.016563
2011-09-29T13:55:07.525847,7530,-0.216521,-0.582987,-2.274749,-0.202790,0.062270,1.016903
2011-09-29T13:55:07.535847,7540,-0.349652,-0.540075,-2.257241,-0.202672,0.058678,1.017243
2011-09-29T13:55:07.545847,7550,-0.482782,-0.497163,-2.239733,-0.202554,0.055087,1.017583
2011-09-29T13:55:07.555847,7560,-0.615913,-0.454251,-2.222226,-0.202436,0.051495,1.017923
2011-09-29T13:55:07.565847,7570,-0.749044,-0.411339,-2.204718,-0.202318,0.047904,1.018263
2011-09-29T13:55:07.575847,7580,-0.869729,-0.371618,-2.183359,-0.202202,0.044422,1.018396
2011-09-29T13:55:07.585847,7590,-0.879009,-0.360455,-2.127529,-0.202107,0.041921,1.016678
2011-09-29T13:55:07.595847,7600,-0.888289,-0.349293,-2.071699,-0.202011,0.039419,1.014960
2011-09-29T13:55:07.605847,7610,-0.897569,-0.338130,-2.015868,-0.201915,0.036918,1.013242
2011-09-29T13:55:07.615847,7620,-0.906849,-0.326967,-1.960038,-0.201820,0.034417,1.011524
2011-09-29T13:55:07.625847,7630,-0.916129,-0.315805,-1.904208,-0.201724,0.031915,1.009805
2011-09-29T13:55:07.635847,7640,-0.925409,-0.304642,-1.848377,-0.201628,0.029414,1.008087
2011-09-29T13:55:07.645847,7650,-0.934689,-0.293479,-1.792547,-0.201533,0.026913,1.006369
2011-09-29T13:55:07.655847,7660,-0.943969,-0.282317,-1.736716,-0.201437,0.024411,1.004651
2011-09-29T13:55:07.665847,7670,-0.953249,-0.271154,-1.680886,-0.201341,0.021910,1.002933
2011-09-29T13:55:07.675847,7680,-0.962529,-0.259991,-1.625056,-0.201246,0.019409,1.001215
2011-09-29T13:55:07.685847,7690,-0.959274,-0.251349,-1.576173,-0.201281,0.017203,0.999547
2011-09-29T13:55:07.695847,7700,-0.841940,-0.265644,-1.590519,-0.202508,0.017689,0.998326
2011-09-29T13:55:07.705847,7710,-0.724605,-0.279939,-1.604865,-0.203736,0.018175,0.997106
2011-09-29T13:55:07.715847,7720,-0.607271,-0.294234,-1.619211,-0.204963,0.018661,0.995886
2011-09-29T13:55:07.725847,7730,-0.489936,-0.308528,-1.633557,-0.206190,0.019147,0.994666
2011-09-29T13:55:07.735847,7740,-0.372602,-0.322823,-1.647903,-0.207418,0.019633,0.993446
2011-09-29T13:55:07.745847,7750,-0.255268,-0.337118,-1.662249,-0.208645,0.020119,0.992226
2011-09-29T13:55:07.755847,7760,-0.137933,-0.351413,-1.676596,-0.209872,0.020605,0.991006
2011-09-29T13:55:07.765847,7770,-0.020599,-0.365708,-1.690942,-0.211100,0.021091,0.989786
2011-09-29T13:55:07.775847,7780,0.096736,-0.380003,-1.705288,-0.212327,0.021577,0.988566
2011-09-29T13:55:07.785847,7790,0.201858,-0.391660,-1.717113,-0.213578,0.022394,0.987690
2011-09-29T13:55:07.795847,7800,0.201193,-0.380465,-1.707096,-0.215028,0.026082,0.989787
2011-09-29T13:55:07.805847,7810,0.200529,-0.369271,-1.697079,-0.216478,0.029771,0.991884
2011-09-29T13:55:07.815847,7820,0.199864,-0.358076,-1.687063,-0.217928,0.033459,0.993981
2011-09-29T13:55:07.825847,7830,0.199199,-0.346881,-1.677046,-0.219378,0.037147,0.996078
2011-09-29T13:55:07.835847,7840,0.198534,-0.335686,-1.667030,-0.220828,0.040835,0.998175
2011-09-29T13:55:07.845847,7850,0.197869,-0.324492,-1.657013,-0.222278,0.044523,1.000272
2011-09-29T13:55:07.855847,7860,0.197204,-0.313297,-1.646997,-0.223728,0.048211,1.002369
2011-09-29T13:55:07.865847,7870,0.196539,-0.302102,-1.636980,-0.225178,0.051899,1.004466
2011-09-29T13:55:07.875847,7880,0.195875,-0.290908,-1.626964,-0.226628,0.055587,1.006563
2011-09-29T13:55:07.885847,7890,0.187524,-0.275760,-1.615128,-0.227902,0.058825,1.008417
2011-09-29T13:55:07.895847,7900,0.108977,-0.224507,-1.586673,-0.227567,0.057956,1.008049
2011-09-29T13:55:07.905847,7910,0.030430,-0.173254,-1.558219,-0.227232,0.057086,1.007681
2011-09-29T13:55:07.915847,7920,-0.048117,-0.122001,-1.529764,-0.226897,0.056217,1.007313
2011-09-29T13:55:07.925847,7930,-0.126664,-0.070749,-1.501309,-0.226562,0.055347,1.006945
2011-09-29T13:55:07.935847,7940,-0.205211,-0.019496,-1.472855,-0.226227,0.054478,1.006577
2011-09-29T13:55:07.945847,7950,-0.283758,0.031757,-1.444400,-0.225892,0.053608,1.006209
2011-09-29T13:55:07.955847,7960,-0.362305,0.083010,-1.415946,-0.225558,0.052739,1.005841
2011-09-29T13:55:07.965847,7970,-0.440852,0.134263,-1.387491,-0.225223,0.051869,1.005473
2011-09-29T13:55:07.975847,7980,-0.519399,0.185515,-1.359037,-0.224888,0.050999,1.005105
2011-09-29T13:55:07.985847,7990,-0.597946,0.236768,-1.330582,-0.224553,0.050130,1.004737
2011-09-29T13:55:07.995847,8000,-0.671601,0.278579,-1.300715,-0.223830,0.049115,1.004145
2011-09-29T13:55:08.005847,8010,-0.701257,0.235483,-1.258146,-0.219614,0.046790,1.001534
2011-09-29T13:55:08.015847,8020,-0.730914,0.192387,-1.215577,-0.215399,0.044465,0.998923
2011-09-29T13:55:08.025847,8030,-0.760570,0.149290,-1.173008,-0.211184,0.042140,0.996312
2011-09-29T13:55:08.035847,8040,-0.790227,0.106194,-1.130439,-0.206968,0.039816,0.993702
2011-09-29T13:55:08.045847,8050,-0.819883,0.063098,-1.087870,-0.202753,0.037491,0.991091
2011-09-29T13:55:08.055847,8060,-0.849539,0.020001,-1.045301,-0.198538,0.035166,0.988480
2011-09-29T13:55:08.065847,8070,-0.879196,-0.023095,-1.002732,-0.194322,0.032841,0.985869
2011-09-29T13:55:08.075847,8080,-0.908852,-0.066191,-0.960163,-0.190107,0.030517,0.983258
2011-09-29T13:55:08.085847,8090,-0.938509,-0.109288,-0.917594,-0.185892,0.028192,0.980647
2011-09-29T13:55:08.095847,8100,-0.962145,-0.156718,-0.877710,-0.181230,0.026116,0.978284
2011-09-29T13:55:08.105847,8110,-0.926354,-0.246923,-0.864329,-0.172164,0.026494,0.978359
2011-09-29T13:55:08.115847,8120,-0.890563,-0.337129,-0.850947,-0.163097,0.026872,0.978434
2011-09-29T13:55:08.125847,8130,-0.854772,-0.427335,-0.837566,-0.154031,0.027250,0.978508
2011-09-29T13:55:08.135847,8140,-0.818981,-0.517540,-0.824185,-0.144964,0.027628,0.978583
2011-09-29T13:55:08.145847,8150,-0.783191,-0.607746,-0.810803,-0.135898,0.028007,0.978658
2011-09-29T13:55:08.155847,8160,-0.747400,-0.697952,-0.797422,-0.126831,0.028385,0.978733
2011-09-29T13:55:08.165847,8170,-0.711609,-0.788157,-0.784040,-0.117765,0.028763,0.978808
2011-09-29T13:55:08.175847,8180,-0.675818,-0.878363,-0.770659,-0.108699,0.029141,0.978883
2011-09-29T13:55:08.185847,8190,-0.640027,-0.968569,-0.757277,-0.099632,0.029519,0.978958
2011-09-29T13:55:08.195847,8200,-0.604236,-1.058775,-0.743896,-0.090566,0.029897,0.979033
2011-09-29T13:55:08.205847,8210,-0.563562,-1.143363,-0.732023,-0.081833,0.030207,0.979320
2011-09-29T13:55:08.215847,8220,-0.482585,-1.181595,-0.732594,-0.075852,0.029956,0.981360
2011-09-29T13:55:08.225847,8230,-0.401607,-1.219827,-0.733165,-0.069872,0.029705,0.983400
2011-09-29T13:55:08.235847,8240,-0.320630,-1.258059,-0.733736,-0.063891,0.029453,0.985439
2011-09-29T13:55:08.245847,8250,-0.239653,-1.296291,-0.734307,-0.057910,0.029202,0.987479
2011-09-29T13:55:08.255847,8260,-0.158675,-1.334523,-0.734878,-0.051930,0.028950,0.989519
2011-09-29T13:55:08.265847,8270,-0.077698,-1.372755,-0.735449,-0.045949,0.028699,0.991559
2011-09-29T13:55:08.275847,8280,0.003279,-1.410987,-0.736020,-0.039969,0.028448,0.993599
2011-09-29T13:55:08.285847,8290,0.084256,-1.449219,-0.736591,-0.033988,0.028196,0.995638
2011-09-29T13:55:08.295847,8300,0.165234,-1.487452,-0.737162,-0.028008,0.027945,0.997678
2011-09-29T13:55:08.305847,8310,0.240867,-1.520211,-0.734269,-0.022300,0.027735,0.999621
2011-09-29T13:55:08.315847,8320,0.263753,-1.498954,-0.697183,-0.019287,0.027937,1.000610
2011-09-29T13:55:08.325847,8330,0.286640,-1.477697,-0.660098,-0.016274,0.028139,1.001598
2011-09-29T13:55:08.335847,8340,0.309526,-1.456439,-0.623012,-0.013261,0.028341,1.002586
2011-09-29T13:55:08.345847,8350,0.332412,-1.435182,-0.585926,-0.010248,0.028543,1.003574
2011-09-29T13:55:08.355847,8360,0.355298,-1.413925,-0.548841,-0.007235,0.028745,1.004562
2011-09-29T13:55:08.365847,8370,0.378185,-1.392667,-0.511755,-0.004221,0.028947,1.005550
2011-09-29T13:55:08.375847,8380,0.401071,-1.371410,-0.474669,-0.001208,0.029149,1.006539
2011-09-29T13:55:08.385847,8390,0.423957,-1.350153,-0.437584,0.001805,0.029351,1.007527
2011-09-29T13:55:08.395847,8400,0.446843,-1.328896,-0.400498,0.004818,0.029553,1.008515
2011-09-29T13:55:08.405847,8410,0.467841,-1.303440,-0.365667,0.007583,0.029886,1.009403
2011-09-29T13:55:08.415847,8420,0.473508,-1.243907,-0.349128,0.008335,0.031285,1.009479
2011-09-29T13:55:08.425847,8430,0.479176,-1.184374,-0.332590,0.009087,0.032683,1.009555
2011-09-29T13:55:08.435847,8440,0.484843,-1.124841,-0.316051,0.009839,0.034082,1.009631
2011-09-29T13:55:08.445847,8450,0.490510,-1.065309,-0.299513,0.010591,0.035481,1.009707
2011-09-29T13:55:08.455847,8460,0.496178,-1.005776,-0.282974,0.011343,0.036879,1.009783
2011-09-29T13:55:08.465847,8470,0.501845,-0.946243,-0.266436,0.012095,0.038278,1.009858
2011-09-29T13:55:08.475847,8480,0.507513,-0.886711,-0.249897,0.012847,0.039676,1.009934
2011-09-29T13:55:08.485847,8490,0.513180,-0.827178,-0.233359,0.013599,0.041075,1.010010
2011-09-29T13:55:08.495847,8500,0.518848,-0.767645,-0.216820,0.014351,0.042473,1.010086
2011-09-29T13:55:08.505847,8510,0.524515,-0.708112,-0.200282,0.015103,0.043872,1.010162
2011-09-29T13:55:08.515847,8520,0.524986,-0.649529,-0.182238,0.015764,0.045094,1.010137
2011-09-29T13:55:08.525847,8530,0.485261,-0.598290,-0.152554,0.015722,0.044950,1.009334
2011-09-29T13:55:08.535847,8540,0.445535,-0.547052,-0.122870,0.015680,0.044805,1.008530
2011-09-29T13:55:08.545847,8550,0.405810,-0.495813,-0.093185,0.015639,0.044661,1.007726
2011-09-29T13:55:08.555847,8560,0.366085,-0.444574,-0.063501,0.015597,0.044517,1.006922
2011-09-29T13:55:08.565847,8570,0.326359,-0.393336,-0.033817,0.015555,0.044373,1.006118
2011-09-29T13:55:08.575847,8580,0.286634,-0.342097,-0.004132,0.015513,0.044228,1.005315
2011-09-29T13:55:08.585847,8590,0.246909,-0.290858,0.025552,0.015471,0.044084,1.004511
2011-09-29T13:55:08.595847,8600,0.207183,-0.239619,0.055236,0.015430,0.043940,1.003707
2011-09-29T13:55:08.605847,8610,0.167458,-0.188381,0.084921,0.015388,0.043796,1.002903
2011-09-29T13:55:08.615847,8620,0.129224,-0.142489,0.116688,0.015324,0.043677,1.002195
2011-09-29T13:55:08.625847,8630,0.102778,-0.138856,0.164919,0.015085,0.043765,1.002239
2011-09-29T13:55:08.635847,8640,0.076332,-0.135224,0.213150,0.014847,0.043853,1.002282
2011-09-29T13:55:08.645847,8650,0.049885,-0.131592,0.261380,0.014608,0.043941,1.002326
2011-09-29T13:55:08.655847,8660,0.023439,-0.127960,0.309611,0.014369,0.044028,1.002370
2011-09-29T13:55:08.665847,8670,-0.003007,-0.124328,0.357842,0.014131,0.044116,1.002414
2011-09-29T13:55:08.675847,8680,-0.029453,-0.120696,0.406073,0.013892,0.044204,1.002457
2011-09-29T13:55:08.685847,8690,-0.055899,-0.117064,0.454304,0.013654,0.044291,1.002501
2011-09-29T13:55:08.695847,8700,-0.082345,-0.113432,0.502534,0.013415,0.044379,1.002545
2011-09-29T13:55:08.705847,8710,-0.108791,-0.109800,0.550765,0.013176,0.044467,1.002589
2011-09-29T13:55:08.715847,8720,-0.135238,-0.106168,0.598996,0.012938,0.044554,1.002633
2011-09-29T13:55:08.725847,8730,-0.159754,-0.102133,0.648449,0.012753,0.044538,1.002646
2011-09-29T13:55:08.735847,8740,-0.168841,-0.094874,0.707672,0.013000,0.043692,1.002415
2011-09-29T13:55:08.745847,8750,-0.177928,-0.087615,0.766895,0.013246,0.042846,1.002184
2011-09-29T13:55:08.755847,8760,-0.187014,-0.080356,0.826118,0.013493,0.042000,1.001953
2011-09-29T13:55:08.765847,8770,-0.196101,-0.073097,0.885341,0.013740,0.041153,1.001722
2011-09-29T13:55:08.775847,8780,-0.205188,-0.065839,0.944563,0.013987,0.040307,1.001490
2011-09-29T13:55:08.785847,8790,-0.214275,-0.058580,1.003786,0.014233,0.039461,1.001259
2011-09-29T13:55:08.795847,8800,-0.223362,-0.051321,1.063009,0.014480,0.038615,1.001028
2011-09-29T13:55:08.805847,8810,-0.232449,-0.044062,1.122232,0.014727,0.037769,1.000797
2011-09-29T13:55:08.815847,8820,-0.241536,-0.036803,1.181455,0.014974,0.036922,1.000566
2011-09-29T13:55:08.825847,8830,-0.248270,-0.029703,1.241030,0.015161,0.036150,1.000344
2011-09-29T13:55:08.835847,8840,-0.232744,-0.024097,1.303929,0.014788,0.036075,1.000201
2011-09-29T13:55:08.845847,8850,-0.217218,-0.018491,1.366829,0.014416,0.036001,1.000058
2011-09-29T13:55:08.855847,8860,-0.201692,-0.012886,1.429728,0.014043,0.035926,0.999916
2011-09-29T13:55:08.865847,8870,-0.186166,-0.007280,1.492628,0.013670,0.035851,0.999773
2011-09-29T13:55:08.875847,8880,-0.170640,-0.001674,1.555528,0.013297,0.035777,0.999631
2011-09-29T13:55:08.885847,8890,-0.155114,0.003931,1.618427,0.012924,0.035702,0.999488
2011-09-29T13:55:08.895847,8900,-0.139588,0.009537,1.681327,0.012552,0.035627,0.999346
2011-09-29T13:55:08.905847,8910,-0.124062,0.015142,1.744226,0.012179,0.035552,0.999203
2011-09-29T13:55:08.915847,8920,-0.108536,0.020748,1.807126,0.011806,0.035478,0.999060
2011-09-29T13:55:08.925847,8930,-0.092992,0.025249,1.869618,0.011503,0.035448,0.998907
2011-09-29T13:55:08.935847,8940,-0.077315,0.021464,1.929050,0.011726,0.035755,0.998673
2011-09-29T13:55:08.945847,8950,-0.061638,0.017678,1.988482,0.011949,0.036062,0.998438
2011-09-29T13:55:08.955847,8960,-0.045960,0.013892,2.047915,0.012171,0.036369,0.998204
2011-09-29T13:55:08.965847,8970,-0.030283,0.010107,2.107347,0.012394,0.036676,0.997970
2011-09-29T13:55:08.975847,8980,-0.014606,0.006321,2.166780,0.012617,0.036983,0.997735
2011-09-29T13:55:08.985847,8990,0.001071,0.002536,2.226212,0.012839,0.037290,0.997501
2011-09-29T13:55:08.995847,9000,0.016748,-0.001250,2.285644,0.013062,0.037597,0.997267
2011-09-29T13:55:09.005847,9010,0.032425,-0.005036,2.345077,0.013285,0.037904,0.997032
2011-09-29T13:55:09.015847,9020,0.048103,-0.008821,2.404509,0.013507,0.038211,0.996798
2011-09-29T13:55:09.025847,9030,0.063780,-0.012607,2.463941,0.013730,0.038518,0.996564
2011-09-29T13:55:09.035847,9040,0.079885,-0.017716,2.519159,0.014027,0.038864,0.996368
2011-09-29T13:55:09.045847,9050,0.099191,-0.032730,2.542847,0.014881,0.039502,0.996461
2011-09-29T13:55:09.055847,9060,0.118498,-0.047743,2.566534,0.015734,0.040141,0.996554
2011-09-29T13:55:09.065847,9070,0.137804,-0.062756,2.590221,0.016588,0.040780,0.996646
2011-09-29T13:55:09.075847,9080,0.157111,-0.077769,2.613908,0.017441,0.041419,0.996739
2011-09-29T13:55:09.085847,9090,0.176417,-0.092782,2.637595,0.018295,0.042058,0.996832
2011-09-29T13:55:09.095847,9100,0.195724,-0.107796,2.661282,0.019148,0.042697,0.996924
2011-09-29T13:55:09.105847,9110,0.215030,-0.122809,2.684969,0.020002,0.043336,0.997017
2011-09-29T13:55:09.115847,9120,0.234337,-0.137822,2.708656,0.020856,0.043975,0.997110
2011-09-29T13:55:09.125847,9130,0.253643,-0.152835,2.732344,0.021709,0.044614,0.997203
2011-09-29T13:55:09.135847,9140,0.268180,-0.164395,2.754607,0.022566,0.045277,0.997306
2011-09-29T13:55:09.145847,9150,0.248449,-0.151144,2.766645,0.023444,0.046117,0.997488
2011-09-29T13:55:09.155847,9160,0.228718,-0.137893,2.778683,0.024322,0.046958,0.997669
2011-09-29T13:55:09.165847,9170,0.208987,-0.124643,2.790722,0.025200,0.047798,0.997850
2011-09-29T13:55:09.175847,9180,0.189256,-0.111392,2.802760,0.026079,0.048638,0.998032
2011-09-29T13:55:09.185847,9190,0.169525,-0.098141,2.814798,0.026957,0.049479,0.998213
2011-09-29T13:55:09.195847,9200,0.149794,-0.084890,2.826836,0.027835,0.050319,0.998394
2011-09-29T13:55:09.205847,9210,0.130063,-0.071639,2.838874,0.028714,0.051159,0.998576
2011-09-29T13:55:09.215847,9220,0.110332,-0.058388,2.850912,0.029592,0.051999,0.998757
2011-09-29T13:55:09.225847,9230,0.090601,-0.045138,2.862950,0.030470,0.052840,0.998939
2011-09-29T13:55:09.235847,9240,0.070156,-0.033889,2.874721,0.031350,0.053482,0.999097
2011-09-29T13:55:09.245847,9250,0.044515,-0.037214,2.884546,0.032239,0.052682,0.999084
2011-09-29T13:55:09.255847,9260,0.018875,-0.040539,2.894370,0.033127,0.051882,0.999071
2011-09-29T13:55:09.265847,9270,-0.006766,-0.043864,2.904195,0.034016,0.051082,0.999058
2011-09-29T13:55:09.275847,9280,-0.032406,-0.047188,2.914020,0.034905,0.050282,0.999045
2011-09-29T13:55:09.285847,9290,-0.058047,-0.050513,2.923844,0.035794,0.049482,0.999032
2011-09-29T13:55:09.295847,9300,-0.083687,-0.053838,2.933669,0.036683,0.048682,0.999019
2011-09-29T13:55:09.305847,9310,-0.109328,-0.057163,2.943494,0.037572,0.047882,0.999007
2011-09-29T13:55:09.315847,9320,-0.134968,-0.060488,2.953319,0.038461,0.047082,0.998994
2011-09-29T13:55:09.325847,9330,-0.160609,-0.063813,2.963143,0.039350,0.046282,0.998981
2011-09-29T13:55:09.335847,9340,-0.186250,-0.067137,2.972968,0.040239,0.045482,0.998968
2011-09-29T13:55:09.345847,9350,-0.210093,-0.070990,2.983720,0.041145,0.044729,0.998958
2011-09-29T13:55:09.355847,9360,-0.217172,-0.079771,3.003123,0.042208,0.044412,0.998977
2011-09-29T13:55:09.365847,9370,-0.224251,-0.088552,3.022525,0.043271,0.044096,0.998996
2011-09-29T13:55:09.375847,9380,-0.231330,-0.097333,3.041928,0.044334,0.043779,0.999016
2011-09-29T13:55:09.385847,9390,-0.238408,-0.106114,3.061331,0.045397,0.043462,0.999035
2011-09-29T13:55:09.395847,9400,-0.245487,-0.114895,3.080734,0.046460,0.043145,0.999054
2011-09-29T13:55:09.405847,9410,-0.252566,-0.123677,3.100137,0.047523,0.042828,0.999073
2011-09-29T13:55:09.415847,9420,-0.259645,-0.132458,3.119539,0.048586,0.042511,0.999092
2011-09-29T13:55:09.425847,9430,-0.266723,-0.141239,3.138942,0.049649,0.042195,0.999111
2011-09-29T13:55:09.435847,9440,-0.273802,-0.150020,3.158345,0.050712,0.041878,0.999130
2011-09-29T13:55:09.445847,9450,-0.278133,-0.159784,3.177647,0.051794,0.041573,0.999115
2011-09-29T13:55:09.455847,9460,-0.263153,-0.176455,3.196239,0.053015,0.041349,0.998858
2011-09-29T13:55:09.465847,9470,-0.248172,-0.193127,3.214832,0.054235,0.041126,0.998601
2011-09-29T13:55:09.475847,9480,-0.233192,-0.209799,3.233424,0.055455,0.040902,0.998344
2011-09-29T13:55:09.485847,9490,-0.218212,-0.226470,3.252017,0.056676,0.040679,0.998087
2011-09-29T13:55:09.495847,9500,-0.203232,-0.243142,3.270609,0.057896,0.040456,0.997830
2011-09-29T13:55:09.505847,9510,-0.188252,-0.259814,3.289202,0.059116,0.040232,0.997572
2011-09-29T13:55:09.515847,9520,-0.173272,-0.276485,3.307794,0.060336,0.040009,0.997315
2011-09-29T13:55:09.525847,9530,-0.158292,-0.293157,3.326387,0.061557,0.039785,0.997058
2011-09-29T13:55:09.535847,9540,-0.143312,-0.309829,3.344979,0.062777,0.039562,0.996801
2011-09-29T13:55:09.545847,9550,-0.128332,-0.326500,3.363572,0.063997,0.039339,0.996544
2011-09-29T13:55:09.555847,9560,-0.113602,-0.342297,3.383804,0.065250,0.039237,0.996399
2011-09-29T13:55:09.565847,9570,-0.100634,-0.351953,3.415544,0.066730,0.039988,0.997040
2011-09-29T13:55:09.575847,9580,-0.087665,-0.361610,3.447285,0.068210,0.040740,0.997682
2011-09-29T13:55:09.585847,9590,-0.074696,-0.371266,3.479026,0.069690,0.041491,0.998324
2011-09-29T13:55:09.595847,9600,-0.061727,-0.380922,3.510767,0.071170,0.042242,0.998965
2011-09-29T13:55:09.605847,9610,-0.048758,-0.390578,3.542507,0.072650,0.042994,0.999607
2011-09-29T13:55:09.615847,9620,-0.035790,-0.400234,3.574248,0.074130,0.043745,1.000249
2011-09-29T13:55:09.625847,9630,-0.022821,-0.409891,3.605989,0.075610,0.044496,1.000890
2011-09-29T13:55:09.635847,9640,-0.009852,-0.419547,3.637730,0.077090,0.045248,1.001532
2011-09-29T13:55:09.645847,9650,0.003117,-0.429203,3.669471,0.078570,0.045999,1.002173
2011-09-29T13:55:09.655847,9660,0.016374,-0.435273,3.699302,0.080035,0.046655,1.002711
2011-09-29T13:55:09.665847,9670,0.031640,-0.416401,3.715852,0.081395,0.046647,1.002528
2011-09-29T13:55:09.675847,9680,0.046906,-0.397530,3.732402,0.082755,0.046639,1.002345
2011-09-29T13:55:09.685847,9690,0.062173,-0.378659,3.748952,0.084115,0.046631,1.002162
2011-09-29T13:55:09.695847,9700,0.077439,-0.359787,3.765503,0.085474,0.046623,1.001978
2011-09-29T13:55:09.705847,9710,0.092705,-0.340916,3.782053,0.086834,0.046614,1.001795
2011-09-29T13:55:09.715847,9720,0.107971,-0.322044,3.798603,0.088194,0.046606,1.001612
2011-09-29T13:55:09.725847,9730,0.123237,-0.303173,3.815153,0.089554,0.046598,1.001429
2011-09-29T13:55:09.735847,9740,0.138503,-0.284302,3.831704,0.090913,0.046590,1.001246
2011-09-29T13:55:09.745847,9750,0.153769,-0.265430,3.848254,0.092273,0.046582,1.001062
2011-09-29T13:55:09.755847,9760,0.163730,-0.247265,3.866213,0.093442,0.046643,1.000981
2011-09-29T13:55:09.765847,9770,0.137412,-0.233933,3.893806,0.093303,0.047181,1.001596
2011-09-29T13:55:09.775847,9780,0.111095,-0.220601,3.921400,0.093164,0.047718,1.002212
2011-09-29T13:55:09.785847,9790,0.084777,-0.207269,3.948993,0.093025,0.048255,1.002827
2011-09-29T13:55:09.795847,9800,0.058460,-0.193936,3.976587,0.092886,0.048792,1.003442
2011-09-29T13:55:09.805847,9810,0.032142,-0.180604,4.004180,0.092747,0.049329,1.004058
2011-09-29T13:55:09.815847,9820,0.005825,-0.167272,4.031774,0.092608,0.049866,1.004673
2011-09-29T13:55:09.825847,9830,-0.020493,-0.153939,4.059367,0.092468,0.050404,1.005289
2011-09-29T13:55:09.835847,9840,-0.046810,-0.140607,4.086960,0.092329,0.050941,1.005904
2011-09-29T13:55:09.845847,9850,-0.073128,-0.127275,4.114554,0.092190,0.051478,1.006519
2011-09-29T13:55:09.855847,9860,-0.099445,-0.113943,4.142147,0.092051,0.052015,1.007135
2011-09-29T13:55:09.865847,9870,-0.126939,-0.102378,4.170399,0.091971,0.052444,1.007649
2011-09-29T13:55:09.875847,9880,-0.162808,-0.103398,4.203338,0.092310,0.052100,1.007440
2011-09-29T13:55:09.885847,9890,-0.198676,-0.104417,4.236278,0.092649,0.051756,1.007231
2011-09-29T13:55:09.895847,9900,-0.234544,-0.105437,4.269217,0.092989,0.051412,1.007022
2011-09-29T13:55:09.905847,9910,-0.270412,-0.106457,4.302156,0.093328,0.051068,1.006813
2011-09-29T13:55:09.915847,9920,-0.306280,-0.107476,4.335095,0.093667,0.050724,1.006604
2011-09-29T13:55:09.925847,9930,-0.342149,-0.108496,4.368034,0.094006,0.050380,1.006395
2011-09-29T13:55:09.935847,9940,-0.378017,-0.109515,4.400973,0.094345,0.050036,1.006186
2011-09-29T13:55:09.945847,9950,-0.413885,-0.110535,4.433912,0.094684,0.049692,1.005977
2011-09-29T13:55:09.955847,9960,-0.449753,-0.111554,4.466851,0.095023,0.049349,1.005768
2011-09-29T13:55:09.965847,9970,-0.477987,-0.113147,4.497902,0.095467,0.048985,1.005478
2011-09-29T13:55:09.975847,9980,-0.453265,-0.118717,4.515851,0.096635,0.048482,1.004621
2011-09-29T13:55:09.985847,9990,-0.428543,-0.124287,4.533801,0.097803,0.047979,1.003765
2011-09-29T13:55:09.995847,10000,-0.403822,-0.129856,4.551750,0.098972,0.047477,1.002908
2011-09-29T13:55:10.005847,10010,-0.379100,-0.135426,4.569700,0.100140,0.046974,1.002051
2011-09-29T13:55:10.015847,10020,-0.354378,-0.140995,4.587649,0.101308,0.046471,1.001195
2011-09-29T13:55:10.025847,10030,-0.329656,-0.146565,4.605599,0.102476,0.045969,1.000338
2011-09-29T13:55:10.035847,10040,-0.304934,-0.152135,4.623548,0.103645,0.045466,0.999482
2011-09-29T13:55:10.045847,10050,-0.280212,-0.157704,4.641498,0.104813,0.044963,0.998625
2011-09-29T13:55:10.055847,10060,-0.255491,-0.163274,4.659447,0.105981,0.044461,0.997768
2011-09-29T13:55:10.065847,10070,-0.230769,-0.168844,4.677397,0.107150,0.043958,0.996912
2011-09-29T13:55:10.075847,10080,-0.205674,-0.170483,4.693213,0.108186,0.043640,0.996280
2011-09-29T13:55:10.085847,10090,-0.178133,-0.146319,4.695026,0.108355,0.044534,0.997124
2011-09-29T13:55:10.095847,10100,-0.150591,-0.122155,4.696838,0.108524,0.045429,0.997968
2011-09-29T13:55:10.105847,10110,-0.123049,-0.097991,4.698651,0.108693,0.046323,0.998812
2011-09-29T13:55:10.115847,10120,-0.095508,-0.073828,4.700463,0.108862,0.047217,0.999656
2011-09-29T13:55:10.125847,10130,-0.067966,-0.049664,4.702275,0.109031,0.048112,1.000500
2011-09-29T13:55:10.135847,10140,-0.040425,-0.025500,4.704088,0.109200,0.049006,1.001344
2011-09-29T13:55:10.145847,10150,-0.012883,-0.001336,4.705900,0.109369,0.049900,1.002188
2011-09-29T13:55:10.155847,10160,0.014659,0.022828,4.707712,0.109538,0.050795,1.003032
2011-09-29T13:55:10.165847,10170,0.042200,0.046992,4.709525,0.109707,0.051689,1.003876
2011-09-29T13:55:10.175847,10180,0.065068,0.072484,4.710852,0.109827,0.052517,1.004627
2011-09-29T13:55:10.185847,10190,0.057361,0.106660,4.709005,0.109625,0.052913,1.004768
2011-09-29T13:55:10.195847,10200,0.049654,0.140837,4.707159,0.109423,0.053308,1.004909
2011-09-29T13:55:10.205847,10210,0.041947,0.175014,4.705312,0.109221,0.053703,1.005050
2011-09-29T13:55:10.215847,10220,0.034241,0.209191,4.703466,0.109019,0.054099,1.005191
2011-09-29T13:55:10.225847,10230,0.026534,0.243368,4.701619,0.108817,0.054494,1.005331
2011-09-29T13:55:10.235847,10240,0.018827,0.277544,4.699772,0.108616,0.054890,1.005472
2011-09-29T13:55:10.245847,10250,0.011120,0.311721,4.697926,0.108414,0.055285,1.005613
2011-09-29T13:55:10.255847,10260,0.003413,0.345898,4.696079,0.108212,0.055680,1.005754
2011-09-29T13:55:10.265847,10270,-0.004294,0.380075,4.694233,0.108010,0.056076,1.005895
2011-09-29T13:55:10.275847,10280,-0.011952,0.412816,4.689706,0.107830,0.056432,1.005939
2011-09-29T13:55:10.285847,10290,-0.019299,0.436438,4.668155,0.107792,0.056536,1.005371
2011-09-29T13:55:10.295847,10300,-0.026646,0.460060,4.646604,0.107754,0.056640,1.004803
2011-09-29T13:55:10.305847,10310,-0.033993,0.483682,4.625053,0.107715,0.056744,1.004235
2011-09-29T13:55:10.315847,10320,-0.041340,0.507304,4.603502,0.107677,0.056848,1.003667
2011-09-29T13:55:10.325847,10330,-0.048687,0.530925,4.581951,0.107638,0.056953,1.003099
2011-09-29T13:55:10.335847,10340,-0.056034,0.554547,4.560400,0.107600,0.057057,1.002531
2011-09-29T13:55:10.345847,10350,-0.063381,0.578169,4.538848,0.107561,0.057161,1.001963
2011-09-29T13:55:10.355847,10360,-0.070728,0.601791,4.517297,0.107523,0.057265,1.001395
2011-09-29T13:55:10.365847,10370,-0.078075,0.625413,4.495746,0.107484,0.057369,1.000827
2011-09-29T13:55:10.375847,10380,-0.085422,0.649034,4.474195,0.107446,0.057473,1.000260
2011-09-29T13:55:10.385847,10390,-0.093889,0.668647,4.452696,0.107418,0.057428,0.999731
2011-09-29T13:55:10.395847,10400,-0.110035,0.660776,4.431559,0.107464,0.056358,0.999475
2011-09-29T13:55:10.405847,10410,-0.126181,0.652904,4.410422,0.107509,0.055287,0.999218
2011-09-29T13:55:10.415847,10420,-0.142327,0.645033,4.389285,0.107555,0.054217,0.998961
2011-09-29T13:55:10.425847,10430,-0.158472,0.637161,4.368148,0.107600,0.053146,0.998705
2011-09-29T13:55:10.435847,10440,-0.174618,0.629289,4.347011,0.107646,0.052076,0.998448
2011-09-29T13:55:10.445847,10450,-0.190764,0.621418,4.325874,0.107691,0.051005,0.998192
2011-09-29T13:55:10.455847,10460,-0.206910,0.613546,4.304737,0.107737,0.049935,0.997935
2011-09-29T13:55:10.465847,10470,-0.223056,0.605675,4.283600,0.107782,0.048864,0.997678
2011-09-29T13:55:10.475847,10480,-0.239202,0.597803,4.262463,0.107827,0.047794,0.997422
2011-09-29T13:55:10.485847,10490,-0.245938,0.589801,4.238987,0.107854,0.046969,0.997287
2011-09-29T13:55:10.495847,10500,-0.192788,0.580964,4.200623,0.107756,0.047703,0.997925
2011-09-29T13:55:10.505847,10510,-0.139639,0.572128,4.162258,0.107659,0.048438,0.998563
2011-09-29T13:55:10.515847,10520,-0.086490,0.563292,4.123893,0.107562,0.049172,0.999202
2011-09-29T13:55:10.525847,10530,-0.033340,0.554456,4.085529,0.107465,0.049907,0.999840
2011-09-29T13:55:10.535847,10540,0.019809,0.545620,4.047164,0.107368,0.050641,1.000479
2011-09-29T13:55:10.545847,10550,0.072958,0.536784,4.008800,0.107271,0.051376,1.001117
2011-09-29T13:55:10.555847,10560,0.126108,0.527948,3.970435,0.107173,0.052110,1.001755
2011-09-29T13:55:10.565847,10570,0.179257,0.519111,3.932071,0.107076,0.052845,1.002394
2011-09-29T13:55:10.575847,10580,0.232406,0.510275,3.893706,0.106979,0.053579,1.003032
2011-09-29T13:55:10.585847,10590,0.273010,0.499449,3.857237,0.106948,0.054273,1.003512
2011-09-29T13:55:10.595847,10600,0.232250,0.475716,3.833064,0.107347,0.054702,1.002964
2011-09-29T13:55:10.605847,10610,0.191490,0.451984,3.808890,0.107747,0.055132,1.002417
2011-09-29T13:55:10.615847,10620,0.150730,0.428251,3.784716,0.108146,0.055561,1.001869
2011-09-29T13:55:10.625847,10630,0.109971,0.404518,3.760542,0.108545,0.055991,1.001321
2011-09-29T13:55:10.635847,10640,0.069211,0.380785,3.736368,0.108944,0.056420,1.000774
2011-09-29T13:55:10.645847,10650,0.028451,0.357053,3.712194,0.109343,0.056849,1.000226
2011-09-29T13:55:10.655847,10660,-0.012309,0.333320,3.688020,0.109743,0.057279,0.999678
2011-09-29T13:55:10.665847,10670,-0.053069,0.309587,3.663846,0.110142,0.057708,0.999131
2011-09-29T13:55:10.675847,10680,-0.093829,0.285854,3.639673,0.110541,0.058138,0.998583
2011-09-29T13:55:10.685847,10690,-0.134589,0.262122,3.615499,0.110940,0.058567,0.998036
2011-09-29T13:55:10.695847,10700,-0.171719,0.239311,3.592540,0.111374,0.058874,0.997442
2011-09-29T13:55:10.705847,10710,-0.184106,0.222784,3.577863,0.112040,0.058347,0.996531
2011-09-29T13:55:10.715847,10720,-0.196493,0.206258,3.563187,0.112707,0.057819,0.995621
2011-09-29T13:55:10.725847,10730,-0.208879,0.189731,3.548510,0.113374,0.057291,0.994711
2011-09-29T13:55:10.735847,10740,-0.221266,0.173205,3.533834,0.114040,0.056764,0.993801
2011-09-29T13:55:10.745847,10750,-0.233653,0.156678,3.519157,0.114707,0.056236,0.992890
2011-09-29T13:55:10.755847,10760,-0.246039,0.140152,3.504481,0.115374,0.055708,0.991980
2011-09-29T13:55:10.765847,10770,-0.258426,0.123625,3.489804,0.116040,0.055181,0.991070
2011-09-29T13:55:10.775847,10780,-0.270812,0.107099,3.475128,0.116707,0.054653,0.990160
2011-09-29T13:55:10.785847,10790,-0.283199,0.090572,3.460451,0.117374,0.054125,0.989250
2011-09-29T13:55:10.795847,10800,-0.297115,0.074737,3.439889,0.118111,0.053633,0.988563
2011-09-29T13:55:10.805847,10810,-0.321409,0.063591,3.379374,0.119324,0.053382,0.989396
2011-09-29T13:55:10.815847,10820,-0.345703,0.052446,3.318860,0.120537,0.053131,0.990229
2011-09-29T13:55:10.825847,10830,-0.369997,0.041301,3.258345,0.121751,0.052880,0.991062
2011-09-29T13:55:10.835847,10840,-0.394291,0.030155,3.197830,0.122964,0.052629,0.991895
2011-09-29T13:55:10.845847,10850,-0.418585,0.019010,3.137315,0.124178,0.052378,0.992729
2011-09-29T13:55:10.855847,10860,-0.442879,0.007865,3.076800,0.125391,0.052127,0.993562
2011-09-29T13:55:10.865847,10870,-0.467173,-0.003281,3.016285,0.126604,0.051876,0.994395
2011-09-29T13:55:10.875847,10880,-0.491467,-0.014426,2.955771,0.127818,0.051625,0.995228
2011-09-29T13:55:10.885847,10890,-0.515761,-0.025571,2.895256,0.129031,0.051374,0.996061
2011-09-29T13:55:10.895847,10900,-0.540055,-0.036717,2.834741,0.130245,0.051122,0.996894
2011-09-29T13:55:10.905847,10910,-0.554543,-0.047480,2.767730,0.131415,0.050806,0.997743
2011-09-29T13:55:10.915847,10920,-0.507925,-0.055864,2.660236,0.132318,0.050085,0.998695
2011-09-29T13:55:10.925847,10930,-0.461306,-0.064247,2.552742,0.133220,0.049363,0.999646
2011-09-29T13:55:10.935847,10940,-0.414688,-0.072631,2.445249,0.134123,0.048642,1.000598
2011-09-29T13:55:10.945847,10950,-0.368070,-0.081014,2.337755,0.135025,0.047921,1.001549
2011-09-29T13:55:10.955847,10960,-0.321451,-0.089398,2.230261,0.135928,0.047199,1.002500
2011-09-29T13:55:10.965847,10970,-0.274833,-0.097782,2.122768,0.136830,0.046478,1.003452
2011-09-29T13:55:10.975847,10980,-0.228215,-0.106165,2.015274,0.137733,0.045756,1.004403
2011-09-29T13:55:10.985847,10990,-0.181596,-0.114549,1.907780,0.138635,0.045035,1.005355
2011-09-29T13:55:10.995847,11000,-0.134978,-0.122932,1.800287,0.139538,0.044313,1.006306
2011-09-29T13:55:11.005847,11010,-0.102227,-0.127769,1.695548,0.140406,0.043725,1.007078
2011-09-29T13:55:11.015847,11020,-0.152175,-0.111454,1.607238,0.141068,0.043929,1.006785
2011-09-29T13:55:11.025847,11030,-0.202123,-0.095139,1.518929,0.141730,0.044134,1.006491
2011-09-29T13:55:11.035847,11040,-0.252072,-0.078824,1.430619,0.142392,0.044338,1.006197
2011-09-29T13:55:11.045847,11050,-0.302020,-0.062509,1.342309,0.143054,0.044543,1.005904
2011-09-29T13:55:11.055847,11060,-0.351968,-0.046194,1.254000,0.143716,0.044747,1.005610
2011-09-29T13:55:11.065847,11070,-0.401917,-0.029879,1.165690,0.144379,0.044952,1.005316
2011-09-29T13:55:11.075847,11080,-0.451865,-0.013564,1.077381,0.145041,0.045156,1.005023
2011-09-29T13:55:11.085847,11090,-0.501813,0.002751,0.989071,0.145703,0.045361,1.004729
2011-09-29T13:55:11.095847,11100,-0.551762,0.019066,0.900761,0.146365,0.045565,1.004435
2011-09-29T13:55:11.105847,11110,-0.595508,0.032611,0.808352,0.146859,0.045694,1.004114
2011-09-29T13:55:11.115847,11120,-0.601776,0.029413,0.691170,0.146334,0.045365,1.003629
2011-09-29T13:55:11.125847,11130,-0.608045,0.026215,0.573989,0.145809,0.045037,1.003144
2011-09-29T13:55:11.135847,11140,-0.614313,0.023017,0.456807,0.145284,0.044709,1.002659
2011-09-29T13:55:11.145847,11150,-0.620582,0.019820,0.339625,0.144759,0.044380,1.002173
2011-09-29T13:55:11.155847,11160,-0.626850,0.016622,0.222443,0.144234,0.044052,1.001688
2011-09-29T13:55:11.165847,11170,-0.633118,0.013424,0.105261,0.143709,0.043724,1.001203
2011-09-29T13:55:11.175847,11180,-0.639387,0.010227,-0.011920,0.143184,0.043395,1.000717
2011-09-29T13:55:11.185847,11190,-0.645655,0.007029,-0.129102,0.142660,0.043067,1.000232
2011-09-29T13:55:11.195847,11200,-0.651924,0.003831,-0.246284,0.142135,0.042739,0.999747
2011-09-29T13:55:11.205847,11210,-0.658192,0.000633,-0.363466,0.141610,0.042410,0.999262
2011-09-29T13:55:11.215847,11220,-0.656321,-0.009181,-0.469220,0.141178,0.041614,0.998754
2011-09-29T13:55:11.225847,11230,-0.607290,-0.057328,-0.508763,0.141282,0.038102,0.998116
2011-09-29T13:55:11.235847,11240,-0.558259,-0.105475,-0.548307,0.141386,0.034590,0.997479
2011-09-29T13:55:11.245847,11250,-0.509228,-0.153623,-0.587850,0.141490,0.031077,0.996842
2011-09-29T13:55:11.255847,11260,-0.460197,-0.201770,-0.627393,0.141594,0.027565,0.996204
2011-09-29T13:55:11.265847,11270,-0.411165,-0.249917,-0.666937,0.141699,0.024053,0.995567
2011-09-29T13:55:11.275847,11280,-0.362134,-0.298065,-0.706480,0.141803,0.020541,0.994929
2011-09-29T13:55:11.285847,11290,-0.313103,-0.346212,-0.746023,0.141907,0.017029,0.994292
2011-09-29T13:55:11.295847,11300,-0.264072,-0.394359,-0.785567,0.142011,0.013517,0.993654
2011-09-29T13:55:11.305847,11310,-0.215041,-0.442507,-0.825110,0.142115,0.010005,0.993017
2011-09-29T13:55:11.315847,11320,-0.161962,-0.487141,-0.858428,0.142261,0.007061,0.992354
2011-09-29T13:55:11.325847,11330,-0.081886,-0.508344,-0.850228,0.142683,0.007905,0.991522
2011-09-29T13:55:11.335847,11340,-0.001810,-0.529548,-0.842028,0.143106,0.008749,0.990690
2011-09-29T13:55:11.345847,11350,0.078266,-0.550752,-0.833828,0.143528,0.009593,0.989858
2011-09-29T13:55:11.355847,11360,0.158341,-0.571956,-0.825628,0.143950,0.010437,0.989025
2011-09-29T13:55:11.365847,11370,0.238417,-0.593159,-0.817428,0.144372,0.011280,0.988193
2011-09-29T13:55:11.375847,11380,0.318493,-0.614363,-0.809228,0.144794,0.012124,0.987361
2011-09-29T13:55:11.385847,11390,0.398569,-0.635567,-0.801028,0.145217,0.012968,0.986529
2011-09-29T13:55:11.395847,11400,0.478644,-0.656770,-0.792828,0.145639,0.013812,0.985697
2011-09-29T13:55:11.405847,11410,0.558720,-0.677974,-0.784628,0.146061,0.014655,0.984865
2011-09-29T13:55:11.415847,11420,0.638796,-0.699178,-0.776428,0.146483,0.015499,0.984032
2011-09-29T13:55:11.425847,11430,0.706445,-0.713438,-0.766141,0.146712,0.016597,0.983537
2011-09-29T13:55:11.435847,11440,0.703607,-0.688317,-0.744018,0.145840,0.019136,0.984950
2011-09-29T13:55:11.445847,11450,0.700770,-0.663197,-0.721894,0.144968,0.021675,0.986364
2011-09-29T13:55:11.455847,11460,0.697932,-0.638076,-0.699770,0.144096,0.024213,0.987777
2011-09-29T13:55:11.465847,11470,0.695095,-0.612955,-0.677646,0.143224,0.026752,0.989190
2011-09-29T13:55:11.475847,11480,0.692258,-0.587834,-0.655522,0.142352,0.029291,0.990604
2011-09-29T13:55:11.485847,11490,0.689420,-0.562713,-0.633399,0.141480,0.031830,0.992017
2011-09-29T13:55:11.495847,11500,0.686583,-0.537592,-0.611275,0.140608,0.034368,0.993430
2011-09-29T13:55:11.505847,11510,0.683745,-0.512471,-0.589151,0.139736,0.036907,0.994844
2011-09-29T13:55:11.515847,11520,0.680908,-0.487350,-0.567027,0.138864,0.039446,0.996257
2011-09-29T13:55:11.525847,11530,0.666877,-0.452683,-0.549285,0.138037,0.041732,0.997787
2011-09-29T13:55:11.535847,11540,0.591347,-0.365569,-0.555620,0.137457,0.042630,0.999957
2011-09-29T13:55:11.545847,11550,0.515817,-0.278455,-0.561955,0.136877,0.043527,1.002127
2011-09-29T13:55:11.555847,11560,0.440287,-0.191341,-0.568289,0.136298,0.044425,1.004296
2011-09-29T13:55:11.565847,11570,0.364757,-0.104227,-0.574624,0.135718,0.045323,1.006466
2011-09-29T13:55:11.575847,11580,0.289227,-0.017112,-0.580959,0.135139,0.046220,1.008636
2011-09-29T13:55:11.585847,11590,0.213697,0.070002,-0.587293,0.134559,0.047118,1.010805
2011-09-29T13:55:11.595847,11600,0.138167,0.157116,-0.593628,0.133979,0.048016,1.012975
2011-09-29T13:55:11.605847,11610,0.062637,0.244230,-0.599963,0.133400,0.048914,1.015145
2011-09-29T13:55:11.615847,11620,-0.012893,0.331345,-0.606297,0.132820,0.049811,1.017315
2011-09-29T13:55:11.625847,11630,-0.082308,0.419309,-0.611451,0.132134,0.050251,1.019088
2011-09-29T13:55:11.635847,11640,-0.117999,0.511959,-0.610094,0.130860,0.048167,1.018672
2011-09-29T13:55:11.645847,11650,-0.153691,0.604610,-0.608736,0.129587,0.046084,1.018257
2011-09-29T13:55:11.655847,11660,-0.189382,0.697261,-0.607379,0.128313,0.044000,1.017841
2011-09-29T13:55:11.665847,11670,-0.225074,0.789912,-0.606022,0.127039,0.041916,1.017426
2011-09-29T13:55:11.675847,11680,-0.260765,0.882563,-0.604664,0.125766,0.039832,1.017010
2011-09-29T13:55:11.685847,11690,-0.296457,0.975213,-0.603307,0.124492,0.037749,1.016595
2011-09-29T13:55:11.695847,11700,-0.332148,1.067864,-0.601950,0.123218,0.035665,1.016179
2011-09-29T13:55:11.705847,11710,-0.367840,1.160515,-0.600592,0.121945,0.033581,1.015764
2011-09-29T13:55:11.715847,11720,-0.403531,1.253166,-0.599235,0.120671,0.031497,1.015348
2011-09-29T13:55:11.725847,11730,-0.439223,1.345817,-0.597878,0.119397,0.029413,1.014933
2011-09-29T13:55:11.735847,11740,-0.464242,1.430008,-0.596294,0.117754,0.027408,1.014682
2011-09-29T13:55:11.745847,11750,-0.430549,1.467657,-0.593466,0.114076,0.025837,1.015335
2011-09-29T13:55:11.755847,11760,-0.396855,1.505307,-0.590638,0.110398,0.024265,1.015989
2011-09-29T13:55:11.765847,11770,-0.363162,1.542957,-0.587810,0.106720,0.022694,1.016643
2011-09-29T13:55:11.775847,11780,-0.329469,1.580606,-0.584981,0.103042,0.021122,1.017297
2011-09-29T13:55:11.785847,11790,-0.295776,1.618256,-0.582153,0.099364,0.019551,1.017950
2011-09-29T13:55:11.795847,11800,-0.262082,1.655905,-0.579325,0.095686,0.017979,1.018604
2011-09-29T13:55:11.805847,11810,-0.228389,1.693555,-0.576497,0.092008,0.016408,1.019258
2011-09-29T13:55:11.815847,11820,-0.194696,1.731204,-0.573669,0.088330,0.014836,1.019912
2011-09-29T13:55:11.825847,11830,-0.161002,1.768854,-0.570841,0.084652,0.013265,1.020565
2011-09-29T13:55:11.835847,11840,-0.126770,1.805937,-0.569028,0.080955,0.012292,1.020822
2011-09-29T13:55:11.845847,11850,-0.089467,1.839793,-0.573004,0.077145,0.014737,1.018816
2011-09-29T13:55:11.855847,11860,-0.052164,1.873649,-0.576980,0.073336,0.017181,1.016811
2011-09-29T13:55:11.865847,11870,-0.014860,1.907505,-0.580956,0.069526,0.019625,1.014805
2011-09-29T13:55:11.875847,11880,0.022443,1.941361,-0.584932,0.065717,0.022069,1.012799
2011-09-29T13:55:11.885847,11890,0.059746,1.975217,-0.588908,0.061907,0.024513,1.010793
2011-09-29T13:55:11.895847,11900,0.097049,2.009073,-0.592884,0.058098,0.026957,1.008787
2011-09-29T13:55:11.905847,11910,0.134353,2.042930,-0.596860,0.054289,0.029401,1.006782
2011-09-29T13:55:11.915847,11920,0.171656,2.076786,-0.600836,0.050479,0.031845,1.004776
2011-09-29T13:55:11.925847,11930,0.208959,2.110642,-0.604812,0.046670,0.034289,1.002770
2011-09-29T13:55:11.935847,11940,0.235380,2.139231,-0.610187,0.043095,0.036305,1.001223
2011-09-29T13:55:11.945847,11950,0.202957,2.139344,-0.623124,0.040789,0.036008,1.002154
2011-09-29T13:55:11.955847,11960,0.170535,2.139456,-0.636062,0.038483,0.035711,1.003085
2011-09-29T13:55:11.965847,11970,0.138112,2.139569,-0.648999,0.036177,0.035413,1.004016
2011-09-29T13:55:11.975847,11980,0.105689,2.139681,-0.661936,0.033871,0.035116,1.004947
2011-09-29T13:55:11.985847,11990,0.073267,2.139794,-0.674874,0.031565,0.034818,1.005878
2011-09-29T13:55:11.995847,12000,0.040844,2.139906,-0.687811,0.029259,0.034521,1.006809
2011-09-29T13:55:12.005847,12010,0.008422,2.140019,-0.700748,0.026953,0.034224,1.007740
2011-09-29T13:55:12.015847,12020,-0.024001,2.140131,-0.713686,0.024647,0.033926,1.008671
2011-09-29T13:55:12.025847,12030,-0.056424,2.140244,-0.726623,0.022341,0.033629,1.009602
2011-09-29T13:55:12.035847,12040,-0.088846,2.140356,-0.739560,0.020035,0.033331,1.010533
2011-09-29T13:55:12.045847,12050,-0.107696,2.135337,-0.748608,0.017879,0.032796,1.010985
2011-09-29T13:55:12.055847,12060,-0.055023,2.103274,-0.737157,0.016517,0.031008,1.008916
2011-09-29T13:55:12.065847,12070,-0.002349,2.071211,-0.725705,0.015155,0.029220,1.006847
2011-09-29T13:55:12.075847,12080,0.050324,2.039149,-0.714254,0.013793,0.027431,1.004778
2011-09-29T13:55:12.085847,12090,0.102998,2.007086,-0.702803,0.012431,0.025643,1.002709
2011-09-29T13:55:12.095847,12100,0.155671,1.975024,-0.691351,0.011069,0.023855,1.000640
2011-09-29T13:55:12.105847,12110,0.208345,1.942961,-0.679900,0.009707,0.022066,0.998571
2011-09-29T13:55:12.115847,12120,0.261019,1.910898,-0.668449,0.008345,0.020278,0.996502
2011-09-29T13:55:12.125847,12130,0.313692,1.878836,-0.656998,0.006983,0.018490,0.994433
2011-09-29T13:55:12.135847,12140,0.366366,1.846773,-0.645546,0.005621,0.016702,0.992364
2011-09-29T13:55:12.145847,12150,0.408421,1.805159,-0.635387,0.004495,0.015610,0.990287
2011-09-29T13:55:12.155847,12160,0.394061,1.712795,-0.632094,0.004624,0.018221,0.988169
2011-09-29T13:55:12.165847,12170,0.379700,1.620432,-0.628800,0.004754,0.020831,0.986050
2011-09-29T13:55:12.175847,12180,0.365340,1.528068,-0.625507,0.004883,0.023442,0.983932
2011-09-29T13:55:12.185847,12190,0.350979,1.435705,-0.622213,0.005013,0.026052,0.981814
2011-09-29T13:55:12.195847,12200,0.336619,1.343341,-0.618920,0.005142,0.028663,0.979696
2011-09-29T13:55:12.205847,12210,0.322258,1.250977,-0.615627,0.005271,0.031273,0.977578
2011-09-29T13:55:12.215847,12220,0.307898,1.158614,-0.612333,0.005401,0.033884,0.975460
2011-09-29T13:55:12.225847,12230,0.293537,1.066250,-0.609040,0.005530,0.036494,0.973341
2011-09-29T13:55:12.235847,12240,0.279177,0.973887,-0.605746,0.005659,0.039105,0.971223
2011-09-29T13:55:12.245847,12250,0.264816,0.881523,-0.602453,0.005789,0.041715,0.969105
2011-09-29T13:55:12.255847,12260,0.246870,0.790332,-0.601104,0.005877,0.043775,0.967194
2011-09-29T13:55:12.265847,12270,0.210549,0.705146,-0.609719,0.005751,0.043014,0.966347
2011-09-29T13:55:12.275847,12280,0.174229,0.619960,-0.618335,0.005626,0.042253,0.965500
2011-09-29T13:55:12.285847,12290,0.137908,0.534774,-0.626951,0.005500,0.041492,0.964653
2011-09-29T13:55:12.295847,12300,0.101587,0.449588,-0.635566,0.005375,0.040730,0.963806
2011-09-29T13:55:12.305847,12310,0.065266,0.364402,-0.644182,0.005250,0.039969,0.962959
2011-09-29T13:55:12.315847,12320,0.028945,0.279217,-0.652798,0.005124,0.039208,0.962112
2011-09-29T13:55:12.325847,12330,-0.007376,0.194031,-0.661413,0.004999,0.038447,0.961265
2011-09-29T13:55:12.335847,12340,-0.043696,0.108845,-0.670029,0.004873,0.037686,0.960418
2011-09-29T13:55:12.345847,12350,-0.080017,0.023659,-0.678645,0.004748,0.036924,0.959571
2011-09-29T13:55:12.355847,12360,-0.116322,-0.056747,-0.684389,0.004691,0.036037,0.959079
2011-09-29T13:55:12.365847,12370,-0.152540,-0.111738,-0.674866,0.004998,0.034480,0.960476
2011-09-29T13:55:12.375847,12380,-0.188759,-0.166728,-0.665343,0.005304,0.032924,0.961873
2011-09-29T13:55:12.385847,12390,-0.224978,-0.221719,-0.655820,0.005611,0.031367,0.963270
2011-09-29T13:55:12.395847,12400,-0.261196,-0.276710,-0.646297,0.005917,0.029810,0.964667
2011-09-29T13:55:12.405847,12410,-0.297415,-0.331701,-0.636774,0.006224,0.028254,0.966064
2011-09-29T13:55:12.415847,12420,-0.333634,-0.386691,-0.627251,0.006531,0.026697,0.967461
2011-09-29T13:55:12.425847,12430,-0.369852,-0.441682,-0.617728,0.006837,0.025140,0.968858
2011-09-29T13:55:12.435847,12440,-0.406071,-0.496673,-0.608205,0.007144,0.023583,0.970255
2011-09-29T13:55:12.445847,12450,-0.442290,-0.551664,-0.598682,0.007450,0.022027,0.971652
2011-09-29T13:55:12.455847,12460,-0.460123,-0.597750,-0.590589,0.007745,0.020679,0.973270
2011-09-29T13:55:12.465847,12470,-0.383133,-0.597909,-0.589869,0.007976,0.020408,0.976029
2011-09-29T13:55:12.475847,12480,-0.306143,-0.598068,-0.589149,0.008206,0.020137,0.978788
2011-09-29T13:55:12.485847,12490,-0.229153,-0.598227,-0.588429,0.008437,0.019866,0.981548
2011-09-29T13:55:12.495847,12500,-0.152163,-0.598386,-0.587709,0.008668,0.019595,0.984307
2011-09-29T13:55:12.505847,12510,-0.075173,-0.598545,-0.586990,0.008899,0.019324,0.987066
2011-09-29T13:55:12.515847,12520,0.001816,-0.598704,-0.586270,0.009129,0.019053,0.989825
2011-09-29T13:55:12.525847,12530,0.078806,-0.598863,-0.585550,0.009360,0.018782,0.992585
2011-09-29T13:55:12.535847,12540,0.155796,-0.599022,-0.584830,0.009591,0.018511,0.995344
2011-09-29T13:55:12.545847,12550,0.232786,-0.599181,-0.584110,0.009822,0.018240,0.998103
2011-09-29T13:55:12.555847,12560,0.309776,-0.599340,-0.583390,0.010052,0.017969,1.000862
2011-09-29T13:55:12.565847,12570,0.372368,-0.601907,-0.584930,0.010300,0.018088,1.003190
2011-09-29T13:55:12.575847,12580,0.360541,-0.616917,-0.598151,0.010632,0.020221,1.003289
2011-09-29T13:55:12.585847,12590,0.348714,-0.631928,-0.611372,0.010964,0.022355,1.003387
2011-09-29T13:55:12.595847,12600,0.336887,-0.646938,-0.624593,0.011297,0.024488,1.003485
2011-09-29T13:55:12.605847,12610,0.325060,-0.661949,-0.637814,0.011629,0.026621,1.003584
2011-09-29T13:55:12.615847,12620,0.313233,-0.676959,-0.651035,0.011961,0.028755,1.003682
2011-09-29T13:55:12.625847,12630,0.301406,-0.691970,-0.664256,0.012294,0.030888,1.003781
2011-09-29T13:55:12.635847,12640,0.289579,-0.706980,-0.677477,0.012626,0.033022,1.003879
2011-09-29T13:55:12.645847,12650,0.277752,-0.721990,-0.690698,0.012958,0.035155,1.003977
2011-09-29T13:55:12.655847,12660,0.265925,-0.737001,-0.703919,0.013291,0.037288,1.004076
2011-09-29T13:55:12.665847,12670,0.252690,-0.744411,-0.717259,0.013507,0.038956,1.004507
2011-09-29T13:55:12.675847,12680,0.231900,-0.711046,-0.731235,0.013102,0.038129,1.006726
2011-09-29T13:55:12.685847,12690,0.211110,-0.677680,-0.745212,0.012696,0.037301,1.008944
2011-09-29T13:55:12.695847,12700,0.190320,-0.644315,-0.759189,0.012291,0.036473,1.011163
2011-09-29T13:55:12.705847,12710,0.169530,-0.610949,-0.773166,0.011886,0.035646,1.013382
2011-09-29T13:55:12.715847,12720,0.148740,-0.577584,-0.787143,0.011480,0.034818,1.015600
2011-09-29T13:55:12.725847,12730,0.127950,-0.544218,-0.801120,0.011075,0.033991,1.017819
2011-09-29T13:55:12.735847,12740,0.107160,-0.510853,-0.815097,0.010669,0.033163,1.020037
2011-09-29T13:55:12.745847,12750,0.086370,-0.477487,-0.829074,0.010264,0.032335,1.022256
2011-09-29T13:55:12.755847,12760,0.065580,-0.444122,-0.843050,0.009859,0.031508,1.024474
2011-09-29T13:55:12.765847,12770,0.044790,-0.410756,-0.857027,0.009453,0.030680,1.026693
2011-09-29T13:55:12.775847,12780,0.026436,-0.379254,-0.868545,0.009121,0.029890,1.028310
2011-09-29T13:55:12.785847,12790,0.020205,-0.357026,-0.867822,0.009157,0.029289,1.026933
2011-09-29T13:55:12.795847,12800,0.013975,-0.334798,-0.867098,0.009192,0.028688,1.025556
2011-09-29T13:55:12.805847,12810,0.007744,-0.312570,-0.866375,0.009227,0.028087,1.024180
2011-09-29T13:55:12.815847,12820,0.001513,-0.290342,-0.865651,0.009263,0.027485,1.022803
2011-09-29T13:55:12.825847,12830,-0.004718,-0.268114,-0.864928,0.009298,0.026884,1.021426
2011-09-29T13:55:12.835847,12840,-0.010948,-0.245886,-0.864204,0.009333,0.026283,1.020049
2011-09-29T13:55:12.845847,12850,-0.017179,-0.223658,-0.863481,0.009368,0.025682,1.018672
2011-09-29T13:55:12.855847,12860,-0.023410,-0.201430,-0.862757,0.009404,0.025081,1.017295
2011-09-29T13:55:12.865847,12870,-0.029640,-0.179202,-0.862034,0.009439,0.024479,1.015918
2011-09-29T13:55:12.875847,12880,-0.036020,-0.154976,-0.870444,0.009473,0.024249,1.014636
2011-09-29T13:55:12.885847,12890,-0.043161,-0.120553,-0.925487,0.009498,0.025909,1.013833
2011-09-29T13:55:12.895847,12900,-0.050302,-0.086129,-0.980530,0.009524,0.027570,1.013031
2011-09-29T13:55:12.905847,12910,-0.057444,-0.051706,-1.035573,0.009550,0.029231,1.012229
2011-09-29T13:55:12.915847,12920,-0.064585,-0.017282,-1.090616,0.009576,0.030891,1.011427
2011-09-29T13:55:12.925847,12930,-0.071726,0.017141,-1.145658,0.009602,0.032552,1.010625
2011-09-29T13:55:12.935847,12940,-0.078867,0.051565,-1.200701,0.009627,0.034213,1.009822
2011-09-29T13:55:12.945847,12950,-0.086008,0.085989,-1.255744,0.009653,0.035873,1.009020
2011-09-29T13:55:12.955847,12960,-0.093149,0.120412,-1.310787,0.009679,0.037534,1.008218
2011-09-29T13:55:12.965847,12970,-0.100291,0.154836,-1.365830,0.009705,0.039195,1.007416
2011-09-29T13:55:12.975847,12980,-0.103732,0.191783,-1.418084,0.009475,0.040177,1.006499
2011-09-29T13:55:12.985847,12990,-0.089197,0.240995,-1.456789,0.008001,0.037864,1.005025
2011-09-29T13:55:12.995847,13000,-0.074663,0.290206,-1.495494,0.006528,0.035550,1.003551
2011-09-29T13:55:13.005847,13010,-0.060128,0.339418,-1.534199,0.005055,0.033237,1.002077
2011-09-29T13:55:13.015847,13020,-0.045594,0.388629,-1.572904,0.003581,0.030924,1.000604
2011-09-29T13:55:13.025847,13030,-0.031059,0.437841,-1.611609,0.002108,0.028610,0.999130
2011-09-29T13:55:13.035847,13040,-0.016525,0.487052,-1.650314,0.000635,0.026297,0.997656
2011-09-29T13:55:13.045847,13050,-0.001990,0.536263,-1.689019,-0.000839,0.023983,0.996182
2011-09-29T13:55:13.055847,13060,0.012544,0.585475,-1.727724,-0.002312,0.021670,0.994709
2011-09-29T13:55:13.065847,13070,0.027079,0.634686,-1.766429,-0.003785,0.019357,0.993235
2011-09-29T13:55:13.075847,13080,0.041613,0.683898,-1.805134,-0.005259,0.017043,0.991761
2011-09-29T13:55:13.085847,13090,0.057590,0.716486,-1.835037,-0.006661,0.015148,0.990408
2011-09-29T13:55:13.095847,13100,0.080780,0.665907,-1.820906,-0.007711,0.015344,0.989661
2011-09-29T13:55:13.105847,13110,0.103971,0.615328,-1.806775,-0.008761,0.015541,0.988913
2011-09-29T13:55:13.115847,13120,0.127162,0.564749,-1.792643,-0.009811,0.015738,0.988165
2011-09-29T13:55:13.125847,13130,0.150353,0.514170,-1.778512,-0.010861,0.015934,0.987417
2011-09-29T13:55:13.135847,13140,0.173543,0.463592,-1.764381,-0.011910,0.016131,0.986669
2011-09-29T13:55:13.145847,13150,0.196734,0.413013,-1.750249,-0.012960,0.016327,0.985921
2011-09-29T13:55:13.155847,13160,0.219925,0.362434,-1.736118,-0.014010,0.016524,0.985173
2011-09-29T13:55:13.165847,13170,0.243116,0.311855,-1.721987,-0.015060,0.016720,0.984425
2011-09-29T13:55:13.175847,13180,0.266306,0.261276,-1.707855,-0.016109,0.016917,0.983678
2011-09-29T13:55:13.185847,13190,0.281415,0.214572,-1.696891,-0.017112,0.017328,0.983281
2011-09-29T13:55:13.195847,13200,0.257806,0.186431,-1.701098,-0.017886,0.018768,0.984569
2011-09-29T13:55:13.205847,13210,0.234197,0.158291,-1.705304,-0.018660,0.020208,0.985857
2011-09-29T13:55:13.215847,13220,0.210589,0.130150,-1.709511,-0.019434,0.021648,0.987146
2011-09-29T13:55:13.225847,13230,0.186980,0.102010,-1.713718,-0.020208,0.023088,0.988434
2011-09-29T13:55:13.235847,13240,0.163372,0.073869,-1.717924,-0.020982,0.024528,0.989722
2011-09-29T13:55:13.245847,13250,0.139763,0.045729,-1.722131,-0.021756,0.025968,0.991010
2011-09-29T13:55:13.255847,13260,0.116154,0.017588,-1.726338,-0.022530,0.027408,0.992298
2011-09-29T13:55:13.265847,13270,0.092546,-0.010552,-1.730544,-0.023304,0.028848,0.993586
2011-09-29T13:55:13.275847,13280,0.068937,-0.038693,-1.734751,-0.024078,0.030288,0.994874
2011-09-29T13:55:13.285847,13290,0.045758,-0.066133,-1.741361,-0.024980,0.031475,0.996083
2011-09-29T13:55:13.295847,13300,0.024672,-0.090162,-1.759689,-0.026505,0.031427,0.996906
2011-09-29T13:55:13.305847,13310,0.003586,-0.114190,-1.778017,-0.028030,0.031380,0.997729
2011-09-29T13:55:13.315847,13320,-0.017501,-0.138218,-1.796345,-0.029555,0.031332,0.998553
2011-09-29T13:55:13.325847,13330,-0.038587,-0.162247,-1.814673,-0.031080,0.031284,0.999376
2011-09-29T13:55:13.335847,13340,-0.059673,-0.186275,-1.833001,-0.032605,0.031237,1.000199
2011-09-29T13:55:13.345847,13350,-0.080759,-0.210303,-1.851329,-0.034130,0.031189,1.001022
2011-09-29T13:55:13.355847,13360,-0.101845,-0.234331,-1.869657,-0.035655,0.031141,1.001846
2011-09-29T13:55:13.365847,13370,-0.122931,-0.258360,-1.887985,-0.037181,0.031094,1.002669
2011-09-29T13:55:13.375847,13380,-0.144017,-0.282388,-1.906313,-0.038706,0.031046,1.003492
2011-09-29T13:55:13.385847,13390,-0.165103,-0.306416,-1.924641,-0.040231,0.030998,1.004315
2011-09-29T13:55:13.395847,13400,-0.190002,-0.328488,-1.937864,-0.041378,0.030703,1.005150
2011-09-29T13:55:13.405847,13410,-0.234551,-0.340479,-1.924775,-0.040578,0.029130,1.006044
2011-09-29T13:55:13.415847,13420,-0.279101,-0.352469,-1.911687,-0.039777,0.027558,1.006939
2011-09-29T13:55:13.425847,13430,-0.323650,-0.364460,-1.898599,-0.038977,0.025986,1.007833
2011-09-29T13:55:13.435847,13440,-0.368199,-0.376450,-1.885510,-0.038176,0.024413,1.008727
2011-09-29T13:55:13.445847,13450,-0.412748,-0.388441,-1.872422,-0.037376,0.022841,1.009621
2011-09-29T13:55:13.455847,13460,-0.457298,-0.400431,-1.859334,-0.036575,0.021269,1.010516
2011-09-29T13:55:13.465847,13470,-0.501847,-0.412421,-1.846245,-0.035775,0.019696,1.011410
2011-09-29T13:55:13.475847,13480,-0.546396,-0.424412,-1.833157,-0.034975,0.018124,1.012304
2011-09-29T13:55:13.485847,13490,-0.590945,-0.436402,-1.820069,-0.034174,0.016552,1.013199
2011-09-29T13:55:13.495847,13500,-0.621107,-0.442903,-1.808924,-0.033504,0.015239,1.013742
2011-09-29T13:55:13.505847,13510,-0.582399,-0.423126,-1.807082,-0.033455,0.015170,1.012608
2011-09-29T13:55:13.515847,13520,-0.543691,-0.403349,-1.805240,-0.033406,0.015100,1.011473
2011-09-29T13:55:13.525847,13530,-0.504983,-0.383572,-1.803398,-0.033358,0.015031,1.010339
2011-09-29T13:55:13.535847,13540,-0.466274,-0.363795,-1.801556,-0.033309,0.014962,1.009204
2011-09-29T13:55:13.545847,13550,-0.427566,-0.344018,-1.799714,-0.033261,0.014893,1.008070
2011-09-29T13:55:13.555847,13560,-0.388858,-0.324241,-1.797872,-0.033212,0.014823,1.006935
2011-09-29T13:55:13.565847,13570,-0.350149,-0.304463,-1.796030,-0.033164,0.014754,1.005800
2011-09-29T13:55:13.575847,13580,-0.311441,-0.284686,-1.794188,-0.033115,0.014685,1.004666
2011-09-29T13:55:13.585847,13590,-0.272733,-0.264909,-1.792346,-0.033067,0.014616,1.003531
