pc_time,ts_ms,gyroX,gyroY,gyroZ,accelX,accelY,accelZ
2011-09-26T15:26:02.154765,0,-0.030440,0.045432,-0.001415,-0.033435,0.027724,1.000512
2011-09-26T15:26:02.164765,10,-0.029703,0.040992,0.001588,-0.033536,0.027795,1.000245
2011-09-26T15:26:02.174765,20,-0.028967,0.036552,0.004591,-0.033638,0.027867,0.999977
2011-09-26T15:26:02.184765,30,-0.028230,0.032111,0.007594,-0.033739,0.027939,0.999710
2011-09-26T15:26:02.194765,40,-0.027493,0.027671,0.010597,-0.033840,0.028011,0.999442
2011-09-26T15:26:02.204765,50,-0.026757,0.023231,0.013600,-0.033941,0.028083,0.999175
2011-09-26T15:26:02.214765,60,-0.026020,0.018791,0.016603,-0.034042,0.028155,0.998908
2011-09-26T15:26:02.224765,70,-0.025283,0.014351,0.019605,-0.034143,0.028226,0.998640
2011-09-26T15:26:02.234765,80,-0.024547,0.009910,0.022608,-0.034245,0.028298,0.998373
2011-09-26T15:26:02.244765,90,-0.023810,0.005470,0.025611,-0.034346,0.028370,0.998105
2011-09-26T15:26:02.254765,100,-0.023031,0.001048,0.028613,-0.034445,0.028440,0.997843
2011-09-26T15:26:02.264765,110,-0.018314,-0.001718,0.031568,-0.034339,0.028356,0.998101
2011-09-26T15:26:02.274765,120,-0.013598,-0.004484,0.034522,-0.034234,0.028273,0.998359
2011-09-26T15:26:02.284765,130,-0.008881,-0.007249,0.037477,-0.034129,0.028189,0.998616
2011-09-26T15:26:02.294765,140,-0.004164,-0.010015,0.040431,-0.034023,0.028105,0.998874
2011-09-26T15:26:02.304765,150,0.000553,-0.012781,0.043385,-0.033918,0.028022,0.999132
2011-09-26T15:26:02.314765,160,0.005270,-0.015547,0.046340,-0.033813,0.027938,0.999389
2011-09-26T15:26:02.324765,170,0.009987,-0.018312,0.049294,-0.033707,0.027855,0.999647
2011-09-26T15:26:02.334765,180,0.014703,-0.021078,0.052248,-0.033602,0.027771,0.999905
2011-09-26T15:26:02.344765,190,0.019420,-0.023844,0.055203,-0.033496,0.027687,1.000162
2011-09-26T15:26:02.354765,200,0.024053,-0.026619,0.058058,-0.033392,0.027604,1.000417
2011-09-26T15:26:02.364765,210,0.019991,-0.030389,0.050698,-0.033416,0.027589,1.000363
2011-09-26T15:26:02.374765,220,0.015929,-0.034159,0.043337,-0.033439,0.027573,1.000310
2011-09-26T15:26:02.384765,230,0.011866,-0.037929,0.035976,-0.033463,0.027557,1.000256
2011-09-26T15:26:02.394765,240,0.007804,-0.041699,0.028615,-0.033486,0.027541,1.000203
2011-09-26T15:26:02.404765,250,0.003742,-0.045469,0.021254,-0.033510,0.027526,1.000149
2011-09-26T15:26:02.414765,260,-0.000320,-0.049240,0.013893,-0.033534,0.027510,1.000095
2011-09-26T15:26:02.424765,270,-0.004383,-0.053010,0.006532,-0.033557,0.027494,1.000042
2011-09-26T15:26:02.434765,280,-0.008445,-0.056780,-0.000829,-0.033581,0.027478,0.999988
2011-09-26T15:26:02.444765,290,-0.012507,-0.060550,-0.008190,-0.033604,0.027463,0.999934
2011-09-26T15:26:02.454765,300,-0.016569,-0.064320,-0.015551,-0.033628,0.027447,0.999881
2011-09-26T15:26:02.464765,310,-0.020587,-0.068018,-0.022864,-0.033652,0.027432,0.999827
2011-09-26T15:26:02.474765,320,-0.016726,-0.058844,-0.021632,-0.033724,0.027513,0.999739
2011-09-26T15:26:02.484765,330,-0.012865,-0.049670,-0.020401,-0.033796,0.027594,0.999651
2011-09-26T15:26:02.494765,340,-0.009005,-0.040496,-0.019169,-0.033868,0.027676,0.999563
2011-09-26T15:26:02.504765,350,-0.005144,-0.031322,-0.017938,-0.033940,0.027757,0.999475
2011-09-26T15:26:02.514765,360,-0.001283,-0.022149,-0.016706,-0.034012,0.027838,0.999387
2011-09-26T15:26:02.524765,370,0.002578,-0.012975,-0.015475,-0.034084,0.027919,0.999299
2011-09-26T15:26:02.534765,380,0.006439,-0.003801,-0.014243,-0.034156,0.028001,0.999211
2011-09-26T15:26:02.544765,390,0.010299,0.005373,-0.013012,-0.034228,0.028082,0.999123
2011-09-26T15:26:02.554765,400,0.014160,0.014546,-0.011780,-0.034300,0.028163,0.999035
2011-09-26T15:26:02.564765,410,0.018004,0.023650,-0.010552,-0.034372,0.028244,0.998948
2011-09-26T15:26:02.574765,420,0.017724,0.016224,-0.010070,-0.034351,0.028183,0.999024
2011-09-26T15:26:02.584765,430,0.017443,0.008797,-0.009588,-0.034331,0.028123,0.999100
2011-09-26T15:26:02.594765,440,0.017163,0.001370,-0.009107,-0.034310,0.028062,0.999176
2011-09-26T15:26:02.604765,450,0.016883,-0.006057,-0.008625,-0.034289,0.028001,0.999251
2011-09-26T15:26:02.614765,460,0.016603,-0.013483,-0.008143,-0.034269,0.027940,0.999327
2011-09-26T15:26:02.624765,470,0.016323,-0.020910,-0.007661,-0.034248,0.027880,0.999403
2011-09-26T15:26:02.634765,480,0.016043,-0.028337,-0.007180,-0.034227,0.027819,0.999479
2011-09-26T15:26:02.644765,490,0.015763,-0.035763,-0.006698,-0.034207,0.027758,0.999555
2011-09-26T15:26:02.654765,500,0.015482,-0.043190,-0.006216,-0.034186,0.027697,0.999631
2011-09-26T15:26:02.664765,510,0.015202,-0.050617,-0.005735,-0.034165,0.027637,0.999707
2011-09-26T15:26:02.674765,520,0.013101,-0.042393,-0.009420,-0.034233,0.027706,0.999571
2011-09-26T15:26:02.684765,530,0.010974,-0.033948,-0.013164,-0.034301,0.027777,0.999432
2011-09-26T15:26:02.694765,540,0.008847,-0.025502,-0.016909,-0.034370,0.027848,0.999293
2011-09-26T15:26:02.704765,550,0.006719,-0.017057,-0.020653,-0.034439,0.027919,0.999154
2011-09-26T15:26:02.714765,560,0.004592,-0.008612,-0.024397,-0.034508,0.027990,0.999015
2011-09-26T15:26:02.724765,570,0.002465,-0.000167,-0.028142,-0.034576,0.028061,0.998877
2011-09-26T15:26:02.734765,580,0.000338,0.008278,-0.031886,-0.034645,0.028132,0.998738
2011-09-26T15:26:02.744765,590,-0.001789,0.016723,-0.035630,-0.034714,0.028203,0.998599
2011-09-26T15:26:02.754765,600,-0.003916,0.025168,-0.039375,-0.034782,0.028274,0.998460
2011-09-26T15:26:02.764765,610,-0.006043,0.033613,-0.043119,-0.034851,0.028345,0.998321
2011-09-26T15:26:02.774765,620,-0.008159,0.042014,-0.046834,-0.034919,0.028416,0.998183
2011-09-26T15:26:02.784765,630,-0.006350,0.035513,-0.040663,-0.034760,0.028317,0.998424
2011-09-26T15:26:02.794765,640,-0.004541,0.029012,-0.034493,-0.034600,0.028217,0.998665
2011-09-26T15:26:02.804765,650,-0.002732,0.022511,-0.028322,-0.034441,0.028118,0.998906
2011-09-26T15:26:02.814765,660,-0.000924,0.016010,-0.022152,-0.034281,0.028019,0.999147
2011-09-26T15:26:02.824765,670,0.000885,0.009509,-0.015981,-0.034122,0.027920,0.999388
2011-09-26T15:26:02.834765,680,0.002694,0.003008,-0.009811,-0.033962,0.027821,0.999629
2011-09-26T15:26:02.844765,690,0.004503,-0.003493,-0.003640,-0.033803,0.027721,0.999870
2011-09-26T15:26:02.854765,700,0.006312,-0.009994,0.002530,-0.033643,0.027622,1.000111
2011-09-26T15:26:02.864765,710,0.008121,-0.016495,0.008701,-0.033484,0.027523,1.000352
2011-09-26T15:26:02.874765,720,0.009929,-0.022967,0.014852,-0.033325,0.027424,1.000591
2011-09-26T15:26:02.884765,730,0.011752,-0.019986,0.014801,-0.033485,0.027529,1.000371
2011-09-26T15:26:02.894765,740,0.013575,-0.017005,0.014750,-0.033646,0.027634,1.000150
2011-09-26T15:26:02.904765,750,0.015398,-0.014024,0.014699,-0.033806,0.027739,0.999930
2011-09-26T15:26:02.914765,760,0.017220,-0.011043,0.014648,-0.033967,0.027844,0.999709
2011-09-26T15:26:02.924765,770,0.019043,-0.008063,0.014597,-0.034127,0.027949,0.999489
2011-09-26T15:26:02.934765,780,0.020866,-0.005082,0.014546,-0.034287,0.028053,0.999268
2011-09-26T15:26:02.944765,790,0.022689,-0.002101,0.014495,-0.034448,0.028158,0.999048
2011-09-26T15:26:02.954765,800,0.024512,0.000880,0.014444,-0.034608,0.028263,0.998827
2011-09-26T15:26:02.964765,810,0.026334,0.003861,0.014393,-0.034769,0.028368,0.998607
2011-09-26T15:26:02.974765,820,0.028143,0.006831,0.014347,-0.034928,0.028472,0.998388
2011-09-26T15:26:02.984765,830,0.026002,0.006838,0.015703,-0.034838,0.028417,0.998468
2011-09-26T15:26:02.994765,840,0.023861,0.006846,0.017060,-0.034749,0.028362,0.998548
2011-09-26T15:26:03.004765,850,0.021720,0.006853,0.018417,-0.034659,0.028306,0.998629
2011-09-26T15:26:03.014765,860,0.019579,0.006860,0.019774,-0.034569,0.028251,0.998709
2011-09-26T15:26:03.024765,870,0.017438,0.006868,0.021130,-0.034479,0.028195,0.998789
2011-09-26T15:26:03.034765,880,0.015297,0.006875,0.022487,-0.034389,0.028140,0.998870
2011-09-26T15:26:03.044765,890,0.013156,0.006883,0.023844,-0.034300,0.028084,0.998950
2011-09-26T15:26:03.054765,900,0.011015,0.006890,0.025201,-0.034210,0.028029,0.999030
2011-09-26T15:26:03.064765,910,0.008874,0.006897,0.026557,-0.034120,0.027974,0.999111
2011-09-26T15:26:03.074765,920,0.006733,0.006905,0.027914,-0.034030,0.027918,0.999191
2011-09-26T15:26:03.084765,930,0.004598,0.006913,0.029269,-0.033941,0.027863,0.999271
2011-09-26T15:26:03.094765,940,0.004203,0.007249,0.029999,-0.033977,0.027838,0.999227
2011-09-26T15:26:03.104765,950,0.003808,0.007584,0.030730,-0.034014,0.027813,0.999183
2011-09-26T15:26:03.114765,960,0.003414,0.007920,0.031460,-0.034050,0.027788,0.999139
2011-09-26T15:26:03.124765,970,0.003019,0.008256,0.032191,-0.034087,0.027763,0.999095
2011-09-26T15:26:03.134765,980,0.002625,0.008591,0.032921,-0.034124,0.027738,0.999051
2011-09-26T15:26:03.144765,990,0.002230,0.008927,0.033651,-0.034160,0.027713,0.999007
2011-09-26T15:26:03.154765,1000,0.001835,0.009262,0.034382,-0.034197,0.027688,0.998964
2011-09-26T15:26:03.164765,1010,0.001441,0.009598,0.035112,-0.034233,0.027664,0.998920
2011-09-26T15:26:03.174765,1020,0.001046,0.009934,0.035843,-0.034270,0.027639,0.998876
2011-09-26T15:26:03.184765,1030,0.000651,0.010269,0.036573,-0.034307,0.027614,0.998832
2011-09-26T15:26:03.194765,1040,0.000461,0.013598,0.033750,-0.034241,0.027625,0.998937
2011-09-26T15:26:03.204765,1050,0.000272,0.016941,0.030909,-0.034175,0.027636,0.999043
2011-09-26T15:26:03.214765,1060,0.000083,0.020284,0.028069,-0.034108,0.027647,0.999149
2011-09-26T15:26:03.224765,1070,-0.000106,0.023627,0.025228,-0.034042,0.027659,0.999255
2011-09-26T15:26:03.234765,1080,-0.000295,0.026971,0.022387,-0.033976,0.027670,0.999361
2011-09-26T15:26:03.244765,1090,-0.000484,0.030314,0.019547,-0.033910,0.027681,0.999467
2011-09-26T15:26:03.254765,1100,-0.000673,0.033657,0.016706,-0.033843,0.027692,0.999573
2011-09-26T15:26:03.264765,1110,-0.000862,0.037000,0.013865,-0.033777,0.027704,0.999679
2011-09-26T15:26:03.274765,1120,-0.001052,0.040343,0.011024,-0.033711,0.027715,0.999784
2011-09-26T15:26:03.284765,1130,-0.001240,0.043659,0.008203,-0.033645,0.027726,0.999890
2011-09-26T15:26:03.294765,1140,-0.001202,0.035811,0.013275,-0.033642,0.027655,0.999892
2011-09-26T15:26:03.304765,1150,-0.001163,0.027964,0.018346,-0.033640,0.027584,0.999894
2011-09-26T15:26:03.314765,1160,-0.001124,0.020116,0.023417,-0.033637,0.027513,0.999895
2011-09-26T15:26:03.324765,1170,-0.001086,0.012269,0.028489,-0.033635,0.027442,0.999897
2011-09-26T15:26:03.334765,1180,-0.001047,0.004421,0.033560,-0.033632,0.027371,0.999899
2011-09-26T15:26:03.344765,1190,-0.001009,-0.003427,0.038631,-0.033629,0.027300,0.999901
2011-09-26T15:26:03.354765,1200,-0.000970,-0.011274,0.043702,-0.033627,0.027229,0.999903
2011-09-26T15:26:03.364765,1210,-0.000932,-0.019122,0.048774,-0.033624,0.027158,0.999904
2011-09-26T15:26:03.374765,1220,-0.000893,-0.026969,0.053845,-0.033622,0.027087,0.999906
2011-09-26T15:26:03.384765,1230,-0.000855,-0.034817,0.058916,-0.033619,0.027016,0.999908
2011-09-26T15:26:03.394765,1240,-0.000818,-0.042630,0.063975,-0.033617,0.026946,0.999909
2011-09-26T15:26:03.404765,1250,-0.001747,-0.033792,0.063123,-0.033729,0.027095,0.999764
2011-09-26T15:26:03.414765,1260,-0.002676,-0.024954,0.062270,-0.033840,0.027245,0.999618
2011-09-26T15:26:03.424765,1270,-0.003604,-0.016117,0.061418,-0.033952,0.027394,0.999472
2011-09-26T15:26:03.434765,1280,-0.004533,-0.007279,0.060566,-0.034063,0.027544,0.999327
2011-09-26T15:26:03.444765,1290,-0.005462,0.001559,0.059713,-0.034175,0.027693,0.999181
2011-09-26T15:26:03.454765,1300,-0.006390,0.010396,0.058861,-0.034286,0.027843,0.999035
2011-09-26T15:26:03.464765,1310,-0.007319,0.019234,0.058009,-0.034398,0.027992,0.998889
2011-09-26T15:26:03.474765,1320,-0.008248,0.028071,0.057156,-0.034510,0.028142,0.998744
2011-09-26T15:26:03.484765,1330,-0.009177,0.036909,0.056304,-0.034621,0.028292,0.998598
2011-09-26T15:26:03.494765,1340,-0.010105,0.045744,0.055451,-0.034733,0.028441,0.998452
2011-09-26T15:26:03.504765,1350,-0.007290,0.043014,0.052003,-0.034619,0.028336,0.998605
2011-09-26T15:26:03.514765,1360,-0.004475,0.040284,0.048555,-0.034505,0.028232,0.998758
2011-09-26T15:26:03.524765,1370,-0.001661,0.037553,0.045107,-0.034391,0.028127,0.998911
2011-09-26T15:26:03.534765,1380,0.001154,0.034823,0.041660,-0.034277,0.028023,0.999064
2011-09-26T15:26:03.544765,1390,0.003969,0.032092,0.038212,-0.034164,0.027918,0.999217
2011-09-26T15:26:03.554765,1400,0.006783,0.029362,0.034764,-0.034050,0.027813,0.999370
2011-09-26T15:26:03.564765,1410,0.009598,0.026632,0.031316,-0.033936,0.027709,0.999522
2011-09-26T15:26:03.574765,1420,0.012412,0.023901,0.027868,-0.033822,0.027604,0.999675
2011-09-26T15:26:03.584765,1430,0.015227,0.021171,0.024420,-0.033708,0.027499,0.999828
2011-09-26T15:26:03.594765,1440,0.018042,0.018441,0.020973,-0.033594,0.027395,0.999981
2011-09-26T15:26:03.604765,1450,0.020856,0.015710,0.017525,-0.033481,0.027290,1.000134
2011-09-26T15:26:03.614765,1460,0.017647,0.014700,0.017799,-0.033579,0.027386,0.999944
2011-09-26T15:26:03.624765,1470,0.014410,0.013698,0.018091,-0.033678,0.027482,0.999753
2011-09-26T15:26:03.634765,1480,0.011173,0.012696,0.018382,-0.033777,0.027579,0.999561
2011-09-26T15:26:03.644765,1490,0.007935,0.011694,0.018674,-0.033876,0.027676,0.999370
2011-09-26T15:26:03.654765,1500,0.004698,0.010692,0.018965,-0.033976,0.027772,0.999179
2011-09-26T15:26:03.664765,1510,0.001461,0.009690,0.019256,-0.034075,0.027869,0.998988
2011-09-26T15:26:03.674765,1520,-0.001776,0.008688,0.019548,-0.034174,0.027965,0.998796
2011-09-26T15:26:03.684765,1530,-0.005013,0.007686,0.019839,-0.034273,0.028062,0.998605
2011-09-26T15:26:03.694765,1540,-0.008250,0.006684,0.020131,-0.034372,0.028159,0.998414
2011-09-26T15:26:03.704765,1550,-0.011487,0.005682,0.020422,-0.034472,0.028255,0.998222
2011-09-26T15:26:03.714765,1560,-0.009356,0.000365,0.017198,-0.034367,0.028168,0.998473
2011-09-26T15:26:03.724765,1570,-0.007203,-0.004969,0.013959,-0.034263,0.028080,0.998725
2011-09-26T15:26:03.734765,1580,-0.005050,-0.010304,0.010720,-0.034158,0.027992,0.998977
2011-09-26T15:26:03.744765,1590,-0.002897,-0.015638,0.007481,-0.034053,0.027904,0.999229
2011-09-26T15:26:03.754765,1600,-0.000744,-0.020973,0.004242,-0.033948,0.027816,0.999482
2011-09-26T15:26:03.764765,1610,0.001409,-0.026307,0.001003,-0.033843,0.027727,0.999734
2011-09-26T15:26:03.774765,1620,0.003562,-0.031642,-0.002235,-0.033738,0.027639,0.999986
2011-09-26T15:26:03.784765,1630,0.005715,-0.036976,-0.005474,-0.033633,0.027551,1.000238
2011-09-26T15:26:03.794765,1640,0.007869,-0.042311,-0.008713,-0.033528,0.027463,1.000491
2011-09-26T15:26:03.804765,1650,0.010022,-0.047645,-0.011952,-0.033423,0.027375,1.000743
2011-09-26T15:26:03.814765,1660,0.008000,-0.039425,-0.000151,-0.033570,0.027518,1.000478
2011-09-26T15:26:03.824765,1670,0.005967,-0.031168,0.011692,-0.033719,0.027660,1.000212
2011-09-26T15:26:03.834765,1680,0.003934,-0.022911,0.023535,-0.033867,0.027803,0.999945
2011-09-26T15:26:03.844765,1690,0.001901,-0.014654,0.035377,-0.034015,0.027946,0.999679
2011-09-26T15:26:03.854765,1700,-0.000131,-0.006397,0.047220,-0.034163,0.028089,0.999412
2011-09-26T15:26:03.864765,1710,-0.002164,0.001861,0.059062,-0.034311,0.028232,0.999146
2011-09-26T15:26:03.874765,1720,-0.004197,0.010118,0.070905,-0.034459,0.028375,0.998880
2011-09-26T15:26:03.884765,1730,-0.006230,0.018375,0.082748,-0.034608,0.028518,0.998613
2011-09-26T15:26:03.894765,1740,-0.008263,0.026632,0.094590,-0.034756,0.028661,0.998347
2011-09-26T15:26:03.904765,1750,-0.010296,0.034889,0.106433,-0.034904,0.028804,0.998081
2011-09-26T15:26:03.914765,1760,-0.007518,0.034684,0.098716,-0.034831,0.028756,0.998196
2011-09-26T15:26:03.924765,1770,-0.004741,0.034478,0.090997,-0.034759,0.028709,0.998312
2011-09-26T15:26:03.934765,1780,-0.001963,0.034273,0.083278,-0.034686,0.028661,0.998428
2011-09-26T15:26:03.944765,1790,0.000815,0.034067,0.075559,-0.034613,0.028613,0.998543
2011-09-26T15:26:03.954765,1800,0.003593,0.033861,0.067840,-0.034541,0.028566,0.998659
2011-09-26T15:26:03.964765,1810,0.006371,0.033656,0.060121,-0.034468,0.028518,0.998775
2011-09-26T15:26:03.974765,1820,0.009149,0.033450,0.052402,-0.034396,0.028471,0.998891
2011-09-26T15:26:03.984765,1830,0.011927,0.033244,0.044683,-0.034323,0.028423,0.999006
2011-09-26T15:26:03.994765,1840,0.014705,0.033038,0.036964,-0.034250,0.028375,0.999122
2011-09-26T15:26:04.004765,1850,0.017482,0.032833,0.029245,-0.034178,0.028328,0.999238
2011-09-26T15:26:04.014765,1860,0.020260,0.032627,0.021526,-0.034105,0.028280,0.999354
2011-09-26T15:26:04.024765,1870,0.017253,0.025001,0.018600,-0.034112,0.028196,0.999341
2011-09-26T15:26:04.034765,1880,0.014233,0.017358,0.015684,-0.034120,0.028112,0.999327
2011-09-26T15:26:04.044765,1890,0.011213,0.009715,0.012769,-0.034127,0.028029,0.999314
2011-09-26T15:26:04.054765,1900,0.008193,0.002073,0.009853,-0.034135,0.027945,0.999301
2011-09-26T15:26:04.064765,1910,0.005173,-0.005570,0.006937,-0.034142,0.027861,0.999287
2011-09-26T15:26:04.074765,1920,0.002153,-0.013213,0.004022,-0.034149,0.027777,0.999274
2011-09-26T15:26:04.084765,1930,-0.000867,-0.020855,0.001106,-0.034157,0.027693,0.999261
2011-09-26T15:26:04.094765,1940,-0.003887,-0.028498,-0.001809,-0.034164,0.027610,0.999247
2011-09-26T15:26:04.104765,1950,-0.006907,-0.036141,-0.004725,-0.034172,0.027526,0.999234
2011-09-26T15:26:04.114765,1960,-0.009924,-0.043776,-0.007637,-0.034179,0.027442,0.999221
2011-09-26T15:26:04.124765,1970,-0.008532,-0.041034,-0.005644,-0.034246,0.027561,0.999168
2011-09-26T15:26:04.134765,1980,-0.007140,-0.038292,-0.003652,-0.034313,0.027679,0.999115
2011-09-26T15:26:04.144765,1990,-0.005748,-0.035550,-0.001659,-0.034380,0.027798,0.999063
2011-09-26T15:26:04.154765,2000,-0.004355,-0.032809,0.000334,-0.034446,0.027916,0.999010
2011-09-26T15:26:04.164765,2010,-0.002963,-0.030067,0.002327,-0.034513,0.028035,0.998957
2011-09-26T15:26:04.174765,2020,-0.001571,-0.027325,0.004320,-0.034580,0.028153,0.998905
2011-09-26T15:26:04.184765,2030,-0.000179,-0.024583,0.006313,-0.034647,0.028272,0.998852
2011-09-26T15:26:04.194765,2040,0.001213,-0.021841,0.008305,-0.034714,0.028390,0.998799
2011-09-26T15:26:04.204765,2050,0.002605,-0.019099,0.010298,-0.034780,0.028508,0.998747
2011-09-26T15:26:04.214765,2060,0.003997,-0.016357,0.012291,-0.034847,0.028627,0.998694
2011-09-26T15:26:04.224765,2070,0.005390,-0.013615,0.014284,-0.034914,0.028745,0.998641
2011-09-26T15:26:04.234765,2080,0.006288,-0.014003,0.011734,-0.034756,0.028599,0.998766
2011-09-26T15:26:04.244765,2090,0.007181,-0.014417,0.009147,-0.034595,0.028450,0.998892
2011-09-26T15:26:04.254765,2100,0.008075,-0.014831,0.006559,-0.034435,0.028301,0.999018
2011-09-26T15:26:04.264765,2110,0.008969,-0.015245,0.003972,-0.034275,0.028152,0.999143
2011-09-26T15:26:04.274765,2120,0.009863,-0.015658,0.001385,-0.034115,0.028004,0.999269
2011-09-26T15:26:04.284765,2130,0.010757,-0.016072,-0.001203,-0.033955,0.027855,0.999395
2011-09-26T15:26:04.294765,2140,0.011651,-0.016486,-0.003790,-0.033794,0.027706,0.999521
2011-09-26T15:26:04.304765,2150,0.012545,-0.016900,-0.006377,-0.033634,0.027557,0.999647
2011-09-26T15:26:04.314765,2160,0.013438,-0.017314,-0.008964,-0.033474,0.027409,0.999773
2011-09-26T15:26:04.324765,2170,0.014332,-0.017727,-0.011552,-0.033314,0.027260,0.999898
2011-09-26T15:26:04.334765,2180,0.012599,-0.014213,-0.006301,-0.033465,0.027388,0.999774
2011-09-26T15:26:04.344765,2190,0.010850,-0.010677,-0.001005,-0.033619,0.027518,0.999649
2011-09-26T15:26:04.354765,2200,0.009101,-0.007140,0.004291,-0.033772,0.027648,0.999523
2011-09-26T15:26:04.364765,2210,0.007353,-0.003603,0.009587,-0.033925,0.027778,0.999398
2011-09-26T15:26:04.374765,2220,0.005604,-0.000067,0.014883,-0.034078,0.027907,0.999272
2011-09-26T15:26:04.384765,2230,0.003856,0.003470,0.020179,-0.034232,0.028037,0.999147
2011-09-26T15:26:04.394765,2240,0.002107,0.007007,0.025475,-0.034385,0.028167,0.999021
2011-09-26T15:26:04.404765,2250,0.000358,0.010543,0.030771,-0.034538,0.028297,0.998896
2011-09-26T15:26:04.414765,2260,-0.001390,0.014080,0.036066,-0.034692,0.028427,0.998770
2011-09-26T15:26:04.424765,2270,-0.003139,0.017617,0.041362,-0.034845,0.028557,0.998645
2011-09-26T15:26:04.434765,2280,0.000352,0.016501,0.031361,-0.034707,0.028448,0.998819
2011-09-26T15:26:04.444765,2290,0.003878,0.015354,0.021254,-0.034567,0.028339,0.998995
2011-09-26T15:26:04.454765,2300,0.007405,0.014207,0.011148,-0.034427,0.028229,0.999172
2011-09-26T15:26:04.464765,2310,0.010932,0.013060,0.001041,-0.034288,0.028119,0.999348
2011-09-26T15:26:04.474765,2320,0.014458,0.011913,-0.009065,-0.034148,0.028009,0.999525
2011-09-26T15:26:04.484765,2330,0.017985,0.010765,-0.019171,-0.034008,0.027899,0.999701
2011-09-26T15:26:04.494765,2340,0.021511,0.009618,-0.029278,-0.033868,0.027789,0.999878
2011-09-26T15:26:04.504765,2350,0.025038,0.008471,-0.039384,-0.033728,0.027679,1.000054
2011-09-26T15:26:04.514765,2360,0.028564,0.007324,-0.049491,-0.033588,0.027569,1.000231
2011-09-26T15:26:04.524765,2370,0.032091,0.006176,-0.059597,-0.033448,0.027459,1.000407
2011-09-26T15:26:04.534765,2380,0.035618,0.005029,-0.069704,-0.033308,0.027349,1.000584
2011-09-26T15:26:04.544765,2390,0.031464,0.011327,-0.066339,-0.033423,0.027442,1.000287
2011-09-26T15:26:04.554765,2400,0.027289,0.017646,-0.062934,-0.033538,0.027535,0.999989
2011-09-26T15:26:04.564765,2410,0.023113,0.023966,-0.059530,-0.033652,0.027628,0.999690
2011-09-26T15:26:04.574765,2420,0.018937,0.030285,-0.056126,-0.033767,0.027721,0.999392
2011-09-26T15:26:04.584765,2430,0.014761,0.036605,-0.052721,-0.033882,0.027814,0.999094
2011-09-26T15:26:04.594765,2440,0.010585,0.042924,-0.049317,-0.033997,0.027907,0.998796
2011-09-26T15:26:04.604765,2450,0.006409,0.049244,-0.045912,-0.034112,0.028000,0.998497
2011-09-26T15:26:04.614765,2460,0.002233,0.055563,-0.042508,-0.034227,0.028093,0.998199
2011-09-26T15:26:04.624765,2470,-0.001942,0.061882,-0.039104,-0.034342,0.028186,0.997901
2011-09-26T15:26:04.634765,2480,-0.006118,0.068202,-0.035699,-0.034457,0.028279,0.997602
2011-09-26T15:26:04.644765,2490,-0.002938,0.062327,-0.029054,-0.034390,0.028187,0.997892
2011-09-26T15:26:04.654765,2500,0.000429,0.056143,-0.022326,-0.034319,0.028090,0.998197
2011-09-26T15:26:04.664765,2510,0.003795,0.049959,-0.015598,-0.034248,0.027993,0.998502
2011-09-26T15:26:04.674765,2520,0.007162,0.043775,-0.008871,-0.034177,0.027896,0.998806
2011-09-26T15:26:04.684765,2530,0.010528,0.037591,-0.002143,-0.034106,0.027800,0.999111
2011-09-26T15:26:04.694765,2540,0.013895,0.031407,0.004584,-0.034035,0.027703,0.999416
2011-09-26T15:26:04.704765,2550,0.017261,0.025223,0.011312,-0.033964,0.027606,0.999720
2011-09-26T15:26:04.714765,2560,0.020628,0.019039,0.018040,-0.033893,0.027509,1.000025
2011-09-26T15:26:04.724765,2570,0.023995,0.012855,0.024767,-0.033822,0.027412,1.000330
2011-09-26T15:26:04.734765,2580,0.027361,0.006671,0.031495,-0.033751,0.027316,1.000635
2011-09-26T15:26:04.744765,2590,0.023579,0.006173,0.026309,-0.033833,0.027361,1.000429
2011-09-26T15:26:04.754765,2600,0.019737,0.005722,0.021025,-0.033917,0.027407,1.000218
2011-09-26T15:26:04.764765,2610,0.015895,0.005271,0.015741,-0.034000,0.027453,1.000008
2011-09-26T15:26:04.774765,2620,0.012053,0.004820,0.010457,-0.034084,0.027500,0.999798
2011-09-26T15:26:04.784765,2630,0.008211,0.004369,0.005173,-0.034167,0.027546,0.999587
2011-09-26T15:26:04.794765,2640,0.004369,0.003918,-0.000111,-0.034251,0.027592,0.999377
2011-09-26T15:26:04.804765,2650,0.000528,0.003468,-0.005395,-0.034335,0.027638,0.999167
2011-09-26T15:26:04.814765,2660,-0.003314,0.003017,-0.010679,-0.034418,0.027685,0.998956
2011-09-26T15:26:04.824765,2670,-0.007156,0.002566,-0.015963,-0.034502,0.027731,0.998746
2011-09-26T15:26:04.834765,2680,-0.010998,0.002115,-0.021247,-0.034586,0.027777,0.998536
2011-09-26T15:26:04.844765,2690,-0.014840,0.001664,-0.026531,-0.034669,0.027823,0.998325
2011-09-26T15:26:04.854765,2700,-0.011796,0.004335,-0.027083,-0.034494,0.027796,0.998507
2011-09-26T15:26:04.864765,2710,-0.008591,0.007079,-0.027524,-0.034312,0.027767,0.998698
2011-09-26T15:26:04.874765,2720,-0.005386,0.009824,-0.027966,-0.034130,0.027738,0.998889
2011-09-26T15:26:04.884765,2730,-0.002181,0.012568,-0.028407,-0.033948,0.027710,0.999080
2011-09-26T15:26:04.894765,2740,0.001024,0.015312,-0.028848,-0.033767,0.027681,0.999271
2011-09-26T15:26:04.904765,2750,0.004229,0.018056,-0.029289,-0.033585,0.027652,0.999462
2011-09-26T15:26:04.914765,2760,0.007434,0.020800,-0.029731,-0.033403,0.027623,0.999653
2011-09-26T15:26:04.924765,2770,0.010639,0.023544,-0.030172,-0.033222,0.027594,0.999845
2011-09-26T15:26:04.934765,2780,0.013844,0.026288,-0.030613,-0.033040,0.027565,1.000036
2011-09-26T15:26:04.944765,2790,0.017049,0.029032,-0.031054,-0.032858,0.027536,1.000227
2011-09-26T15:26:04.954765,2800,0.014704,0.028155,-0.023232,-0.033043,0.027660,1.000037
2011-09-26T15:26:04.964765,2810,0.012319,0.027253,-0.015350,-0.033231,0.027785,0.999844
2011-09-26T15:26:04.974765,2820,0.009934,0.026350,-0.007468,-0.033419,0.027910,0.999651
2011-09-26T15:26:04.984765,2830,0.007548,0.025447,0.000414,-0.033607,0.028034,0.999458
2011-09-26T15:26:04.994765,2840,0.005163,0.024544,0.008297,-0.033794,0.028159,0.999265
2011-09-26T15:26:05.004765,2850,0.002778,0.023641,0.016179,-0.033982,0.028284,0.999072
2011-09-26T15:26:05.014765,2860,0.000392,0.022738,0.024061,-0.034170,0.028409,0.998879
2011-09-26T15:26:05.024765,2870,-0.001993,0.021835,0.031944,-0.034358,0.028534,0.998687
2011-09-26T15:26:05.034765,2880,-0.004379,0.020932,0.039826,-0.034546,0.028659,0.998494
2011-09-26T15:26:05.044765,2890,-0.006764,0.020029,0.047708,-0.034733,0.028783,0.998301
2011-09-26T15:26:05.054765,2900,-0.005604,0.021932,0.040045,-0.034685,0.028727,0.998398
2011-09-26T15:26:05.064765,2910,-0.004409,0.023864,0.032224,-0.034634,0.028668,0.998497
2011-09-26T15:26:05.074765,2920,-0.003213,0.025795,0.024404,-0.034584,0.028610,0.998597
2011-09-26T15:26:05.084765,2930,-0.002018,0.027726,0.016584,-0.034533,0.028551,0.998697
2011-09-26T15:26:05.094765,2940,-0.000822,0.029658,0.008763,-0.034482,0.028493,0.998796
2011-09-26T15:26:05.104765,2950,0.000373,0.031589,0.000943,-0.034431,0.028434,0.998896
2011-09-26T15:26:05.114765,2960,0.001569,0.033521,-0.006877,-0.034381,0.028376,0.998995
2011-09-26T15:26:05.124765,2970,0.002765,0.035452,-0.014698,-0.034330,0.028317,0.999095
2011-09-26T15:26:05.134765,2980,0.003960,0.037383,-0.022518,-0.034279,0.028259,0.999195
2011-09-26T15:26:05.144765,2990,0.005156,0.039315,-0.030339,-0.034228,0.028200,0.999294
2011-09-26T15:26:05.154765,3000,0.006351,0.041246,-0.038159,-0.034178,0.028142,0.999394
2011-09-26T15:26:05.164765,3010,0.005832,0.033665,-0.036639,-0.034190,0.028123,0.999310
2011-09-26T15:26:05.174765,3020,0.005252,0.025746,-0.034785,-0.034204,0.028105,0.999220
2011-09-26T15:26:05.184765,3030,0.004671,0.017826,-0.032932,-0.034219,0.028087,0.999130
2011-09-26T15:26:05.194765,3040,0.004091,0.009907,-0.031079,-0.034233,0.028069,0.999040
2011-09-26T15:26:05.204765,3050,0.003510,0.001987,-0.029226,-0.034248,0.028051,0.998950
2011-09-26T15:26:05.214765,3060,0.002930,-0.005933,-0.027373,-0.034262,0.028033,0.998860
2011-09-26T15:26:05.224765,3070,0.002349,-0.013852,-0.025519,-0.034277,0.028015,0.998770
2011-09-26T15:26:05.234765,3080,0.001769,-0.021772,-0.023666,-0.034292,0.027997,0.998680
2011-09-26T15:26:05.244765,3090,0.001188,-0.029692,-0.021813,-0.034306,0.027980,0.998590
2011-09-26T15:26:05.254765,3100,0.000608,-0.037611,-0.019960,-0.034321,0.027962,0.998500
2011-09-26T15:26:05.264765,3110,0.001735,-0.032932,-0.019059,-0.034202,0.027910,0.998704
2011-09-26T15:26:05.274765,3120,0.002872,-0.028186,-0.018164,-0.034084,0.027857,0.998910
2011-09-26T15:26:05.284765,3130,0.004009,-0.023440,-0.017268,-0.033965,0.027805,0.999116
2011-09-26T15:26:05.294765,3140,0.005145,-0.018694,-0.016373,-0.033846,0.027753,0.999322
2011-09-26T15:26:05.304765,3150,0.006282,-0.013948,-0.015478,-0.033727,0.027701,0.999529
2011-09-26T15:26:05.314765,3160,0.007418,-0.009202,-0.014582,-0.033608,0.027648,0.999735
2011-09-26T15:26:05.324765,3170,0.008555,-0.004456,-0.013687,-0.033490,0.027596,0.999941
2011-09-26T15:26:05.334765,3180,0.009691,0.000290,-0.012791,-0.033371,0.027544,1.000147
2011-09-26T15:26:05.344765,3190,0.010828,0.005037,-0.011896,-0.033252,0.027492,1.000353
2011-09-26T15:26:05.354765,3200,0.011964,0.009783,-0.011000,-0.033133,0.027439,1.000559
2011-09-26T15:26:05.364765,3210,0.011945,0.010503,-0.010256,-0.033237,0.027395,1.000439
2011-09-26T15:26:05.374765,3220,0.011922,0.011212,-0.009512,-0.033341,0.027351,1.000319
2011-09-26T15:26:05.384765,3230,0.011899,0.011920,-0.008768,-0.033444,0.027307,1.000198
2011-09-26T15:26:05.394765,3240,0.011877,0.012628,-0.008024,-0.033548,0.027263,1.000078
2011-09-26T15:26:05.404765,3250,0.011854,0.013336,-0.007280,-0.033652,0.027219,0.999957
2011-09-26T15:26:05.414765,3260,0.011831,0.014044,-0.006536,-0.033756,0.027175,0.999837
2011-09-26T15:26:05.424765,3270,0.011808,0.014753,-0.005792,-0.033860,0.027131,0.999716
2011-09-26T15:26:05.434765,3280,0.011785,0.015461,-0.005048,-0.033964,0.027087,0.999596
2011-09-26T15:26:05.444765,3290,0.011762,0.016169,-0.004304,-0.034068,0.027042,0.999475
2011-09-26T15:26:05.454765,3300,0.011740,0.016877,-0.003560,-0.034172,0.026998,0.999354
2011-09-26T15:26:05.464765,3310,0.011717,0.017586,-0.002816,-0.034276,0.026954,0.999234
2011-09-26T15:26:05.474765,3320,0.010620,0.018130,-0.002551,-0.034263,0.027107,0.999182
2011-09-26T15:26:05.484765,3330,0.009516,0.018673,-0.002289,-0.034250,0.027260,0.999131
2011-09-26T15:26:05.494765,3340,0.008413,0.019216,-0.002027,-0.034237,0.027414,0.999080
2011-09-26T15:26:05.504765,3350,0.007309,0.019760,-0.001764,-0.034223,0.027568,0.999030
2011-09-26T15:26:05.514765,3360,0.006205,0.020303,-0.001502,-0.034210,0.027721,0.998979
2011-09-26T15:26:05.524765,3370,0.005102,0.020846,-0.001240,-0.034196,0.027875,0.998928
2011-09-26T15:26:05.534765,3380,0.003998,0.021389,-0.000977,-0.034183,0.028029,0.998877
2011-09-26T15:26:05.544765,3390,0.002894,0.021932,-0.000715,-0.034170,0.028182,0.998826
2011-09-26T15:26:05.554765,3400,0.001791,0.022476,-0.000453,-0.034156,0.028336,0.998775
2011-09-26T15:26:05.564765,3410,0.000687,0.023019,-0.000191,-0.034143,0.028490,0.998724
2011-09-26T15:26:05.574765,3420,-0.003082,0.018282,0.002609,-0.034043,0.028363,0.998901
2011-09-26T15:26:05.584765,3430,-0.006872,0.013504,0.005428,-0.033942,0.028234,0.999080
2011-09-26T15:26:05.594765,3440,-0.010662,0.008726,0.008247,-0.033842,0.028105,0.999260
2011-09-26T15:26:05.604765,3450,-0.014452,0.003948,0.011066,-0.033741,0.027976,0.999439
2011-09-26T15:26:05.614765,3460,-0.018243,-0.000830,0.013886,-0.033640,0.027847,0.999618
2011-09-26T15:26:05.624765,3470,-0.022033,-0.005608,0.016705,-0.033540,0.027718,0.999797
2011-09-26T15:26:05.634765,3480,-0.025823,-0.010386,0.019524,-0.033439,0.027590,0.999976
2011-09-26T15:26:05.644765,3490,-0.029613,-0.015165,0.022343,-0.033338,0.027461,1.000156
2011-09-26T15:26:05.654765,3500,-0.033403,-0.019943,0.025162,-0.033238,0.027332,1.000335
2011-09-26T15:26:05.664765,3510,-0.037193,-0.024721,0.027982,-0.033137,0.027203,1.000514
2011-09-26T15:26:05.674765,3520,-0.040983,-0.029499,0.030801,-0.033037,0.027074,1.000693
2011-09-26T15:26:05.684765,3530,-0.037716,-0.019814,0.031456,-0.033203,0.027213,1.000399
2011-09-26T15:26:05.694765,3540,-0.034259,-0.009737,0.032053,-0.033376,0.027360,1.000092
2011-09-26T15:26:05.704765,3550,-0.030802,0.000339,0.032650,-0.033549,0.027507,0.999785
2011-09-26T15:26:05.714765,3560,-0.027344,0.010415,0.033247,-0.033723,0.027653,0.999478
2011-09-26T15:26:05.724765,3570,-0.023887,0.020491,0.033844,-0.033896,0.027800,0.999171
2011-09-26T15:26:05.734765,3580,-0.020430,0.030567,0.034441,-0.034070,0.027946,0.998863
2011-09-26T15:26:05.744765,3590,-0.016972,0.040643,0.035038,-0.034243,0.028093,0.998556
2011-09-26T15:26:05.754765,3600,-0.013515,0.050719,0.035635,-0.034416,0.028240,0.998249
2011-09-26T15:26:05.764765,3610,-0.010058,0.060795,0.036232,-0.034590,0.028386,0.997942
2011-09-26T15:26:05.774765,3620,-0.006601,0.070871,0.036829,-0.034763,0.028533,0.997635
2011-09-26T15:26:05.784765,3630,-0.007577,0.059336,0.032934,-0.034690,0.028322,0.997865
2011-09-26T15:26:05.794765,3640,-0.008590,0.047626,0.029003,-0.034615,0.028108,0.998099
2011-09-26T15:26:05.804765,3650,-0.009602,0.035916,0.025073,-0.034540,0.027894,0.998333
2011-09-26T15:26:05.814765,3660,-0.010615,0.024206,0.021142,-0.034466,0.027680,0.998567
2011-09-26T15:26:05.824765,3670,-0.011627,0.012496,0.017211,-0.034391,0.027466,0.998801
2011-09-26T15:26:05.834765,3680,-0.012640,0.000786,0.013280,-0.034316,0.027252,0.999034
2011-09-26T15:26:05.844765,3690,-0.013652,-0.010924,0.009349,-0.034241,0.027038,0.999268
2011-09-26T15:26:05.854765,3700,-0.014665,-0.022634,0.005418,-0.034166,0.026824,0.999502
2011-09-26T15:26:05.864765,3710,-0.015677,-0.034344,0.001488,-0.034091,0.026610,0.999736
2011-09-26T15:26:05.874765,3720,-0.016690,-0.046054,-0.002443,-0.034017,0.026396,0.999970
2011-09-26T15:26:05.884765,3730,-0.015195,-0.039913,-0.002488,-0.034015,0.026642,0.999904
2011-09-26T15:26:05.894765,3740,-0.013673,-0.033576,-0.002490,-0.034015,0.026894,0.999835
2011-09-26T15:26:05.904765,3750,-0.012151,-0.027240,-0.002492,-0.034014,0.027145,0.999766
2011-09-26T15:26:05.914765,3760,-0.010629,-0.020904,-0.002494,-0.034013,0.027396,0.999696
2011-09-26T15:26:05.924765,3770,-0.009107,-0.014568,-0.002496,-0.034013,0.027648,0.999627
2011-09-26T15:26:05.934765,3780,-0.007585,-0.008232,-0.002497,-0.034012,0.027899,0.999558
2011-09-26T15:26:05.944765,3790,-0.006063,-0.001896,-0.002499,-0.034012,0.028150,0.999489
2011-09-26T15:26:05.954765,3800,-0.004541,0.004441,-0.002501,-0.034011,0.028401,0.999419
2011-09-26T15:26:05.964765,3810,-0.003019,0.010777,-0.002503,-0.034011,0.028653,0.999350
2011-09-26T15:26:05.974765,3820,-0.001497,0.017113,-0.002505,-0.034010,0.028904,0.999281
2011-09-26T15:26:05.984765,3830,-0.001572,0.014695,-0.000718,-0.033969,0.028766,0.999356
2011-09-26T15:26:05.994765,3840,-0.001663,0.012195,0.001085,-0.033927,0.028625,0.999434
2011-09-26T15:26:06.004765,3850,-0.001753,0.009696,0.002889,-0.033885,0.028484,0.999511
2011-09-26T15:26:06.014765,3860,-0.001843,0.007196,0.004693,-0.033843,0.028343,0.999588
2011-09-26T15:26:06.024765,3870,-0.001934,0.004697,0.006496,-0.033801,0.028202,0.999665
2011-09-26T15:26:06.034765,3880,-0.002024,0.002197,0.008300,-0.033760,0.028061,0.999742
2011-09-26T15:26:06.044765,3890,-0.002115,-0.000303,0.010104,-0.033718,0.027920,0.999819
2011-09-26T15:26:06.054765,3900,-0.002205,-0.002802,0.011907,-0.033676,0.027779,0.999896
2011-09-26T15:26:06.064765,3910,-0.002295,-0.005302,0.013711,-0.033634,0.027638,0.999973
2011-09-26T15:26:06.074765,3920,-0.002386,-0.007801,0.015515,-0.033592,0.027497,1.000050
2011-09-26T15:26:06.084765,3930,-0.002476,-0.010301,0.017318,-0.033551,0.027356,1.000127
2011-09-26T15:26:06.094765,3940,-0.000243,-0.014774,0.017513,-0.033693,0.027459,0.999994
2011-09-26T15:26:06.104765,3950,0.002011,-0.019266,0.017694,-0.033837,0.027565,0.999859
2011-09-26T15:26:06.114765,3960,0.004265,-0.023757,0.017874,-0.033981,0.027671,0.999724
2011-09-26T15:26:06.124765,3970,0.006519,-0.028249,0.018054,-0.034125,0.027777,0.999589
2011-09-26T15:26:06.134765,3980,0.008773,-0.032740,0.018235,-0.034269,0.027883,0.999454
2011-09-26T15:26:06.144765,3990,0.011027,-0.037231,0.018415,-0.034413,0.027988,0.999319
2011-09-26T15:26:06.154765,4000,0.013281,-0.041723,0.018596,-0.034556,0.028094,0.999184
2011-09-26T15:26:06.164765,4010,0.015534,-0.046214,0.018776,-0.034700,0.028200,0.999049
2011-09-26T15:26:06.174765,4020,0.017788,-0.050705,0.018956,-0.034844,0.028306,0.998914
2011-09-26T15:26:06.184765,4030,0.020042,-0.055197,0.019137,-0.034988,0.028412,0.998779
2011-09-26T15:26:06.194765,4040,0.018831,-0.050411,0.019459,-0.034866,0.028389,0.998893
2011-09-26T15:26:06.204765,4050,0.017570,-0.045494,0.019783,-0.034741,0.028365,0.999010
2011-09-26T15:26:06.214765,4060,0.016310,-0.040577,0.020108,-0.034615,0.028341,0.999128
2011-09-26T15:26:06.224765,4070,0.015049,-0.035660,0.020432,-0.034490,0.028316,0.999245
2011-09-26T15:26:06.234765,4080,0.013788,-0.030743,0.020757,-0.034364,0.028292,0.999363
2011-09-26T15:26:06.244765,4090,0.012528,-0.025826,0.021081,-0.034239,0.028268,0.999481
2011-09-26T15:26:06.254765,4100,0.011267,-0.020909,0.021406,-0.034113,0.028244,0.999598
2011-09-26T15:26:06.264765,4110,0.010006,-0.015992,0.021730,-0.033987,0.028219,0.999716
2011-09-26T15:26:06.274765,4120,0.008746,-0.011075,0.022054,-0.033862,0.028195,0.999833
2011-09-26T15:26:06.284765,4130,0.007485,-0.006157,0.022379,-0.033736,0.028171,0.999951
2011-09-26T15:26:06.294765,4140,0.006224,-0.001240,0.022703,-0.033611,0.028147,1.000068
2011-09-26T15:26:06.304765,4150,0.000533,-0.004111,0.020752,-0.033712,0.028133,0.999900
2011-09-26T15:26:06.314765,4160,-0.005194,-0.007043,0.018783,-0.033815,0.028120,0.999729
2011-09-26T15:26:06.324765,4170,-0.010920,-0.009976,0.016813,-0.033918,0.028107,0.999558
2011-09-26T15:26:06.334765,4180,-0.016646,-0.012908,0.014844,-0.034022,0.028094,0.999387
2011-09-26T15:26:06.344765,4190,-0.022373,-0.015840,0.012875,-0.034125,0.028080,0.999216
2011-09-26T15:26:06.354765,4200,-0.028099,-0.018772,0.010906,-0.034228,0.028067,0.999045
2011-09-26T15:26:06.364765,4210,-0.033826,-0.021705,0.008936,-0.034331,0.028054,0.998874
2011-09-26T15:26:06.374765,4220,-0.039552,-0.024637,0.006967,-0.034434,0.028041,0.998703
2011-09-26T15:26:06.384765,4230,-0.045278,-0.027569,0.004998,-0.034538,0.028028,0.998532
2011-09-26T15:26:06.394765,4240,-0.051005,-0.030501,0.003028,-0.034641,0.028014,0.998361
2011-09-26T15:26:06.404765,4250,-0.045816,-0.025274,0.000829,-0.034538,0.027955,0.998567
2011-09-26T15:26:06.414765,4260,-0.040583,-0.020013,-0.001371,-0.034435,0.027896,0.998774
2011-09-26T15:26:06.424765,4270,-0.035349,-0.014752,-0.003571,-0.034332,0.027837,0.998982
2011-09-26T15:26:06.434765,4280,-0.030116,-0.009490,-0.005771,-0.034229,0.027778,0.999189
2011-09-26T15:26:06.444765,4290,-0.024882,-0.004229,-0.007971,-0.034126,0.027719,0.999396
2011-09-26T15:26:06.454765,4300,-0.019649,0.001032,-0.010171,-0.034023,0.027660,0.999603
2011-09-26T15:26:06.464765,4310,-0.014416,0.006293,-0.012371,-0.033919,0.027601,0.999811
2011-09-26T15:26:06.474765,4320,-0.009182,0.011554,-0.014571,-0.033816,0.027542,1.000018
2011-09-26T15:26:06.484765,4330,-0.003949,0.016815,-0.016771,-0.033713,0.027483,1.000225
2011-09-26T15:26:06.494765,4340,0.001285,0.022076,-0.018971,-0.033610,0.027424,1.000433
2011-09-26T15:26:06.504765,4350,0.003805,0.019155,-0.016077,-0.033609,0.027419,1.000348
2011-09-26T15:26:06.514765,4360,0.006293,0.016136,-0.013123,-0.033610,0.027415,1.000260
2011-09-26T15:26:06.524765,4370,0.008780,0.013118,-0.010168,-0.033611,0.027411,1.000171
2011-09-26T15:26:06.534765,4380,0.011268,0.010100,-0.007214,-0.033612,0.027407,1.000083
2011-09-26T15:26:06.544765,4390,0.013756,0.007081,-0.004259,-0.033612,0.027402,0.999995
2011-09-26T15:26:06.554765,4400,0.016244,0.004063,-0.001305,-0.033613,0.027398,0.999906
2011-09-26T15:26:06.564765,4410,0.018732,0.001044,0.001650,-0.033614,0.027394,0.999818
2011-09-26T15:26:06.574765,4420,0.021219,-0.001974,0.004605,-0.033615,0.027390,0.999730
2011-09-26T15:26:06.584765,4430,0.023707,-0.004992,0.007559,-0.033615,0.027385,0.999641
2011-09-26T15:26:06.594765,4440,0.026195,-0.008011,0.010514,-0.033616,0.027381,0.999553
2011-09-26T15:26:06.604765,4450,0.028683,-0.011029,0.013468,-0.033617,0.027377,0.999465
2011-09-26T15:26:06.614765,4460,0.025272,-0.008967,0.013993,-0.033680,0.027481,0.999401
2011-09-26T15:26:06.624765,4470,0.021793,-0.006846,0.014489,-0.033744,0.027586,0.999338
2011-09-26T15:26:06.634765,4480,0.018315,-0.004725,0.014986,-0.033807,0.027692,0.999275
2011-09-26T15:26:06.644765,4490,0.014836,-0.002604,0.015482,-0.033871,0.027797,0.999211
2011-09-26T15:26:06.654765,4500,0.011357,-0.000483,0.015979,-0.033934,0.027903,0.999148
2011-09-26T15:26:06.664765,4510,0.007879,0.001638,0.016475,-0.033998,0.028008,0.999085
2011-09-26T15:26:06.674765,4520,0.004400,0.003758,0.016972,-0.034062,0.028114,0.999022
2011-09-26T15:26:06.684765,4530,0.000921,0.005879,0.017468,-0.034125,0.028219,0.998958
2011-09-26T15:26:06.694765,4540,-0.002557,0.008000,0.017965,-0.034189,0.028324,0.998895
2011-09-26T15:26:06.704765,4550,-0.006036,0.010121,0.018461,-0.034253,0.028430,0.998832
2011-09-26T15:26:06.714765,4560,-0.003890,0.004441,0.020301,-0.034241,0.028320,0.998893
2011-09-26T15:26:06.724765,4570,-0.001665,-0.001350,0.022159,-0.034228,0.028207,0.998956
2011-09-26T15:26:06.734765,4580,0.000561,-0.007141,0.024017,-0.034215,0.028095,0.999019
2011-09-26T15:26:06.744765,4590,0.002786,-0.012932,0.025876,-0.034203,0.027982,0.999082
2011-09-26T15:26:06.754765,4600,0.005012,-0.018723,0.027734,-0.034190,0.027869,0.999145
2011-09-26T15:26:06.764765,4610,0.007237,-0.024514,0.029593,-0.034177,0.027757,0.999208
2011-09-26T15:26:06.774765,4620,0.009463,-0.030305,0.031451,-0.034164,0.027644,0.999271
2011-09-26T15:26:06.784765,4630,0.011689,-0.036096,0.033310,-0.034151,0.027531,0.999334
2011-09-26T15:26:06.794765,4640,0.013914,-0.041887,0.035168,-0.034139,0.027419,0.999397
2011-09-26T15:26:06.804765,4650,0.016140,-0.047678,0.037027,-0.034126,0.027306,0.999460
2011-09-26T15:26:06.814765,4660,0.013406,-0.049379,0.036715,-0.032926,0.027513,0.998748
2011-09-26T15:26:06.824765,4670,0.010628,-0.051044,0.036383,-0.031715,0.027722,0.998029
2011-09-26T15:26:06.834765,4680,0.007850,-0.052708,0.036052,-0.030505,0.027932,0.997310
2011-09-26T15:26:06.844765,4690,0.005072,-0.054373,0.035720,-0.029294,0.028142,0.996591
2011-09-26T15:26:06.854765,4700,0.002294,-0.056038,0.035389,-0.028083,0.028351,0.995872
2011-09-26T15:26:06.864765,4710,-0.000484,-0.057703,0.035058,-0.026873,0.028561,0.995153
2011-09-26T15:26:06.874765,4720,-0.003262,-0.059368,0.034726,-0.025662,0.028770,0.994434
2011-09-26T15:26:06.884765,4730,-0.006040,-0.061032,0.034395,-0.024452,0.028980,0.993715
2011-09-26T15:26:06.894765,4740,-0.008818,-0.062697,0.034064,-0.023241,0.029190,0.992996
2011-09-26T15:26:06.904765,4750,-0.011596,-0.064362,0.033732,-0.022031,0.029399,0.992277
2011-09-26T15:26:06.914765,4760,-0.014373,-0.066027,0.033401,-0.020820,0.029609,0.991558
2011-09-26T15:26:06.924765,4770,-0.015066,-0.079468,0.036262,-0.020391,0.029286,0.992038
2011-09-26T15:26:06.934765,4780,-0.015726,-0.093098,0.039174,-0.019974,0.028955,0.992537
2011-09-26T15:26:06.944765,4790,-0.016385,-0.106728,0.042086,-0.019557,0.028624,0.993036
2011-09-26T15:26:06.954765,4800,-0.017045,-0.120357,0.044998,-0.019141,0.028293,0.993536
2011-09-26T15:26:06.964765,4810,-0.017704,-0.133987,0.047910,-0.018724,0.027962,0.994035
2011-09-26T15:26:06.974765,4820,-0.018364,-0.147617,0.050822,-0.018307,0.027631,0.994534
2011-09-26T15:26:06.984765,4830,-0.019023,-0.161247,0.053734,-0.017890,0.027300,0.995033
2011-09-26T15:26:06.994765,4840,-0.019682,-0.174877,0.056646,-0.017474,0.026969,0.995533
2011-09-26T15:26:07.004765,4850,-0.020342,-0.188507,0.059558,-0.017057,0.026638,0.996032
2011-09-26T15:26:07.014765,4860,-0.021001,-0.202137,0.062470,-0.016640,0.026307,0.996531
2011-09-26T15:26:07.024765,4870,-0.018432,-0.196702,0.061307,-0.016684,0.026582,0.997109
2011-09-26T15:26:07.034765,4880,-0.015830,-0.191070,0.060102,-0.016732,0.026863,0.997688
2011-09-26T15:26:07.044765,4890,-0.013228,-0.185439,0.058897,-0.016780,0.027143,0.998267
2011-09-26T15:26:07.054765,4900,-0.010625,-0.179807,0.057692,-0.016829,0.027424,0.998846
2011-09-26T15:26:07.064765,4910,-0.008023,-0.174175,0.056488,-0.016877,0.027705,0.999425
2011-09-26T15:26:07.074765,4920,-0.005421,-0.168543,0.055283,-0.016925,0.027985,1.000003
2011-09-26T15:26:07.084765,4930,-0.002818,-0.162911,0.054078,-0.016974,0.028266,1.000582
2011-09-26T15:26:07.094765,4940,-0.000216,-0.157280,0.052873,-0.017022,0.028547,1.001161
2011-09-26T15:26:07.104765,4950,0.002386,-0.151648,0.051668,-0.017070,0.028827,1.001740
2011-09-26T15:26:07.114765,4960,0.004989,-0.146016,0.050464,-0.017119,0.029108,1.002319
2011-09-26T15:26:07.124765,4970,0.007751,-0.138434,0.042003,-0.017709,0.028884,1.002863
2011-09-26T15:26:07.134765,4980,0.010515,-0.130839,0.033488,-0.018303,0.028656,1.003407
2011-09-26T15:26:07.144765,4990,0.013279,-0.123243,0.024974,-0.018897,0.028428,1.003951
2011-09-26T15:26:07.154765,5000,0.016043,-0.115647,0.016459,-0.019491,0.028200,1.004494
2011-09-26T15:26:07.164765,5010,0.018807,-0.108051,0.007945,-0.020086,0.027972,1.005038
2011-09-26T15:26:07.174765,5020,0.021571,-0.100455,-0.000570,-0.020680,0.027744,1.005582
2011-09-26T15:26:07.184765,5030,0.024335,-0.092860,-0.009084,-0.021274,0.027516,1.006126
2011-09-26T15:26:07.194765,5040,0.027099,-0.085264,-0.017599,-0.021868,0.027288,1.006669
2011-09-26T15:26:07.204765,5050,0.029863,-0.077668,-0.026113,-0.022462,0.027060,1.007213
2011-09-26T15:26:07.214765,5060,0.032627,-0.070072,-0.034628,-0.023057,0.026832,1.007757
2011-09-26T15:26:07.224765,5070,0.035391,-0.062476,-0.043142,-0.023651,0.026604,1.008301
2011-09-26T15:26:07.234765,5080,0.031973,-0.049458,-0.040824,-0.023972,0.026821,1.007626
2011-09-26T15:26:07.244765,5090,0.028322,-0.036234,-0.038096,-0.024283,0.027056,1.006905
2011-09-26T15:26:07.254765,5100,0.024671,-0.023011,-0.035369,-0.024594,0.027290,1.006185
2011-09-26T15:26:07.264765,5110,0.021019,-0.009787,-0.032641,-0.024906,0.027524,1.005464
2011-09-26T15:26:07.274765,5120,0.017368,0.003436,-0.029913,-0.025217,0.027759,1.004743
2011-09-26T15:26:07.284765,5130,0.013717,0.016660,-0.027186,-0.025528,0.027993,1.004023
2011-09-26T15:26:07.294765,5140,0.010066,0.029883,-0.024458,-0.025839,0.028228,1.003302
2011-09-26T15:26:07.304765,5150,0.006414,0.043107,-0.021731,-0.026150,0.028462,1.002581
2011-09-26T15:26:07.314765,5160,0.002763,0.056330,-0.019003,-0.026461,0.028696,1.001861
2011-09-26T15:26:07.324765,5170,-0.000888,0.069554,-0.016275,-0.026772,0.028931,1.001140
2011-09-26T15:26:07.334765,5180,0.001542,0.069767,-0.018812,-0.027181,0.028964,1.000890
2011-09-26T15:26:07.344765,5190,0.004096,0.069717,-0.021456,-0.027592,0.028993,1.000649
2011-09-26T15:26:07.354765,5200,0.006649,0.069666,-0.024099,-0.028003,0.029022,1.000409
2011-09-26T15:26:07.364765,5210,0.009203,0.069616,-0.026743,-0.028414,0.029051,1.000168
2011-09-26T15:26:07.374765,5220,0.011757,0.069566,-0.029386,-0.028825,0.029080,0.999928
2011-09-26T15:26:07.384765,5230,0.014310,0.069516,-0.032030,-0.029236,0.029109,0.999687
2011-09-26T15:26:07.394765,5240,0.016864,0.069466,-0.034673,-0.029647,0.029138,0.999447
2011-09-26T15:26:07.404765,5250,0.019417,0.069415,-0.037317,-0.030058,0.029167,0.999206
2011-09-26T15:26:07.414765,5260,0.021971,0.069365,-0.039960,-0.030468,0.029196,0.998966
2011-09-26T15:26:07.424765,5270,0.024525,0.069315,-0.042603,-0.030879,0.029225,0.998725
2011-09-26T15:26:07.434765,5280,0.019388,0.062265,-0.042010,-0.031024,0.028946,0.998616
2011-09-26T15:26:07.444765,5290,0.014136,0.055110,-0.041368,-0.031165,0.028661,0.998509
2011-09-26T15:26:07.454765,5300,0.008884,0.047956,-0.040726,-0.031306,0.028377,0.998402
2011-09-26T15:26:07.464765,5310,0.003632,0.040801,-0.040084,-0.031447,0.028092,0.998295
2011-09-26T15:26:07.474765,5320,-0.001621,0.033646,-0.039442,-0.031588,0.027808,0.998187
2011-09-26T15:26:07.484765,5330,-0.006873,0.026491,-0.038799,-0.031729,0.027524,0.998080
2011-09-26T15:26:07.494765,5340,-0.012125,0.019336,-0.038157,-0.031870,0.027239,0.997973
2011-09-26T15:26:07.504765,5350,-0.017377,0.012182,-0.037515,-0.032011,0.026955,0.997866
2011-09-26T15:26:07.514765,5360,-0.022629,0.005027,-0.036873,-0.032152,0.026671,0.997759
2011-09-26T15:26:07.524765,5370,-0.027881,-0.002128,-0.036231,-0.032293,0.026386,0.997652
2011-09-26T15:26:07.534765,5380,-0.033133,-0.009283,-0.035589,-0.032433,0.026102,0.997544
2011-09-26T15:26:07.544765,5390,-0.027178,-0.008899,-0.026257,-0.032661,0.026137,0.997769
2011-09-26T15:26:07.554765,5400,-0.021065,-0.008408,-0.016803,-0.032890,0.026177,0.997999
2011-09-26T15:26:07.564765,5410,-0.014951,-0.007918,-0.007348,-0.033119,0.026216,0.998229
2011-09-26T15:26:07.574765,5420,-0.008838,-0.007427,0.002106,-0.033347,0.026256,0.998459
2011-09-26T15:26:07.584765,5430,-0.002724,-0.006936,0.011561,-0.033576,0.026295,0.998688
2011-09-26T15:26:07.594765,5440,0.003389,-0.006446,0.021015,-0.033805,0.026335,0.998918
2011-09-26T15:26:07.604765,5450,0.009503,-0.005955,0.030470,-0.034034,0.026374,0.999148
2011-09-26T15:26:07.614765,5460,0.015616,-0.005465,0.039924,-0.034263,0.026414,0.999378
2011-09-26T15:26:07.624765,5470,0.021730,-0.004974,0.049379,-0.034491,0.026454,0.999607
2011-09-26T15:26:07.634765,5480,0.027843,-0.004484,0.058833,-0.034720,0.026493,0.999837
2011-09-26T15:26:07.644765,5490,0.025339,-0.004932,0.048367,-0.034755,0.026533,0.999865
2011-09-26T15:26:07.654765,5500,0.022549,-0.005412,0.037239,-0.034783,0.026572,0.999886
2011-09-26T15:26:07.664765,5510,0.019759,-0.005892,0.026112,-0.034812,0.026612,0.999907
2011-09-26T15:26:07.674765,5520,0.016968,-0.006372,0.014985,-0.034840,0.026651,0.999928
2011-09-26T15:26:07.684765,5530,0.014178,-0.006852,0.003858,-0.034868,0.026690,0.999949
2011-09-26T15:26:07.694765,5540,0.011388,-0.007332,-0.007269,-0.034896,0.026730,0.999971
2011-09-26T15:26:07.704765,5550,0.008598,-0.007812,-0.018397,-0.034925,0.026769,0.999992
2011-09-26T15:26:07.714765,5560,0.005808,-0.008292,-0.029524,-0.034953,0.026809,1.000013
2011-09-26T15:26:07.724765,5570,0.003018,-0.008772,-0.040651,-0.034981,0.026848,1.000034
2011-09-26T15:26:07.734765,5580,0.000227,-0.009251,-0.051778,-0.035010,0.026888,1.000055
2011-09-26T15:26:07.744765,5590,-0.002563,-0.009731,-0.062905,-0.035038,0.026927,1.000076
2011-09-26T15:26:07.754765,5600,0.000462,-0.004243,-0.056552,-0.035291,0.027092,0.999856
2011-09-26T15:26:07.764765,5610,0.003616,0.001376,-0.049813,-0.035549,0.027260,0.999630
2011-09-26T15:26:07.774765,5620,0.006769,0.006996,-0.043074,-0.035806,0.027427,0.999404
2011-09-26T15:26:07.784765,5630,0.009923,0.012616,-0.036335,-0.036064,0.027595,0.999178
2011-09-26T15:26:07.794765,5640,0.013076,0.018236,-0.029596,-0.036322,0.027762,0.998952
2011-09-26T15:26:07.804765,5650,0.016230,0.023856,-0.022857,-0.036580,0.027930,0.998726
2011-09-26T15:26:07.814765,5660,0.019384,0.029475,-0.016118,-0.036838,0.028097,0.998500
2011-09-26T15:26:07.824765,5670,0.022537,0.035095,-0.009378,-0.037096,0.028265,0.998274
2011-09-26T15:26:07.834765,5680,0.025691,0.040715,-0.002639,-0.037353,0.028432,0.998048
2011-09-26T15:26:07.844765,5690,0.028844,0.046335,0.004100,-0.037611,0.028600,0.997823
2011-09-26T15:26:07.854765,5700,0.024193,0.041291,0.003863,-0.037595,0.028489,0.997986
2011-09-26T15:26:07.864765,5710,0.019384,0.036031,0.003484,-0.037573,0.028374,0.998157
2011-09-26T15:26:07.874765,5720,0.014575,0.030771,0.003106,-0.037551,0.028258,0.998329
2011-09-26T15:26:07.884765,5730,0.009766,0.025511,0.002728,-0.037529,0.028142,0.998500
2011-09-26T15:26:07.894765,5740,0.004957,0.020252,0.002350,-0.037507,0.028026,0.998671
2011-09-26T15:26:07.904765,5750,0.000148,0.014992,0.001971,-0.037485,0.027910,0.998843
2011-09-26T15:26:07.914765,5760,-0.004661,0.009732,0.001593,-0.037463,0.027794,0.999014
2011-09-26T15:26:07.924765,5770,-0.009470,0.004472,0.001215,-0.037441,0.027679,0.999185
2011-09-26T15:26:07.934765,5780,-0.014279,-0.000788,0.000837,-0.037419,0.027563,0.999356
2011-09-26T15:26:07.944765,5790,-0.019088,-0.006047,0.000458,-0.037397,0.027447,0.999528
2011-09-26T15:26:07.954765,5800,-0.017583,-0.003205,0.001142,-0.037595,0.027474,0.999501
2011-09-26T15:26:07.964765,5810,-0.015993,-0.000254,0.001840,-0.037796,0.027503,0.999471
2011-09-26T15:26:07.974765,5820,-0.014403,0.002697,0.002538,-0.037997,0.027532,0.999441
2011-09-26T15:26:07.984765,5830,-0.012813,0.005648,0.003236,-0.038199,0.027561,0.999411
2011-09-26T15:26:07.994765,5840,-0.011223,0.008599,0.003934,-0.038400,0.027590,0.999381
2011-09-26T15:26:08.004765,5850,-0.009633,0.011550,0.004632,-0.038601,0.027618,0.999352
2011-09-26T15:26:08.014765,5860,-0.008043,0.014500,0.005329,-0.038802,0.027647,0.999322
2011-09-26T15:26:08.024765,5870,-0.006453,0.017451,0.006027,-0.039003,0.027676,0.999292
2011-09-26T15:26:08.034765,5880,-0.004863,0.020402,0.006725,-0.039204,0.027705,0.999262
2011-09-26T15:26:08.044765,5890,-0.003273,0.023353,0.007423,-0.039405,0.027734,0.999232
2011-09-26T15:26:08.054765,5900,-0.002369,0.024030,0.010316,-0.039455,0.027594,0.999236
2011-09-26T15:26:08.064765,5910,-0.001480,0.024658,0.013256,-0.039501,0.027451,0.999240
2011-09-26T15:26:08.074765,5920,-0.000591,0.025286,0.016196,-0.039547,0.027307,0.999245
2011-09-26T15:26:08.084765,5930,0.000298,0.025914,0.019135,-0.039594,0.027164,0.999249
2011-09-26T15:26:08.094765,5940,0.001187,0.026541,0.022075,-0.039640,0.027020,0.999253
2011-09-26T15:26:08.104765,5950,0.002076,0.027169,0.025015,-0.039686,0.026877,0.999257
2011-09-26T15:26:08.114765,5960,0.002965,0.027797,0.027955,-0.039732,0.026733,0.999262
2011-09-26T15:26:08.124765,5970,0.003854,0.028425,0.030894,-0.039779,0.026590,0.999266
2011-09-26T15:26:08.134765,5980,0.004743,0.029053,0.033834,-0.039825,0.026446,0.999270
2011-09-26T15:26:08.144765,5990,0.005632,0.029681,0.036774,-0.039871,0.026303,0.999274
2011-09-26T15:26:08.154765,6000,0.006521,0.030309,0.039714,-0.039918,0.026159,0.999279
2011-09-26T15:26:08.164765,6010,0.007279,0.029097,0.037677,-0.040109,0.026470,0.999256
2011-09-26T15:26:08.174765,6020,0.008031,0.027810,0.035438,-0.040306,0.026800,0.999232
2011-09-26T15:26:08.184765,6030,0.008784,0.026523,0.033199,-0.040504,0.027130,0.999208
2011-09-26T15:26:08.194765,6040,0.009537,0.025237,0.030959,-0.040701,0.027460,0.999184
2011-09-26T15:26:08.204765,6050,0.010289,0.023950,0.028720,-0.040898,0.027789,0.999159
2011-09-26T15:26:08.214765,6060,0.011042,0.022663,0.026481,-0.041096,0.028119,0.999135
2011-09-26T15:26:08.224765,6070,0.011795,0.021376,0.024242,-0.041293,0.028449,0.999111
2011-09-26T15:26:08.234765,6080,0.012547,0.020089,0.022003,-0.041490,0.028778,0.999087
2011-09-26T15:26:08.244765,6090,0.013300,0.018803,0.019764,-0.041688,0.029108,0.999063
2011-09-26T15:26:08.254765,6100,0.014053,0.017516,0.017525,-0.041885,0.029438,0.999039
2011-09-26T15:26:08.264765,6110,0.011975,0.013812,0.018972,-0.041814,0.029244,0.999145
2011-09-26T15:26:08.274765,6120,0.009837,0.010056,0.020498,-0.041738,0.029040,0.999253
2011-09-26T15:26:08.284765,6130,0.007698,0.006300,0.022025,-0.041661,0.028835,0.999361
2011-09-26T15:26:08.294765,6140,0.005559,0.002544,0.023552,-0.041585,0.028631,0.999469
2011-09-26T15:26:08.304765,6150,0.003420,-0.001212,0.025078,-0.041508,0.028426,0.999577
2011-09-26T15:26:08.314765,6160,0.001281,-0.004968,0.026605,-0.041432,0.028222,0.999686
2011-09-26T15:26:08.324765,6170,-0.000857,-0.008724,0.028132,-0.041355,0.028017,0.999794
2011-09-26T15:26:08.334765,6180,-0.002996,-0.012480,0.029658,-0.041279,0.027813,0.999902
2011-09-26T15:26:08.344765,6190,-0.005135,-0.016236,0.031185,-0.041202,0.027608,1.000010
2011-09-26T15:26:08.354765,6200,-0.007274,-0.019992,0.032711,-0.041125,0.027404,1.000119
2011-09-26T15:26:08.364765,6210,-0.009479,-0.020183,0.027433,-0.041269,0.027438,0.999996
2011-09-26T15:26:08.374765,6220,-0.011686,-0.020312,0.022038,-0.041417,0.027477,0.999870
2011-09-26T15:26:08.384765,6230,-0.013892,-0.020442,0.016644,-0.041565,0.027516,0.999744
2011-09-26T15:26:08.394765,6240,-0.016098,-0.020571,0.011249,-0.041713,0.027555,0.999618
2011-09-26T15:26:08.404765,6250,-0.018305,-0.020701,0.005854,-0.041861,0.027594,0.999492
2011-09-26T15:26:08.414765,6260,-0.020511,-0.020830,0.000460,-0.042009,0.027633,0.999365
2011-09-26T15:26:08.424765,6270,-0.022718,-0.020960,-0.004935,-0.042157,0.027671,0.999239
2011-09-26T15:26:08.434765,6280,-0.024924,-0.021089,-0.010330,-0.042305,0.027710,0.999113
2011-09-26T15:26:08.444765,6290,-0.027131,-0.021219,-0.015725,-0.042452,0.027749,0.998987
2011-09-26T15:26:08.454765,6300,-0.029337,-0.021348,-0.021119,-0.042600,0.027788,0.998861
2011-09-26T15:26:08.464765,6310,-0.031544,-0.021478,-0.026514,-0.042748,0.027827,0.998735
2011-09-26T15:26:08.474765,6320,-0.026829,-0.018224,-0.026844,-0.042882,0.027813,0.998870
2011-09-26T15:26:08.484765,6330,-0.021983,-0.014905,-0.027076,-0.043016,0.027797,0.999010
2011-09-26T15:26:08.494765,6340,-0.017136,-0.011586,-0.027309,-0.043150,0.027782,0.999150
2011-09-26T15:26:08.504765,6350,-0.012289,-0.008267,-0.027542,-0.043284,0.027767,0.999290
2011-09-26T15:26:08.514765,6360,-0.007443,-0.004949,-0.027774,-0.043418,0.027752,0.999431
2011-09-26T15:26:08.524765,6370,-0.002596,-0.001630,-0.028007,-0.043552,0.027737,0.999571
2011-09-26T15:26:08.534765,6380,0.002251,0.001689,-0.028240,-0.043686,0.027722,0.999711
2011-09-26T15:26:08.544765,6390,0.007097,0.005008,-0.028472,-0.043820,0.027706,0.999851
2011-09-26T15:26:08.554765,6400,0.011944,0.008326,-0.028705,-0.043953,0.027691,0.999991
2011-09-26T15:26:08.564765,6410,0.016791,0.011645,-0.028937,-0.044087,0.027676,1.000131
2011-09-26T15:26:08.574765,6420,0.014188,0.004562,-0.026088,-0.043941,0.027648,0.999992
2011-09-26T15:26:08.584765,6430,0.011435,-0.002731,-0.023177,-0.043790,0.027620,0.999846
2011-09-26T15:26:08.594765,6440,0.008682,-0.010025,-0.020266,-0.043639,0.027593,0.999701
2011-09-26T15:26:08.604765,6450,0.005929,-0.017318,-0.017354,-0.043487,0.027565,0.999555
2011-09-26T15:26:08.614765,6460,0.003176,-0.024612,-0.014443,-0.043336,0.027537,0.999410
2011-09-26T15:26:08.624765,6470,0.000423,-0.031905,-0.011531,-0.043184,0.027509,0.999265
2011-09-26T15:26:08.634765,6480,-0.002330,-0.039199,-0.008620,-0.043033,0.027481,0.999119
2011-09-26T15:26:08.644765,6490,-0.005084,-0.046492,-0.005709,-0.042881,0.027453,0.998974
2011-09-26T15:26:08.654765,6500,-0.007837,-0.053786,-0.002797,-0.042730,0.027425,0.998828
2011-09-26T15:26:08.664765,6510,-0.010590,-0.061079,0.000114,-0.042578,0.027397,0.998683
2011-09-26T15:26:08.674765,6520,-0.013343,-0.068372,0.003025,-0.042427,0.027369,0.998537
2011-09-26T15:26:08.684765,6530,-0.006316,-0.065560,0.001668,-0.041352,0.027463,0.998624
2011-09-26T15:26:08.694765,6540,0.001115,-0.062332,0.000134,-0.040240,0.027562,0.998719
2011-09-26T15:26:08.704765,6550,0.008546,-0.059103,-0.001400,-0.039128,0.027661,0.998815
2011-09-26T15:26:08.714765,6560,0.015976,-0.055874,-0.002934,-0.038015,0.027761,0.998911
2011-09-26T15:26:08.724765,6570,0.023407,-0.052645,-0.004468,-0.036903,0.027860,0.999006
2011-09-26T15:26:08.734765,6580,0.030838,-0.049416,-0.006002,-0.035791,0.027959,0.999102
2011-09-26T15:26:08.744765,6590,0.038268,-0.046188,-0.007536,-0.034678,0.028058,0.999198
2011-09-26T15:26:08.754765,6600,0.045699,-0.042959,-0.009070,-0.033566,0.028157,0.999294
2011-09-26T15:26:08.764765,6610,0.053129,-0.039730,-0.010604,-0.032454,0.028256,0.999389
2011-09-26T15:26:08.774765,6620,0.060560,-0.036501,-0.012138,-0.031341,0.028356,0.999485
2011-09-26T15:26:08.784765,6630,0.056314,-0.036008,-0.009358,-0.031215,0.028285,0.999599
2011-09-26T15:26:08.794765,6640,0.051864,-0.035563,-0.006502,-0.031107,0.028211,0.999712
2011-09-26T15:26:08.804765,6650,0.047414,-0.035117,-0.003646,-0.030998,0.028137,0.999826
2011-09-26T15:26:08.814765,6660,0.042965,-0.034672,-0.000791,-0.030890,0.028063,0.999940
2011-09-26T15:26:08.824765,6670,0.038515,-0.034227,0.002065,-0.030781,0.027990,1.000054
2011-09-26T15:26:08.834765,6680,0.034065,-0.033781,0.004921,-0.030672,0.027916,1.000167
2011-09-26T15:26:08.844765,6690,0.029616,-0.033336,0.007776,-0.030564,0.027842,1.000281
2011-09-26T15:26:08.854765,6700,0.025166,-0.032891,0.010632,-0.030455,0.027768,1.000395
2011-09-26T15:26:08.864765,6710,0.020716,-0.032445,0.013488,-0.030347,0.027695,1.000509
2011-09-26T15:26:08.874765,6720,0.016267,-0.032000,0.016343,-0.030238,0.027621,1.000622
2011-09-26T15:26:08.884765,6730,0.014145,-0.022652,0.015879,-0.030802,0.027717,1.000331
2011-09-26T15:26:08.894765,6740,0.012064,-0.013145,0.015355,-0.031379,0.027816,1.000032
2011-09-26T15:26:08.904765,6750,0.009984,-0.003637,0.014831,-0.031955,0.027916,0.999734
2011-09-26T15:26:08.914765,6760,0.007904,0.005870,0.014307,-0.032532,0.028015,0.999435
2011-09-26T15:26:08.924765,6770,0.005823,0.015378,0.013783,-0.033108,0.028115,0.999136
2011-09-26T15:26:08.934765,6780,0.003743,0.024885,0.013259,-0.033685,0.028214,0.998838
2011-09-26T15:26:08.944765,6790,0.001663,0.034393,0.012735,-0.034261,0.028313,0.998539
2011-09-26T15:26:08.954765,6800,-0.000418,0.043900,0.012211,-0.034838,0.028413,0.998240
2011-09-26T15:26:08.964765,6810,-0.002498,0.053408,0.011687,-0.035414,0.028512,0.997942
2011-09-26T15:26:08.974765,6820,-0.004578,0.062915,0.011163,-0.035991,0.028611,0.997643
2011-09-26T15:26:08.984765,6830,-0.006659,0.072423,0.010639,-0.036567,0.028711,0.997344
2011-09-26T15:26:08.994765,6840,-0.004717,0.059230,0.009913,-0.036415,0.028577,0.997431
2011-09-26T15:26:09.004765,6850,-0.002691,0.045567,0.009182,-0.036247,0.028438,0.997526
2011-09-26T15:26:09.014765,6860,-0.000666,0.031903,0.008451,-0.036079,0.028300,0.997620
2011-09-26T15:26:09.024765,6870,0.001359,0.018240,0.007720,-0.035912,0.028162,0.997715
2011-09-26T15:26:09.034765,6880,0.003385,0.004577,0.006989,-0.035744,0.028023,0.997810
2011-09-26T15:26:09.044765,6890,0.005410,-0.009087,0.006258,-0.035576,0.027885,0.997905
2011-09-26T15:26:09.054765,6900,0.007435,-0.022750,0.005527,-0.035409,0.027746,0.997999
2011-09-26T15:26:09.064765,6910,0.009461,-0.036413,0.004796,-0.035241,0.027608,0.998094
2011-09-26T15:26:09.074765,6920,0.011486,-0.050077,0.004065,-0.035073,0.027469,0.998189
2011-09-26T15:26:09.084765,6930,0.013511,-0.063740,0.003334,-0.034906,0.027331,0.998284
2011-09-26T15:26:09.094765,6940,0.015286,-0.056740,0.005563,-0.034493,0.027342,0.998501
2011-09-26T15:26:09.104765,6950,0.017056,-0.049318,0.007852,-0.034076,0.027357,0.998722
2011-09-26T15:26:09.114765,6960,0.018826,-0.041897,0.010142,-0.033659,0.027372,0.998942
2011-09-26T15:26:09.124765,6970,0.020596,-0.034475,0.012432,-0.033241,0.027387,0.999162
2011-09-26T15:26:09.134765,6980,0.022366,-0.027053,0.014721,-0.032824,0.027402,0.999382
2011-09-26T15:26:09.144765,6990,0.024136,-0.019631,0.017011,-0.032406,0.027416,0.999603
2011-09-26T15:26:09.154765,7000,0.025906,-0.012209,0.019301,-0.031989,0.027431,0.999823
2011-09-26T15:26:09.164765,7010,0.027676,-0.004787,0.021590,-0.031571,0.027446,1.000043
2011-09-26T15:26:09.174765,7020,0.029445,0.002634,0.023880,-0.031154,0.027461,1.000263
2011-09-26T15:26:09.184765,7030,0.031215,0.010056,0.026170,-0.030737,0.027476,1.000484
2011-09-26T15:26:09.194765,7040,0.027269,0.010044,0.024117,-0.030907,0.027460,1.000453
2011-09-26T15:26:09.204765,7050,0.023068,0.009700,0.021871,-0.031104,0.027442,1.000411
2011-09-26T15:26:09.214765,7060,0.018867,0.009356,0.019625,-0.031301,0.027424,1.000369
2011-09-26T15:26:09.224765,7070,0.014666,0.009012,0.017379,-0.031498,0.027407,1.000327
2011-09-26T15:26:09.234765,7080,0.010465,0.008668,0.015133,-0.031695,0.027389,1.000285
2011-09-26T15:26:09.244765,7090,0.006264,0.008324,0.012887,-0.031892,0.027371,1.000242
2011-09-26T15:26:09.254765,7100,0.002063,0.007980,0.010641,-0.032089,0.027354,1.000200
2011-09-26T15:26:09.264765,7110,-0.002138,0.007637,0.008396,-0.032286,0.027336,1.000158
2011-09-26T15:26:09.274765,7120,-0.006339,0.007293,0.006150,-0.032483,0.027319,1.000116
2011-09-26T15:26:09.284765,7130,-0.010540,0.006949,0.003904,-0.032680,0.027301,1.000074
2011-09-26T15:26:09.294765,7140,-0.014742,0.006605,0.001658,-0.032877,0.027283,1.000032
2011-09-26T15:26:09.304765,7150,-0.014002,0.007153,0.002521,-0.033293,0.027442,0.999828
2011-09-26T15:26:09.314765,7160,-0.013161,0.007720,0.003449,-0.033713,0.027604,0.999620
2011-09-26T15:26:09.324765,7170,-0.012320,0.008287,0.004377,-0.034134,0.027766,0.999413
2011-09-26T15:26:09.334765,7180,-0.011478,0.008854,0.005304,-0.034554,0.027928,0.999205
2011-09-26T15:26:09.344765,7190,-0.010637,0.009421,0.006232,-0.034974,0.028090,0.998998
2011-09-26T15:26:09.354765,7200,-0.009796,0.009988,0.007160,-0.035394,0.028252,0.998790
2011-09-26T15:26:09.364765,7210,-0.008954,0.010555,0.008088,-0.035814,0.028414,0.998583
2011-09-26T15:26:09.374765,7220,-0.008113,0.011122,0.009015,-0.036235,0.028576,0.998375
2011-09-26T15:26:09.384765,7230,-0.007271,0.011689,0.009943,-0.036655,0.028738,0.998167
2011-09-26T15:26:09.394765,7240,-0.006430,0.012256,0.010871,-0.037075,0.028900,0.997960
2011-09-26T15:26:09.404765,7250,-0.004938,0.009266,0.009671,-0.036542,0.028739,0.998183
2011-09-26T15:26:09.414765,7260,-0.003429,0.006186,0.008418,-0.035984,0.028569,0.998417
2011-09-26T15:26:09.424765,7270,-0.001921,0.003106,0.007164,-0.035427,0.028400,0.998651
2011-09-26T15:26:09.434765,7280,-0.000412,0.000027,0.005911,-0.034869,0.028231,0.998885
2011-09-26T15:26:09.444765,7290,0.001097,-0.003053,0.004657,-0.034311,0.028061,0.999119
2011-09-26T15:26:09.454765,7300,0.002605,-0.006133,0.003404,-0.033754,0.027892,0.999353
2011-09-26T15:26:09.464765,7310,0.004114,-0.009213,0.002151,-0.033196,0.027723,0.999587
2011-09-26T15:26:09.474765,7320,0.005623,-0.012293,0.000897,-0.032639,0.027553,0.999821
2011-09-26T15:26:09.484765,7330,0.007131,-0.015373,-0.000356,-0.032081,0.027384,1.000055
2011-09-26T15:26:09.494765,7340,0.008640,-0.018452,-0.001610,-0.031524,0.027214,1.000289
2011-09-26T15:26:09.504765,7350,0.010149,-0.021532,-0.002863,-0.030966,0.027045,1.000523
2011-09-26T15:26:09.514765,7360,0.008221,-0.018983,-0.002515,-0.031136,0.027139,1.000401
2011-09-26T15:26:09.524765,7370,0.006218,-0.016311,-0.002133,-0.031321,0.027238,1.000272
2011-09-26T15:26:09.534765,7380,0.004215,-0.013638,-0.001750,-0.031506,0.027337,1.000142
2011-09-26T15:26:09.544765,7390,0.002212,-0.010966,-0.001367,-0.031691,0.027436,1.000013
2011-09-26T15:26:09.554765,7400,0.000209,-0.008294,-0.000985,-0.031877,0.027536,0.999884
2011-09-26T15:26:09.564765,7410,-0.001794,-0.005622,-0.000602,-0.032062,0.027635,0.999754
2011-09-26T15:26:09.574765,7420,-0.003797,-0.002950,-0.000219,-0.032247,0.027734,0.999625
2011-09-26T15:26:09.584765,7430,-0.005799,-0.000278,0.000164,-0.032432,0.027834,0.999495
2011-09-26T15:26:09.594765,7440,-0.007802,0.002395,0.000546,-0.032618,0.027933,0.999366
2011-09-26T15:26:09.604765,7450,-0.009805,0.005067,0.000929,-0.032803,0.028032,0.999236
2011-09-26T15:26:09.614765,7460,-0.011755,0.006291,0.002759,-0.033021,0.028021,0.999302
2011-09-26T15:26:09.624765,7470,-0.013702,0.007475,0.004629,-0.033239,0.028007,0.999373
2011-09-26T15:26:09.634765,7480,-0.015650,0.008658,0.006499,-0.033458,0.027992,0.999443
2011-09-26T15:26:09.644765,7490,-0.017598,0.009842,0.008369,-0.033677,0.027978,0.999514
2011-09-26T15:26:09.654765,7500,-0.019546,0.011026,0.010239,-0.033895,0.027964,0.999585
2011-09-26T15:26:09.664765,7510,-0.021494,0.012209,0.012109,-0.034114,0.027949,0.999656
2011-09-26T15:26:09.674765,7520,-0.023442,0.013393,0.013980,-0.034333,0.027935,0.999727
2011-09-26T15:26:09.684765,7530,-0.025390,0.014577,0.015850,-0.034551,0.027921,0.999798
2011-09-26T15:26:09.694765,7540,-0.027338,0.015760,0.017720,-0.034770,0.027906,0.999869
2011-09-26T15:26:09.704765,7550,-0.029286,0.016944,0.019590,-0.034989,0.027892,0.999939
2011-09-26T15:26:09.714765,7560,-0.027888,0.012222,0.015026,-0.034923,0.027958,0.999722
2011-09-26T15:26:09.724765,7570,-0.026388,0.007317,0.010263,-0.034848,0.028027,0.999496
2011-09-26T15:26:09.734765,7580,-0.024887,0.002413,0.005500,-0.034774,0.028096,0.999270
2011-09-26T15:26:09.744765,7590,-0.023386,-0.002492,0.000737,-0.034700,0.028164,0.999044
2011-09-26T15:26:09.754765,7600,-0.021885,-0.007396,-0.004026,-0.034625,0.028233,0.998817
2011-09-26T15:26:09.764765,7610,-0.020385,-0.012301,-0.008789,-0.034551,0.028302,0.998591
2011-09-26T15:26:09.774765,7620,-0.018884,-0.017205,-0.013552,-0.034477,0.028370,0.998365
2011-09-26T15:26:09.784765,7630,-0.017383,-0.022109,-0.018315,-0.034402,0.028439,0.998139
2011-09-26T15:26:09.794765,7640,-0.015882,-0.027014,-0.023077,-0.034328,0.028508,0.997913
2011-09-26T15:26:09.804765,7650,-0.014381,-0.031918,-0.027840,-0.034253,0.028576,0.997687
2011-09-26T15:26:09.814765,7660,-0.010713,-0.025366,-0.024384,-0.033997,0.028477,0.997955
2011-09-26T15:26:09.824765,7670,-0.006995,-0.018548,-0.020736,-0.033736,0.028373,0.998236
2011-09-26T15:26:09.834765,7680,-0.003277,-0.011730,-0.017088,-0.033475,0.028269,0.998516
2011-09-26T15:26:09.844765,7690,0.000442,-0.004912,-0.013440,-0.033214,0.028165,0.998797
2011-09-26T15:26:09.854765,7700,0.004160,0.001906,-0.009792,-0.032953,0.028062,0.999077
2011-09-26T15:26:09.864765,7710,0.007878,0.008724,-0.006144,-0.032692,0.027958,0.999357
2011-09-26T15:26:09.874765,7720,0.011597,0.015542,-0.002497,-0.032431,0.027854,0.999638
2011-09-26T15:26:09.884765,7730,0.015315,0.022360,0.001151,-0.032171,0.027750,0.999918
2011-09-26T15:26:09.894765,7740,0.019033,0.029179,0.004799,-0.031910,0.027646,1.000199
2011-09-26T15:26:09.904765,7750,0.022752,0.035997,0.008447,-0.031649,0.027543,1.000479
2011-09-26T15:26:09.914765,7760,0.026470,0.042815,0.012095,-0.031388,0.027439,1.000759
2011-09-26T15:26:09.924765,7770,0.024586,0.037759,0.006697,-0.031687,0.027473,1.000473
2011-09-26T15:26:09.934765,7780,0.022554,0.032389,0.001060,-0.032002,0.027511,1.000171
2011-09-26T15:26:09.944765,7790,0.020522,0.027019,-0.004578,-0.032316,0.027548,0.999869
2011-09-26T15:26:09.954765,7800,0.018489,0.021649,-0.010215,-0.032631,0.027586,0.999567
2011-09-26T15:26:09.964765,7810,0.016457,0.016279,-0.015853,-0.032945,0.027624,0.999265
2011-09-26T15:26:09.974765,7820,0.014425,0.010909,-0.021490,-0.033259,0.027661,0.998963
2011-09-26T15:26:09.984765,7830,0.012392,0.005538,-0.027128,-0.033574,0.027699,0.998662
2011-09-26T15:26:09.994765,7840,0.010360,0.000168,-0.032765,-0.033888,0.027737,0.998360
2011-09-26T15:26:10.004765,7850,0.008328,-0.005202,-0.038402,-0.034203,0.027774,0.998058
2011-09-26T15:26:10.014765,7860,0.006295,-0.010572,-0.044040,-0.034517,0.027812,0.997756
2011-09-26T15:26:10.024765,7870,0.008533,-0.008650,-0.035935,-0.034526,0.027868,0.997921
2011-09-26T15:26:10.034765,7880,0.010895,-0.006516,-0.027431,-0.034526,0.027924,0.998099
2011-09-26T15:26:10.044765,7890,0.013256,-0.004383,-0.018927,-0.034526,0.027981,0.998277
2011-09-26T15:26:10.054765,7900,0.015618,-0.002249,-0.010423,-0.034525,0.028037,0.998455
2011-09-26T15:26:10.064765,7910,0.017980,-0.000115,-0.001919,-0.034525,0.028093,0.998633
2011-09-26T15:26:10.074765,7920,0.020342,0.002018,0.006585,-0.034525,0.028150,0.998811
2011-09-26T15:26:10.084765,7930,0.022703,0.004152,0.015089,-0.034525,0.028206,0.998989
2011-09-26T15:26:10.094765,7940,0.025065,0.006286,0.023593,-0.034525,0.028262,0.999167
2011-09-26T15:26:10.104765,7950,0.027427,0.008419,0.032097,-0.034525,0.028319,0.999345
2011-09-26T15:26:10.114765,7960,0.029788,0.010553,0.040600,-0.034525,0.028375,0.999523
2011-09-26T15:26:10.124765,7970,0.026064,-0.013262,0.038724,-0.030768,0.028299,0.999282
2011-09-26T15:26:10.134765,7980,0.022188,-0.037726,0.036587,-0.026917,0.028219,0.999031
2011-09-26T15:26:10.144765,7990,0.018312,-0.062190,0.034451,-0.023067,0.028140,0.998779
2011-09-26T15:26:10.154765,8000,0.014435,-0.086654,0.032314,-0.019216,0.028060,0.998528
2011-09-26T15:26:10.164765,8010,0.010559,-0.111118,0.030178,-0.015365,0.027981,0.998276
2011-09-26T15:26:10.174765,8020,0.006683,-0.135582,0.028041,-0.011514,0.027901,0.998025
2011-09-26T15:26:10.184765,8030,0.002807,-0.160046,0.025905,-0.007664,0.027821,0.997773
2011-09-26T15:26:10.194765,8040,-0.001070,-0.184510,0.023768,-0.003813,0.027742,0.997522
2011-09-26T15:26:10.204765,8050,-0.004946,-0.208974,0.021632,0.000038,0.027662,0.997270
2011-09-26T15:26:10.214765,8060,-0.008822,-0.233438,0.019496,0.003889,0.027583,0.997019
2011-09-26T15:26:10.224765,8070,-0.012699,-0.257902,0.017359,0.007739,0.027503,0.996767
2011-09-26T15:26:10.234765,8080,-0.012537,-0.259734,0.018978,0.009701,0.027550,0.997229
2011-09-26T15:26:10.244765,8090,-0.012256,-0.260893,0.020708,0.011606,0.027601,0.997712
2011-09-26T15:26:10.254765,8100,-0.011974,-0.262053,0.022438,0.013510,0.027652,0.998195
2011-09-26T15:26:10.264765,8110,-0.011692,-0.263212,0.024169,0.015415,0.027703,0.998677
2011-09-26T15:26:10.274765,8120,-0.011411,-0.264371,0.025899,0.017320,0.027754,0.999160
2011-09-26T15:26:10.284765,8130,-0.011129,-0.265530,0.027629,0.019225,0.027805,0.999643
2011-09-26T15:26:10.294765,8140,-0.010848,-0.266689,0.029360,0.021130,0.027856,1.000126
2011-09-26T15:26:10.304765,8150,-0.010566,-0.267848,0.031090,0.023035,0.027907,1.000608
2011-09-26T15:26:10.314765,8160,-0.010284,-0.269007,0.032820,0.024940,0.027958,1.001091
2011-09-26T15:26:10.324765,8170,-0.010003,-0.270166,0.034551,0.026845,0.028009,1.001574
2011-09-26T15:26:10.334765,8180,-0.008927,-0.259135,0.026591,0.027061,0.027949,1.001847
2011-09-26T15:26:10.344765,8190,-0.007824,-0.247696,0.018307,0.027221,0.027885,1.002114
2011-09-26T15:26:10.354765,8200,-0.006722,-0.236258,0.010024,0.027380,0.027822,1.002380
2011-09-26T15:26:10.364765,8210,-0.005619,-0.224819,0.001740,0.027540,0.027758,1.002646
2011-09-26T15:26:10.374765,8220,-0.004516,-0.213381,-0.006544,0.027700,0.027694,1.002912
2011-09-26T15:26:10.384765,8230,-0.003414,-0.201942,-0.014827,0.027860,0.027631,1.003178
2011-09-26T15:26:10.394765,8240,-0.002311,-0.190504,-0.023111,0.028019,0.027567,1.003445
2011-09-26T15:26:10.404765,8250,-0.001209,-0.179065,-0.031395,0.028179,0.027503,1.003711
2011-09-26T15:26:10.414765,8260,-0.000106,-0.167627,-0.039678,0.028339,0.027440,1.003977
2011-09-26T15:26:10.424765,8270,0.000997,-0.156188,-0.047962,0.028498,0.027376,1.004243
2011-09-26T15:26:10.434765,8280,0.002348,-0.134934,-0.041944,0.028260,0.027495,1.004013
2011-09-26T15:26:10.444765,8290,0.003706,-0.113383,-0.035495,0.028010,0.027619,1.003768
2011-09-26T15:26:10.454765,8300,0.005065,-0.091833,-0.029046,0.027760,0.027744,1.003523
2011-09-26T15:26:10.464765,8310,0.006424,-0.070282,-0.022596,0.027509,0.027868,1.003278
2011-09-26T15:26:10.474765,8320,0.007783,-0.048731,-0.016147,0.027259,0.027993,1.003033
2011-09-26T15:26:10.484765,8330,0.009141,-0.027181,-0.009698,0.027009,0.028117,1.002788
2011-09-26T15:26:10.494765,8340,0.010500,-0.005630,-0.003249,0.026759,0.028242,1.002543
2011-09-26T15:26:10.504765,8350,0.011859,0.015921,0.003200,0.026509,0.028366,1.002298
2011-09-26T15:26:10.514765,8360,0.013217,0.037471,0.009650,0.026258,0.028491,1.002053
2011-09-26T15:26:10.524765,8370,0.014576,0.059022,0.016099,0.026008,0.028615,1.001808
2011-09-26T15:26:10.534765,8380,0.015935,0.080573,0.022548,0.025758,0.028740,1.001563
2011-09-26T15:26:10.544765,8390,0.016363,0.074900,0.023785,0.025677,0.028608,1.001201
2011-09-26T15:26:10.554765,8400,0.016765,0.068471,0.024878,0.025601,0.028468,1.000837
2011-09-26T15:26:10.564765,8410,0.017166,0.062043,0.025970,0.025524,0.028329,1.000472
2011-09-26T15:26:10.574765,8420,0.017568,0.055614,0.027063,0.025448,0.028190,1.000107
2011-09-26T15:26:10.584765,8430,0.017970,0.049185,0.028155,0.025371,0.028051,0.999743
2011-09-26T15:26:10.594765,8440,0.018372,0.042757,0.029248,0.025295,0.027911,0.999378
2011-09-26T15:26:10.604765,8450,0.018774,0.036328,0.030340,0.025219,0.027772,0.999013
2011-09-26T15:26:10.614765,8460,0.019176,0.029900,0.031433,0.025142,0.027633,0.998649
2011-09-26T15:26:10.624765,8470,0.019578,0.023471,0.032525,0.025066,0.027494,0.998284
2011-09-26T15:26:10.634765,8480,0.019980,0.017042,0.033618,0.024989,0.027354,0.997920
2011-09-26T15:26:10.644765,8490,0.020789,0.012758,0.039599,0.024898,0.027484,0.998128
2011-09-26T15:26:10.654765,8500,0.021618,0.008581,0.045827,0.024805,0.027628,0.998366
2011-09-26T15:26:10.664765,8510,0.022447,0.004405,0.052054,0.024712,0.027772,0.998604
2011-09-26T15:26:10.674765,8520,0.023277,0.000228,0.058281,0.024619,0.027915,0.998841
2011-09-26T15:26:10.684765,8530,0.024106,-0.003949,0.064509,0.024527,0.028059,0.999079
2011-09-26T15:26:10.694765,8540,0.024935,-0.008125,0.070736,0.024434,0.028202,0.999317
2011-09-26T15:26:10.704765,8550,0.025765,-0.012302,0.076964,0.024341,0.028346,0.999554
2011-09-26T15:26:10.714765,8560,0.026594,-0.016478,0.083191,0.024249,0.028489,0.999792
2011-09-26T15:26:10.724765,8570,0.027423,-0.020655,0.089419,0.024156,0.028633,1.000029
2011-09-26T15:26:10.734765,8580,0.028252,-0.024832,0.095646,0.024063,0.028777,1.000267
2011-09-26T15:26:10.744765,8590,0.029082,-0.029008,0.101874,0.023971,0.028920,1.000505
2011-09-26T15:26:10.754765,8600,0.029771,-0.025097,0.096727,0.023944,0.028637,1.000549
2011-09-26T15:26:10.764765,8610,0.030455,-0.020906,0.091189,0.023920,0.028338,1.000587
2011-09-26T15:26:10.774765,8620,0.031139,-0.016715,0.085650,0.023895,0.028040,1.000624
2011-09-26T15:26:10.784765,8630,0.031823,-0.012525,0.080112,0.023871,0.027742,1.000662
2011-09-26T15:26:10.794765,8640,0.032507,-0.008334,0.074574,0.023846,0.027444,1.000700
2011-09-26T15:26:10.804765,8650,0.033191,-0.004143,0.069035,0.023822,0.027145,1.000738
2011-09-26T15:26:10.814765,8660,0.033875,0.000047,0.063497,0.023798,0.026847,1.000775
2011-09-26T15:26:10.824765,8670,0.034559,0.004238,0.057958,0.023773,0.026549,1.000813
2011-09-26T15:26:10.834765,8680,0.035243,0.008429,0.052420,0.023749,0.026250,1.000851
2011-09-26T15:26:10.844765,8690,0.035927,0.012619,0.046881,0.023725,0.025952,1.000888
2011-09-26T15:26:10.854765,8700,0.036691,0.013595,0.045771,0.023646,0.026188,1.000706
2011-09-26T15:26:10.864765,8710,0.037457,0.014482,0.044784,0.023565,0.026438,1.000517
2011-09-26T15:26:10.874765,8720,0.038223,0.015368,0.043797,0.023485,0.026688,1.000328
2011-09-26T15:26:10.884765,8730,0.038990,0.016255,0.042811,0.023405,0.026939,1.000139
2011-09-26T15:26:10.894765,8740,0.039756,0.017142,0.041824,0.023324,0.027189,0.999951
2011-09-26T15:26:10.904765,8750,0.040522,0.018028,0.040837,0.023244,0.027440,0.999762
2011-09-26T15:26:10.914765,8760,0.041288,0.018915,0.039850,0.023164,0.027690,0.999573
2011-09-26T15:26:10.924765,8770,0.042054,0.019801,0.038863,0.023083,0.027940,0.999384
2011-09-26T15:26:10.934765,8780,0.042821,0.020688,0.037876,0.023003,0.028191,0.999196
2011-09-26T15:26:10.944765,8790,0.043587,0.021574,0.036890,0.022923,0.028441,0.999007
2011-09-26T15:26:10.954765,8800,0.041797,0.014329,0.034751,0.023351,0.028449,0.999027
2011-09-26T15:26:10.964765,8810,0.039940,0.006870,0.032582,0.023792,0.028451,0.999052
2011-09-26T15:26:10.974765,8820,0.038083,-0.000589,0.030414,0.024234,0.028452,0.999077
2011-09-26T15:26:10.984765,8830,0.036226,-0.008048,0.028245,0.024675,0.028454,0.999103
2011-09-26T15:26:10.994765,8840,0.034369,-0.015508,0.026076,0.025117,0.028456,0.999128
2011-09-26T15:26:11.004765,8850,0.032512,-0.022967,0.023907,0.025558,0.028457,0.999154
2011-09-26T15:26:11.014765,8860,0.030655,-0.030426,0.021739,0.026000,0.028459,0.999179
2011-09-26T15:26:11.024765,8870,0.028798,-0.037885,0.019570,0.026441,0.028460,0.999204
2011-09-26T15:26:11.034765,8880,0.026941,-0.045344,0.017401,0.026883,0.028462,0.999230
2011-09-26T15:26:11.044765,8890,0.025084,-0.052803,0.015232,0.027324,0.028464,0.999255
2011-09-26T15:26:11.054765,8900,0.023227,-0.060262,0.013063,0.027766,0.028465,0.999281
2011-09-26T15:26:11.064765,8910,0.020830,-0.066779,0.013808,0.028763,0.028337,0.998998
2011-09-26T15:26:11.074765,8920,0.018416,-0.073265,0.014647,0.029777,0.028204,0.998705
2011-09-26T15:26:11.084765,8930,0.016002,-0.079750,0.015486,0.030792,0.028072,0.998412
2011-09-26T15:26:11.094765,8940,0.013588,-0.086236,0.016326,0.031807,0.027939,0.998119
2011-09-26T15:26:11.104765,8950,0.011174,-0.092722,0.017165,0.032822,0.027807,0.997827
2011-09-26T15:26:11.114765,8960,0.008759,-0.099208,0.018004,0.033837,0.027674,0.997534
2011-09-26T15:26:11.124765,8970,0.006345,-0.105694,0.018843,0.034852,0.027542,0.997241
2011-09-26T15:26:11.134765,8980,0.003931,-0.112180,0.019683,0.035867,0.027409,0.996948
2011-09-26T15:26:11.144765,8990,0.001517,-0.118665,0.020522,0.036881,0.027277,0.996655
2011-09-26T15:26:11.154765,9000,-0.000898,-0.125151,0.021361,0.037896,0.027144,0.996362
2011-09-26T15:26:11.164765,9010,-0.005862,-0.135273,0.028363,0.039425,0.027332,0.996211
2011-09-26T15:26:11.174765,9020,-0.010970,-0.145597,0.035710,0.040983,0.027537,0.996067
2011-09-26T15:26:11.184765,9030,-0.016078,-0.155922,0.043056,0.042541,0.027742,0.995923
2011-09-26T15:26:11.194765,9040,-0.021186,-0.166247,0.050403,0.044098,0.027947,0.995779
2011-09-26T15:26:11.204765,9050,-0.026293,-0.176571,0.057750,0.045656,0.028153,0.995635
2011-09-26T15:26:11.214765,9060,-0.031401,-0.186896,0.065096,0.047214,0.028358,0.995491
2011-09-26T15:26:11.224765,9070,-0.036509,-0.197221,0.072443,0.048772,0.028563,0.995347
2011-09-26T15:26:11.234765,9080,-0.041616,-0.207546,0.079790,0.050329,0.028768,0.995204
2011-09-26T15:26:11.244765,9090,-0.046724,-0.217870,0.087137,0.051887,0.028974,0.995060
2011-09-26T15:26:11.254765,9100,-0.051832,-0.228195,0.094483,0.053445,0.029179,0.994916
2011-09-26T15:26:11.264765,9110,-0.056939,-0.238520,0.101830,0.055003,0.029384,0.994772
2011-09-26T15:26:11.274765,9120,-0.064895,-0.256419,0.100143,0.056775,0.029348,0.994965
2011-09-26T15:26:11.284765,9130,-0.072946,-0.274572,0.098151,0.058554,0.029305,0.995170
2011-09-26T15:26:11.294765,9140,-0.080997,-0.292726,0.096159,0.060333,0.029261,0.995375
2011-09-26T15:26:11.304765,9150,-0.089049,-0.310880,0.094168,0.062113,0.029217,0.995580
2011-09-26T15:26:11.314765,9160,-0.097100,-0.329034,0.092176,0.063892,0.029173,0.995785
2011-09-26T15:26:11.324765,9170,-0.105151,-0.347188,0.090184,0.065671,0.029129,0.995990
2011-09-26T15:26:11.334765,9180,-0.113203,-0.365342,0.088192,0.067451,0.029085,0.996195
2011-09-26T15:26:11.344765,9190,-0.121254,-0.383495,0.086201,0.069230,0.029041,0.996400
2011-09-26T15:26:11.354765,9200,-0.129305,-0.401649,0.084209,0.071009,0.028997,0.996604
2011-09-26T15:26:11.364765,9210,-0.137356,-0.419803,0.082217,0.072789,0.028953,0.996809
2011-09-26T15:26:11.374765,9220,-0.136323,-0.417396,0.077370,0.073092,0.028739,0.997769
2011-09-26T15:26:11.384765,9230,-0.134996,-0.414324,0.072429,0.073348,0.028520,0.998753
2011-09-26T15:26:11.394765,9240,-0.133669,-0.411253,0.067489,0.073604,0.028300,0.999736
2011-09-26T15:26:11.404765,9250,-0.132342,-0.408181,0.062549,0.073860,0.028081,1.000720
2011-09-26T15:26:11.414765,9260,-0.131014,-0.405109,0.057609,0.074116,0.027862,1.001704
2011-09-26T15:26:11.424765,9270,-0.129687,-0.402038,0.052669,0.074372,0.027642,1.002688
2011-09-26T15:26:11.434765,9280,-0.128360,-0.398966,0.047729,0.074628,0.027423,1.003672
2011-09-26T15:26:11.444765,9290,-0.127033,-0.395894,0.042788,0.074884,0.027204,1.004656
2011-09-26T15:26:11.454765,9300,-0.125706,-0.392823,0.037848,0.075140,0.026984,1.005639
2011-09-26T15:26:11.464765,9310,-0.124379,-0.389751,0.032908,0.075396,0.026765,1.006623
2011-09-26T15:26:11.474765,9320,-0.116776,-0.362797,0.033517,0.075023,0.026628,1.006957
2011-09-26T15:26:11.484765,9330,-0.108942,-0.334963,0.034331,0.074628,0.026494,1.007266
2011-09-26T15:26:11.494765,9340,-0.101109,-0.307130,0.035145,0.074232,0.026360,1.007575
2011-09-26T15:26:11.504765,9350,-0.093275,-0.279296,0.035959,0.073836,0.026226,1.007884
2011-09-26T15:26:11.514765,9360,-0.085441,-0.251462,0.036772,0.073441,0.026092,1.008194
2011-09-26T15:26:11.524765,9370,-0.077608,-0.223628,0.037586,0.073045,0.025958,1.008503
2011-09-26T15:26:11.534765,9380,-0.069774,-0.195795,0.038400,0.072650,0.025824,1.008812
2011-09-26T15:26:11.544765,9390,-0.061940,-0.167961,0.039214,0.072254,0.025690,1.009122
2011-09-26T15:26:11.554765,9400,-0.054106,-0.140127,0.040028,0.071858,0.025556,1.009431
2011-09-26T15:26:11.564765,9410,-0.046273,-0.112293,0.040841,0.071463,0.025422,1.009740
2011-09-26T15:26:11.574765,9420,-0.039941,-0.090206,0.050677,0.071038,0.025497,1.008986
2011-09-26T15:26:11.584765,9430,-0.033664,-0.068330,0.060846,0.070612,0.025579,1.008193
2011-09-26T15:26:11.594765,9440,-0.027388,-0.046454,0.071015,0.070186,0.025662,1.007400
2011-09-26T15:26:11.604765,9450,-0.021111,-0.024578,0.081184,0.069760,0.025744,1.006607
2011-09-26T15:26:11.614765,9460,-0.014835,-0.002703,0.091353,0.069334,0.025827,1.005814
2011-09-26T15:26:11.624765,9470,-0.008558,0.019173,0.101522,0.068908,0.025910,1.005021
2011-09-26T15:26:11.634765,9480,-0.002282,0.041049,0.111691,0.068482,0.025992,1.004228
2011-09-26T15:26:11.644765,9490,0.003995,0.062925,0.121860,0.068056,0.026075,1.003434
2011-09-26T15:26:11.654765,9500,0.010271,0.084800,0.132029,0.067630,0.026157,1.002641
2011-09-26T15:26:11.664765,9510,0.016548,0.106676,0.142198,0.067205,0.026240,1.001848
2011-09-26T15:26:11.674765,9520,0.022824,0.128552,0.152367,0.066779,0.026322,1.001055
2011-09-26T15:26:11.684765,9530,0.028906,0.123807,0.148166,0.066184,0.026713,1.000948
2011-09-26T15:26:11.694765,9540,0.034978,0.117878,0.143326,0.065581,0.027118,1.000871
2011-09-26T15:26:11.704765,9550,0.041051,0.111949,0.138486,0.064979,0.027522,1.000794
2011-09-26T15:26:11.714765,9560,0.047124,0.106020,0.133645,0.064377,0.027927,1.000717
2011-09-26T15:26:11.724765,9570,0.053196,0.100091,0.128805,0.063774,0.028331,1.000640
2011-09-26T15:26:11.734765,9580,0.059269,0.094162,0.123964,0.063172,0.028736,1.000563
2011-09-26T15:26:11.744765,9590,0.065342,0.088233,0.119124,0.062569,0.029140,1.000487
2011-09-26T15:26:11.754765,9600,0.071414,0.082304,0.114283,0.061967,0.029545,1.000410
2011-09-26T15:26:11.764765,9610,0.077487,0.076375,0.109443,0.061365,0.029949,1.000333
2011-09-26T15:26:11.774765,9620,0.083560,0.070445,0.104602,0.060762,0.030354,1.000256
2011-09-26T15:26:11.784765,9630,0.089632,0.064516,0.099762,0.060160,0.030758,1.000179
2011-09-26T15:26:11.794765,9640,0.080928,0.071928,0.085501,0.059222,0.030789,0.999916
2011-09-26T15:26:11.804765,9650,0.071689,0.079823,0.070899,0.058273,0.030806,0.999647
2011-09-26T15:26:11.814765,9660,0.062449,0.087719,0.056296,0.057323,0.030824,0.999377
2011-09-26T15:26:11.824765,9670,0.053209,0.095614,0.041694,0.056373,0.030841,0.999108
2011-09-26T15:26:11.834765,9680,0.043969,0.103509,0.027092,0.055424,0.030858,0.998838
2011-09-26T15:26:11.844765,9690,0.034729,0.111405,0.012489,0.054474,0.030876,0.998569
2011-09-26T15:26:11.854765,9700,0.025489,0.119300,-0.002113,0.053524,0.030893,0.998299
2011-09-26T15:26:11.864765,9710,0.016249,0.127196,-0.016716,0.052574,0.030910,0.998029
2011-09-26T15:26:11.874765,9720,0.007010,0.135091,-0.031318,0.051625,0.030928,0.997760
2011-09-26T15:26:11.884765,9730,-0.008499,0.131343,-0.023141,0.051333,0.030727,0.997486
2011-09-26T15:26:11.894765,9740,-0.024224,0.127193,-0.014179,0.051063,0.030519,0.997212
2011-09-26T15:26:11.904765,9750,-0.039949,0.123043,-0.005217,0.050794,0.030311,0.996938
2011-09-26T15:26:11.914765,9760,-0.055674,0.118894,0.003746,0.050524,0.030103,0.996663
2011-09-26T15:26:11.924765,9770,-0.071399,0.114744,0.012708,0.050255,0.029894,0.996389
2011-09-26T15:26:11.934765,9780,-0.087123,0.110594,0.021670,0.049985,0.029686,0.996115
2011-09-26T15:26:11.944765,9790,-0.102848,0.106444,0.030632,0.049716,0.029478,0.995841
2011-09-26T15:26:11.954765,9800,-0.118573,0.102295,0.039594,0.049446,0.029270,0.995567
2011-09-26T15:26:11.964765,9810,-0.134298,0.098145,0.048556,0.049177,0.029062,0.995293
2011-09-26T15:26:11.974765,9820,-0.150023,0.093995,0.057518,0.048908,0.028854,0.995018
2011-09-26T15:26:11.984765,9830,-0.165748,0.089846,0.066480,0.048638,0.028646,0.994744
2011-09-26T15:26:11.994765,9840,-0.151432,0.076398,0.073437,0.048317,0.028041,0.994913
2011-09-26T15:26:12.004765,9850,-0.136068,0.062625,0.080324,0.047994,0.027422,0.995097
2011-09-26T15:26:12.014765,9860,-0.120704,0.048853,0.087211,0.047670,0.026804,0.995281
2011-09-26T15:26:12.024765,9870,-0.105341,0.035080,0.094098,0.047347,0.026185,0.995466
2011-09-26T15:26:12.034765,9880,-0.089977,0.021307,0.100985,0.047024,0.025566,0.995650
2011-09-26T15:26:12.044765,9890,-0.074613,0.007535,0.107872,0.046701,0.024948,0.995834
2011-09-26T15:26:12.054765,9900,-0.059249,-0.006238,0.114759,0.046378,0.024329,0.996018
2011-09-26T15:26:12.064765,9910,-0.043886,-0.020010,0.121646,0.046055,0.023711,0.996203
2011-09-26T15:26:12.074765,9920,-0.028522,-0.033783,0.128533,0.045731,0.023092,0.996387
2011-09-26T15:26:12.084765,9930,-0.013158,-0.047555,0.135420,0.045408,0.022473,0.996571
2011-09-26T15:26:12.094765,9940,-0.001160,-0.048186,0.133306,0.045576,0.023055,0.996752
2011-09-26T15:26:12.104765,9950,0.010715,-0.048336,0.130863,0.045762,0.023680,0.996934
2011-09-26T15:26:12.114765,9960,0.022590,-0.048487,0.128420,0.045947,0.024305,0.997115
2011-09-26T15:26:12.124765,9970,0.034465,-0.048637,0.125977,0.046133,0.024931,0.997296
2011-09-26T15:26:12.134765,9980,0.046339,-0.048788,0.123534,0.046319,0.025556,0.997477
2011-09-26T15:26:12.144765,9990,0.058214,-0.048938,0.121091,0.046505,0.026181,0.997658
2011-09-26T15:26:12.154765,10000,0.070089,-0.049089,0.118648,0.046690,0.026807,0.997840
2011-09-26T15:26:12.164765,10010,0.081964,-0.049239,0.116205,0.046876,0.027432,0.998021
2011-09-26T15:26:12.174765,10020,0.093839,-0.049390,0.113762,0.047062,0.028057,0.998202
2011-09-26T15:26:12.184765,10030,0.105714,-0.049541,0.111320,0.047247,0.028683,0.998383
2011-09-26T15:26:12.194765,10040,0.106227,-0.066216,0.114561,0.048176,0.028764,0.998130
2011-09-26T15:26:12.204765,10050,0.106243,-0.083613,0.118050,0.049138,0.028821,0.997858
2011-09-26T15:26:12.214765,10060,0.106260,-0.101010,0.121539,0.050099,0.028879,0.997586
2011-09-26T15:26:12.224765,10070,0.106277,-0.118407,0.125028,0.051060,0.028936,0.997314
2011-09-26T15:26:12.234765,10080,0.106293,-0.135804,0.128518,0.052022,0.028993,0.997042
2011-09-26T15:26:12.244765,10090,0.106310,-0.153200,0.132007,0.052983,0.029051,0.996771
2011-09-26T15:26:12.254765,10100,0.106326,-0.170597,0.135496,0.053944,0.029108,0.996499
2011-09-26T15:26:12.264765,10110,0.106343,-0.187994,0.138985,0.054906,0.029165,0.996227
2011-09-26T15:26:12.274765,10120,0.106360,-0.205391,0.142474,0.055867,0.029223,0.995955
2011-09-26T15:26:12.284765,10130,0.106376,-0.222788,0.145964,0.056828,0.029280,0.995683
2011-09-26T15:26:12.294765,10140,0.106393,-0.240185,0.149453,0.057790,0.029337,0.995411
2011-09-26T15:26:12.304765,10150,0.093447,-0.235753,0.142739,0.058930,0.029577,0.995930
2011-09-26T15:26:12.314765,10160,0.080019,-0.230507,0.135645,0.060077,0.029823,0.996478
2011-09-26T15:26:12.324765,10170,0.066591,-0.225262,0.128551,0.061225,0.030070,0.997026
2011-09-26T15:26:12.334765,10180,0.053162,-0.220017,0.121458,0.062372,0.030316,0.997575
2011-09-26T15:26:12.344765,10190,0.039734,-0.214772,0.114364,0.063519,0.030563,0.998123
2011-09-26T15:26:12.354765,10200,0.026305,-0.209526,0.107270,0.064667,0.030809,0.998671
2011-09-26T15:26:12.364765,10210,0.012877,-0.204281,0.100176,0.065814,0.031055,0.999220
2011-09-26T15:26:12.374765,10220,-0.000551,-0.199036,0.093082,0.066961,0.031302,0.999768
2011-09-26T15:26:12.384765,10230,-0.013980,-0.193791,0.085988,0.068108,0.031548,1.000316
2011-09-26T15:26:12.394765,10240,-0.027408,-0.188546,0.078895,0.069256,0.031795,1.000865
2011-09-26T15:26:12.404765,10250,-0.039185,-0.174041,0.075857,0.069738,0.031702,1.000807
2011-09-26T15:26:12.414765,10260,-0.050906,-0.159225,0.072956,0.070197,0.031598,1.000730
2011-09-26T15:26:12.424765,10270,-0.062626,-0.144409,0.070054,0.070657,0.031493,1.000653
2011-09-26T15:26:12.434765,10280,-0.074347,-0.129592,0.067153,0.071116,0.031389,1.000575
2011-09-26T15:26:12.444765,10290,-0.086068,-0.114776,0.064252,0.071575,0.031285,1.000498
2011-09-26T15:26:12.454765,10300,-0.097789,-0.099959,0.061351,0.072035,0.031181,1.000420
2011-09-26T15:26:12.464765,10310,-0.109510,-0.085143,0.058450,0.072494,0.031076,1.000343
2011-09-26T15:26:12.474765,10320,-0.121231,-0.070327,0.055549,0.072954,0.030972,1.000265
2011-09-26T15:26:12.484765,10330,-0.132952,-0.055510,0.052647,0.073413,0.030868,1.000188
2011-09-26T15:26:12.494765,10340,-0.144673,-0.040694,0.049746,0.073873,0.030763,1.000110
2011-09-26T15:26:12.504765,10350,-0.148939,-0.047344,0.057714,0.074542,0.030354,1.000385
2011-09-26T15:26:12.514765,10360,-0.152914,-0.054838,0.066109,0.075220,0.029932,1.000674
2011-09-26T15:26:12.524765,10370,-0.156888,-0.062332,0.074504,0.075898,0.029511,1.000963
2011-09-26T15:26:12.534765,10380,-0.160862,-0.069826,0.082899,0.076576,0.029089,1.001252
2011-09-26T15:26:12.544765,10390,-0.164836,-0.077320,0.091294,0.077254,0.028668,1.001541
2011-09-26T15:26:12.554765,10400,-0.168810,-0.084814,0.099688,0.077932,0.028246,1.001830
2011-09-26T15:26:12.564765,10410,-0.172784,-0.092308,0.108083,0.078610,0.027825,1.002119
2011-09-26T15:26:12.574765,10420,-0.176759,-0.099801,0.116478,0.079288,0.027403,1.002408
2011-09-26T15:26:12.584765,10430,-0.180733,-0.107295,0.124873,0.079966,0.026982,1.002697
2011-09-26T15:26:12.594765,10440,-0.184707,-0.114789,0.133268,0.080644,0.026560,1.002986
2011-09-26T15:26:12.604765,10450,-0.188681,-0.122283,0.141663,0.081322,0.026139,1.003275
2011-09-26T15:26:12.614765,10460,-0.176233,-0.123124,0.134204,0.081703,0.026124,1.003352
2011-09-26T15:26:12.624765,10470,-0.163060,-0.123672,0.126047,0.082071,0.026127,1.003420
2011-09-26T15:26:12.634765,10480,-0.149888,-0.124220,0.117890,0.082438,0.026130,1.003487
2011-09-26T15:26:12.644765,10490,-0.136716,-0.124768,0.109732,0.082806,0.026133,1.003555
2011-09-26T15:26:12.654765,10500,-0.123544,-0.125316,0.101575,0.083174,0.026137,1.003622
2011-09-26T15:26:12.664765,10510,-0.110371,-0.125864,0.093418,0.083541,0.026140,1.003690
2011-09-26T15:26:12.674765,10520,-0.097199,-0.126412,0.085261,0.083909,0.026143,1.003757
2011-09-26T15:26:12.684765,10530,-0.084027,-0.126959,0.077104,0.084277,0.026146,1.003825
2011-09-26T15:26:12.694765,10540,-0.070854,-0.127507,0.068946,0.084645,0.026149,1.003893
2011-09-26T15:26:12.704765,10550,-0.057682,-0.128055,0.060789,0.085012,0.026152,1.003960
2011-09-26T15:26:12.714765,10560,-0.031941,-0.137060,0.062863,0.085072,0.025629,1.004095
2011-09-26T15:26:12.724765,10570,-0.005590,-0.146475,0.065432,0.085116,0.025081,1.004234
2011-09-26T15:26:12.734765,10580,0.020760,-0.155889,0.068001,0.085160,0.024533,1.004372
2011-09-26T15:26:12.744765,10590,0.047110,-0.165304,0.070570,0.085205,0.023985,1.004511
2011-09-26T15:26:12.754765,10600,0.073460,-0.174719,0.073139,0.085249,0.023437,1.004649
2011-09-26T15:26:12.764765,10610,0.099811,-0.184133,0.075708,0.085294,0.022889,1.004788
2011-09-26T15:26:12.774765,10620,0.126161,-0.193548,0.078276,0.085338,0.022341,1.004926
2011-09-26T15:26:12.784765,10630,0.152511,-0.202962,0.080845,0.085383,0.021793,1.005065
2011-09-26T15:26:12.794765,10640,0.178861,-0.212377,0.083414,0.085427,0.021245,1.005203
2011-09-26T15:26:12.804765,10650,0.205211,-0.221791,0.085983,0.085471,0.020697,1.005342
2011-09-26T15:26:12.814765,10660,0.231562,-0.231206,0.088552,0.085516,0.020148,1.005480
2011-09-26T15:26:12.824765,10670,0.262031,-0.248767,0.095293,0.086662,0.020798,1.004666
2011-09-26T15:26:12.834765,10680,0.292670,-0.266662,0.102204,0.087853,0.021496,1.003813
2011-09-26T15:26:12.844765,10690,0.323309,-0.284557,0.109116,0.089043,0.022194,1.002960
2011-09-26T15:26:12.854765,10700,0.353947,-0.302452,0.116028,0.090234,0.022892,1.002106
2011-09-26T15:26:12.864765,10710,0.384586,-0.320347,0.122939,0.091425,0.023591,1.001253
2011-09-26T15:26:12.874765,10720,0.415225,-0.338242,0.129851,0.092616,0.024289,1.000400
2011-09-26T15:26:12.884765,10730,0.445863,-0.356137,0.136762,0.093807,0.024987,0.999547
2011-09-26T15:26:12.894765,10740,0.476502,-0.374033,0.143674,0.094998,0.025685,0.998693
2011-09-26T15:26:12.904765,10750,0.507141,-0.391928,0.150586,0.096189,0.026384,0.997840
2011-09-26T15:26:12.914765,10760,0.537779,-0.409823,0.157497,0.097380,0.027082,0.996987
2011-09-26T15:26:12.924765,10770,0.467157,-0.386215,0.139953,0.099289,0.028374,0.996415
2011-09-26T15:26:12.934765,10780,0.392545,-0.360971,0.121445,0.101226,0.029690,0.995853
2011-09-26T15:26:12.944765,10790,0.317933,-0.335728,0.102937,0.103164,0.031006,0.995292
2011-09-26T15:26:12.954765,10800,0.243320,-0.310484,0.084429,0.105101,0.032322,0.994731
2011-09-26T15:26:12.964765,10810,0.168708,-0.285240,0.065921,0.107038,0.033638,0.994170
2011-09-26T15:26:12.974765,10820,0.094096,-0.259997,0.047413,0.108976,0.034954,0.993609
2011-09-26T15:26:12.984765,10830,0.019483,-0.234753,0.028905,0.110913,0.036270,0.993047
2011-09-26T15:26:12.994765,10840,-0.055129,-0.209510,0.010397,0.112850,0.037586,0.992486
2011-09-26T15:26:13.004765,10850,-0.129741,-0.184266,-0.008111,0.114788,0.038902,0.991925
2011-09-26T15:26:13.014765,10860,-0.204354,-0.159022,-0.026619,0.116725,0.040218,0.991364
2011-09-26T15:26:13.024765,10870,-0.278966,-0.133779,-0.045127,0.118662,0.041534,0.990803
2011-09-26T15:26:13.034765,10880,-0.306189,-0.125908,-0.020134,0.119571,0.040456,0.990728
2011-09-26T15:26:13.044765,10890,-0.331426,-0.118765,0.006681,0.120437,0.039277,0.990673
2011-09-26T15:26:13.054765,10900,-0.356664,-0.111622,0.033497,0.121303,0.038099,0.990618
2011-09-26T15:26:13.064765,10910,-0.381901,-0.104479,0.060312,0.122169,0.036920,0.990564
2011-09-26T15:26:13.074765,10920,-0.407138,-0.097335,0.087128,0.123035,0.035741,0.990509
2011-09-26T15:26:13.084765,10930,-0.432376,-0.090192,0.113943,0.123901,0.034563,0.990455
2011-09-26T15:26:13.094765,10940,-0.457613,-0.083049,0.140758,0.124767,0.033384,0.990400
2011-09-26T15:26:13.104765,10950,-0.482850,-0.075906,0.167574,0.125632,0.032205,0.990345
2011-09-26T15:26:13.114765,10960,-0.508088,-0.068763,0.194389,0.126498,0.031026,0.990291
2011-09-26T15:26:13.124765,10970,-0.533325,-0.061620,0.221204,0.127364,0.029848,0.990236
2011-09-26T15:26:13.134765,10980,-0.487735,-0.106105,0.227340,0.128222,0.028213,0.992122
2011-09-26T15:26:13.144765,10990,-0.438947,-0.152922,0.232543,0.129079,0.026558,0.994096
2011-09-26T15:26:13.154765,11000,-0.390159,-0.199739,0.237745,0.129937,0.024904,0.996069
2011-09-26T15:26:13.164765,11010,-0.341370,-0.246555,0.242947,0.130794,0.023249,0.998043
2011-09-26T15:26:13.174765,11020,-0.292582,-0.293372,0.248149,0.131651,0.021594,1.000017
2011-09-26T15:26:13.184765,11030,-0.243793,-0.340189,0.253351,0.132509,0.019939,1.001990
2011-09-26T15:26:13.194765,11040,-0.195005,-0.387006,0.258553,0.133366,0.018284,1.003964
2011-09-26T15:26:13.204765,11050,-0.146217,-0.433822,0.263756,0.134224,0.016629,1.005938
2011-09-26T15:26:13.214765,11060,-0.097428,-0.480639,0.268958,0.135081,0.014974,1.007911
2011-09-26T15:26:13.224765,11070,-0.048640,-0.527456,0.274160,0.135938,0.013319,1.009885
2011-09-26T15:26:13.234765,11080,0.016393,-0.541081,0.245724,0.137376,0.014004,1.009931
2011-09-26T15:26:13.244765,11090,0.082123,-0.553283,0.215845,0.138838,0.014789,1.009894
2011-09-26T15:26:13.254765,11100,0.147852,-0.565485,0.185967,0.140300,0.015575,1.009857
2011-09-26T15:26:13.264765,11110,0.213582,-0.577686,0.156088,0.141762,0.016360,1.009821
2011-09-26T15:26:13.274765,11120,0.279311,-0.589888,0.126210,0.143224,0.017145,1.009784
2011-09-26T15:26:13.284765,11130,0.345040,-0.602090,0.096331,0.144686,0.017931,1.009747
2011-09-26T15:26:13.294765,11140,0.410770,-0.614292,0.066453,0.146148,0.018716,1.009710
2011-09-26T15:26:13.304765,11150,0.476499,-0.626494,0.036574,0.147610,0.019501,1.009673
2011-09-26T15:26:13.314765,11160,0.542229,-0.638696,0.006695,0.149072,0.020287,1.009637
2011-09-26T15:26:13.324765,11170,0.607958,-0.650897,-0.023183,0.150534,0.021072,1.009600
2011-09-26T15:26:13.334765,11180,0.644063,-0.615575,-0.011799,0.151880,0.021744,1.009042
2011-09-26T15:26:13.344765,11190,0.678772,-0.578012,0.001530,0.153220,0.022412,1.008459
2011-09-26T15:26:13.354765,11200,0.713480,-0.540448,0.014859,0.154561,0.023079,1.007876
2011-09-26T15:26:13.364765,11210,0.748188,-0.502885,0.028189,0.155901,0.023746,1.007293
2011-09-26T15:26:13.374765,11220,0.782897,-0.465322,0.041518,0.157242,0.024413,1.006710
2011-09-26T15:26:13.384765,11230,0.817605,-0.427759,0.054847,0.158582,0.025080,1.006127
2011-09-26T15:26:13.394765,11240,0.852313,-0.390196,0.068176,0.159923,0.025747,1.005545
2011-09-26T15:26:13.404765,11250,0.887022,-0.352633,0.081506,0.161263,0.026415,1.004962
2011-09-26T15:26:13.414765,11260,0.921730,-0.315069,0.094835,0.162604,0.027082,1.004379
2011-09-26T15:26:13.424765,11270,0.956438,-0.277506,0.108164,0.163944,0.027749,1.003796
2011-09-26T15:26:13.434765,11280,0.991147,-0.239943,0.121493,0.165285,0.028416,1.003213
2011-09-26T15:26:13.444765,11290,0.939513,-0.213665,0.126822,0.166980,0.029895,1.001778
2011-09-26T15:26:13.454765,11300,0.883026,-0.188021,0.131701,0.168695,0.031420,1.000296
2011-09-26T15:26:13.464765,11310,0.826539,-0.162376,0.136581,0.170410,0.032945,0.998814
2011-09-26T15:26:13.474765,11320,0.770051,-0.136732,0.141460,0.172125,0.034470,0.997331
2011-09-26T15:26:13.484765,11330,0.713564,-0.111088,0.146339,0.173840,0.035995,0.995849
2011-09-26T15:26:13.494765,11340,0.657077,-0.085444,0.151218,0.175555,0.037520,0.994366
2011-09-26T15:26:13.504765,11350,0.600590,-0.059800,0.156097,0.177271,0.039045,0.992884
2011-09-26T15:26:13.514765,11360,0.544102,-0.034156,0.160977,0.178986,0.040570,0.991401
2011-09-26T15:26:13.524765,11370,0.487615,-0.008512,0.165856,0.180701,0.042095,0.989919
2011-09-26T15:26:13.534765,11380,0.431128,0.017132,0.170735,0.182416,0.043620,0.988436
2011-09-26T15:26:13.544765,11390,0.376087,0.004989,0.163557,0.183194,0.043712,0.988653
2011-09-26T15:26:13.554765,11400,0.321141,-0.009614,0.155595,0.183912,0.043711,0.988980
2011-09-26T15:26:13.564765,11410,0.266195,-0.024216,0.147633,0.184630,0.043710,0.989308
2011-09-26T15:26:13.574765,11420,0.211249,-0.038819,0.139670,0.185347,0.043709,0.989635
2011-09-26T15:26:13.584765,11430,0.156302,-0.053422,0.131708,0.186065,0.043708,0.989963
2011-09-26T15:26:13.594765,11440,0.101356,-0.068025,0.123745,0.186782,0.043707,0.990290
2011-09-26T15:26:13.604765,11450,0.046410,-0.082627,0.115783,0.187500,0.043706,0.990618
2011-09-26T15:26:13.614765,11460,-0.008536,-0.097230,0.107820,0.188218,0.043705,0.990945
2011-09-26T15:26:13.624765,11470,-0.063482,-0.111833,0.099858,0.188935,0.043704,0.991272
2011-09-26T15:26:13.634765,11480,-0.118429,-0.126436,0.091896,0.189653,0.043703,0.991600
2011-09-26T15:26:13.644765,11490,-0.173375,-0.141038,0.083933,0.190370,0.043702,0.991927
2011-09-26T15:26:13.654765,11500,-0.197934,-0.134071,0.081072,0.190227,0.042525,0.993539
2011-09-26T15:26:13.664765,11510,-0.220936,-0.125999,0.078472,0.190039,0.041288,0.995217
2011-09-26T15:26:13.674765,11520,-0.243939,-0.117927,0.075872,0.189852,0.040050,0.996895
2011-09-26T15:26:13.684765,11530,-0.266942,-0.109855,0.073272,0.189664,0.038813,0.998573
2011-09-26T15:26:13.694765,11540,-0.289945,-0.101782,0.070673,0.189477,0.037575,1.000251
2011-09-26T15:26:13.704765,11550,-0.312948,-0.093710,0.068073,0.189289,0.036338,1.001929
2011-09-26T15:26:13.714765,11560,-0.335951,-0.085638,0.065473,0.189102,0.035101,1.003606
2011-09-26T15:26:13.724765,11570,-0.358953,-0.077566,0.062873,0.188914,0.033863,1.005284
2011-09-26T15:26:13.734765,11580,-0.381956,-0.069494,0.060273,0.188727,0.032626,1.006962
2011-09-26T15:26:13.744765,11590,-0.404959,-0.061422,0.057673,0.188539,0.031388,1.008640
2011-09-26T15:26:13.754765,11600,-0.394526,-0.009174,0.071258,0.189187,0.030371,1.005420
2011-09-26T15:26:13.764765,11610,-0.382527,0.045142,0.085601,0.189873,0.029363,1.001970
2011-09-26T15:26:13.774765,11620,-0.370528,0.099459,0.099944,0.190560,0.028356,0.998520
2011-09-26T15:26:13.784765,11630,-0.358529,0.153776,0.114287,0.191246,0.027348,0.995071
2011-09-26T15:26:13.794765,11640,-0.346530,0.208092,0.128630,0.191933,0.026341,0.991621
2011-09-26T15:26:13.804765,11650,-0.334530,0.262409,0.142973,0.192620,0.025333,0.988171
2011-09-26T15:26:13.814765,11660,-0.322531,0.316725,0.157316,0.193306,0.024326,0.984722
2011-09-26T15:26:13.824765,11670,-0.310532,0.371042,0.171659,0.193993,0.023318,0.981272
2011-09-26T15:26:13.834765,11680,-0.298533,0.425358,0.186002,0.194679,0.022311,0.977822
2011-09-26T15:26:13.844765,11690,-0.286534,0.479675,0.200344,0.195366,0.021303,0.974373
2011-09-26T15:26:13.854765,11700,-0.293793,0.424428,0.184065,0.193254,0.023258,0.976907
2011-09-26T15:26:13.864765,11710,-0.301922,0.364232,0.166403,0.191016,0.025347,0.979712
2011-09-26T15:26:13.874765,11720,-0.310050,0.304037,0.148740,0.188778,0.027436,0.982517
2011-09-26T15:26:13.884765,11730,-0.318179,0.243841,0.131078,0.186540,0.029525,0.985321
2011-09-26T15:26:13.894765,11740,-0.326307,0.183646,0.113416,0.184302,0.031614,0.988126
2011-09-26T15:26:13.904765,11750,-0.334436,0.123450,0.095753,0.182064,0.033703,0.990931
2011-09-26T15:26:13.914765,11760,-0.342564,0.063255,0.078091,0.179826,0.035792,0.993736
2011-09-26T15:26:13.924765,11770,-0.350693,0.003059,0.060428,0.177588,0.037881,0.996540
2011-09-26T15:26:13.934765,11780,-0.358822,-0.057136,0.042766,0.175350,0.039970,0.999345
2011-09-26T15:26:13.944765,11790,-0.366950,-0.117332,0.025104,0.173112,0.042059,1.002150
2011-09-26T15:26:13.954765,11800,-0.300062,-0.087739,0.033096,0.171702,0.038161,1.004670
2011-09-26T15:26:13.964765,11810,-0.228299,-0.052312,0.042754,0.170346,0.033875,1.007172
2011-09-26T15:26:13.974765,11820,-0.156536,-0.016886,0.052413,0.168990,0.029588,1.009673
2011-09-26T15:26:13.984765,11830,-0.084773,0.018541,0.062072,0.167634,0.025301,1.012175
2011-09-26T15:26:13.994765,11840,-0.013010,0.053968,0.071731,0.166278,0.021014,1.014677
2011-09-26T15:26:14.004765,11850,0.058753,0.089394,0.081390,0.164922,0.016728,1.017178
2011-09-26T15:26:14.014765,11860,0.130515,0.124821,0.091048,0.163566,0.012441,1.019680
2011-09-26T15:26:14.024765,11870,0.202278,0.160247,0.100707,0.162210,0.008154,1.022182
2011-09-26T15:26:14.034765,11880,0.274041,0.195674,0.110366,0.160854,0.003867,1.024683
2011-09-26T15:26:14.044765,11890,0.345804,0.231101,0.120025,0.159498,-0.000419,1.027185
2011-09-26T15:26:14.054765,11900,0.417567,0.266527,0.129684,0.158142,-0.004706,1.029686
2011-09-26T15:26:14.064765,11910,0.477732,0.288040,0.139215,0.158126,-0.001063,1.026853
2011-09-26T15:26:14.074765,11920,0.537392,0.308945,0.148742,0.158168,0.002926,1.023787
2011-09-26T15:26:14.084765,11930,0.597052,0.329851,0.158268,0.158210,0.006915,1.020721
2011-09-26T15:26:14.094765,11940,0.656712,0.350756,0.167794,0.158253,0.010904,1.017655
2011-09-26T15:26:14.104765,11950,0.716372,0.371662,0.177320,0.158295,0.014893,1.014588
2011-09-26T15:26:14.114765,11960,0.776032,0.392568,0.186846,0.158338,0.018882,1.011522
2011-09-26T15:26:14.124765,11970,0.835691,0.413473,0.196373,0.158380,0.022871,1.008456
2011-09-26T15:26:14.134765,11980,0.895351,0.434379,0.205899,0.158422,0.026860,1.005390
2011-09-26T15:26:14.144765,11990,0.955011,0.455284,0.215425,0.158465,0.030849,1.002324
2011-09-26T15:26:14.154765,12000,1.014671,0.476190,0.224951,0.158507,0.034838,0.999258
2011-09-26T15:26:14.164765,12010,1.002706,0.502465,0.191734,0.156358,0.036526,0.997536
2011-09-26T15:26:14.174765,12020,0.987207,0.529006,0.156407,0.154100,0.038101,0.995882
2011-09-26T15:26:14.184765,12030,0.971708,0.555547,0.121080,0.151843,0.039675,0.994227
2011-09-26T15:26:14.194765,12040,0.956209,0.582087,0.085753,0.149585,0.041250,0.992572
2011-09-26T15:26:14.204765,12050,0.940710,0.608628,0.050427,0.147327,0.042824,0.990917
2011-09-26T15:26:14.214765,12060,0.925211,0.635169,0.015100,0.145070,0.044399,0.989262
2011-09-26T15:26:14.224765,12070,0.909712,0.661709,-0.020227,0.142812,0.045973,0.987608
2011-09-26T15:26:14.234765,12080,0.894213,0.688250,-0.055553,0.140554,0.047547,0.985953
2011-09-26T15:26:14.244765,12090,0.878714,0.714791,-0.090880,0.138297,0.049122,0.984298
2011-09-26T15:26:14.254765,12100,0.863215,0.741331,-0.126207,0.136039,0.050696,0.982643
2011-09-26T15:26:14.264765,12110,0.847715,0.767872,-0.161534,0.133781,0.052271,0.980988
2011-09-26T15:26:14.274765,12120,0.727013,0.718414,-0.158712,0.133806,0.051035,0.981481
2011-09-26T15:26:14.284765,12130,0.600529,0.664780,-0.153793,0.133955,0.049645,0.982092
2011-09-26T15:26:14.294765,12140,0.474044,0.611145,-0.148874,0.134105,0.048256,0.982703
2011-09-26T15:26:14.304765,12150,0.347559,0.557510,-0.143955,0.134255,0.046866,0.983315
2011-09-26T15:26:14.314765,12160,0.221075,0.503876,-0.139037,0.134405,0.045476,0.983926
2011-09-26T15:26:14.324765,12170,0.094590,0.450241,-0.134118,0.134555,0.044086,0.984537
2011-09-26T15:26:14.334765,12180,-0.031894,0.396606,-0.129199,0.134705,0.042696,0.985148
2011-09-26T15:26:14.344765,12190,-0.158379,0.342972,-0.124280,0.134854,0.041306,0.985759
2011-09-26T15:26:14.354765,12200,-0.284864,0.289337,-0.119362,0.135004,0.039916,0.986370
2011-09-26T15:26:14.364765,12210,-0.411348,0.235703,-0.114443,0.135154,0.038526,0.986981
2011-09-26T15:26:14.374765,12220,-0.419406,0.200532,-0.157392,0.135930,0.037806,0.986842
2011-09-26T15:26:14.384765,12230,-0.422257,0.166173,-0.202446,0.136734,0.037115,0.986669
2011-09-26T15:26:14.394765,12240,-0.425109,0.131814,-0.247500,0.137538,0.036424,0.986497
2011-09-26T15:26:14.404765,12250,-0.427960,0.097455,-0.292553,0.138341,0.035733,0.986325
2011-09-26T15:26:14.414765,12260,-0.430811,0.063096,-0.337607,0.139145,0.035042,0.986152
2011-09-26T15:26:14.424765,12270,-0.433662,0.028737,-0.382661,0.139949,0.034351,0.985980
2011-09-26T15:26:14.434765,12280,-0.436513,-0.005622,-0.427715,0.140753,0.033660,0.985808
2011-09-26T15:26:14.444765,12290,-0.439365,-0.039981,-0.472768,0.141556,0.032969,0.985635
2011-09-26T15:26:14.454765,12300,-0.442216,-0.074340,-0.517822,0.142360,0.032278,0.985463
2011-09-26T15:26:14.464765,12310,-0.445067,-0.108699,-0.562876,0.143164,0.031588,0.985291
2011-09-26T15:26:14.474765,12320,-0.407151,-0.139394,-0.602506,0.143371,0.029916,0.986565
2011-09-26T15:26:14.484765,12330,-0.367376,-0.169923,-0.641889,0.143550,0.028200,0.987905
2011-09-26T15:26:14.494765,12340,-0.327602,-0.200451,-0.681272,0.143730,0.026484,0.989244
2011-09-26T15:26:14.504765,12350,-0.287827,-0.230979,-0.720655,0.143909,0.024768,0.990584
2011-09-26T15:26:14.514765,12360,-0.248053,-0.261508,-0.760038,0.144089,0.023051,0.991924
2011-09-26T15:26:14.524765,12370,-0.208278,-0.292036,-0.799420,0.144268,0.021335,0.993264
2011-09-26T15:26:14.534765,12380,-0.168503,-0.322564,-0.838803,0.144448,0.019619,0.994604
2011-09-26T15:26:14.544765,12390,-0.128729,-0.353093,-0.878186,0.144627,0.017903,0.995944
2011-09-26T15:26:14.554765,12400,-0.088954,-0.383621,-0.917569,0.144807,0.016187,0.997283
2011-09-26T15:26:14.564765,12410,-0.049179,-0.414149,-0.956952,0.144986,0.014471,0.998623
2011-09-26T15:26:14.574765,12420,-0.030267,-0.404092,-0.925449,0.144878,0.013213,0.999274
2011-09-26T15:26:14.584765,12430,-0.012323,-0.392149,-0.890651,0.144757,0.011977,0.999893
2011-09-26T15:26:14.594765,12440,0.005620,-0.380206,-0.855854,0.144636,0.010741,1.000512
2011-09-26T15:26:14.604765,12450,0.023563,-0.368262,-0.821056,0.144515,0.009505,1.001131
2011-09-26T15:26:14.614765,12460,0.041506,-0.356319,-0.786259,0.144394,0.008269,1.001750
2011-09-26T15:26:14.624765,12470,0.059449,-0.344376,-0.751461,0.144272,0.007033,1.002369
2011-09-26T15:26:14.634765,12480,0.077393,-0.332433,-0.716663,0.144151,0.005797,1.002988
2011-09-26T15:26:14.644765,12490,0.095336,-0.320490,-0.681866,0.144030,0.004561,1.003607
2011-09-26T15:26:14.654765,12500,0.113279,-0.308546,-0.647068,0.143909,0.003325,1.004225
2011-09-26T15:26:14.664765,12510,0.131222,-0.296603,-0.612271,0.143787,0.002089,1.004844
2011-09-26T15:26:14.674765,12520,0.149165,-0.284660,-0.577473,0.143666,0.000853,1.005463
2011-09-26T15:26:14.684765,12530,0.209710,-0.304790,-0.564485,0.143827,0.003961,1.005764
2011-09-26T15:26:14.694765,12540,0.272896,-0.326910,-0.552850,0.144005,0.007339,1.006044
2011-09-26T15:26:14.704765,12550,0.336082,-0.349029,-0.541215,0.144184,0.010716,1.006325
2011-09-26T15:26:14.714765,12560,0.399269,-0.371149,-0.529580,0.144362,0.014094,1.006606
2011-09-26T15:26:14.724765,12570,0.462455,-0.393269,-0.517944,0.144540,0.017472,1.006886
2011-09-26T15:26:14.734765,12580,0.525641,-0.415388,-0.506309,0.144719,0.020849,1.007167
2011-09-26T15:26:14.744765,12590,0.588828,-0.437508,-0.494674,0.144897,0.024227,1.007448
2011-09-26T15:26:14.754765,12600,0.652014,-0.459627,-0.483039,0.145075,0.027605,1.007728
2011-09-26T15:26:14.764765,12610,0.715200,-0.481747,-0.471403,0.145254,0.030982,1.008009
2011-09-26T15:26:14.774765,12620,0.778387,-0.503866,-0.459768,0.145432,0.034360,1.008290
2011-09-26T15:26:14.784765,12630,0.739926,-0.469124,-0.463231,0.145458,0.034776,1.007951
2011-09-26T15:26:14.794765,12640,0.696529,-0.431620,-0.467427,0.145476,0.035049,1.007583
2011-09-26T15:26:14.804765,12650,0.653131,-0.394117,-0.471623,0.145495,0.035321,1.007215
2011-09-26T15:26:14.814765,12660,0.609734,-0.356613,-0.475819,0.145513,0.035594,1.006846
2011-09-26T15:26:14.824765,12670,0.566337,-0.319109,-0.480015,0.145531,0.035866,1.006478
2011-09-26T15:26:14.834765,12680,0.522939,-0.281606,-0.484211,0.145550,0.036138,1.006109
2011-09-26T15:26:14.844765,12690,0.479542,-0.244102,-0.488407,0.145568,0.036411,1.005741
2011-09-26T15:26:14.854765,12700,0.436145,-0.206598,-0.492602,0.145587,0.036683,1.005373
2011-09-26T15:26:14.864765,12710,0.392748,-0.169095,-0.496798,0.145605,0.036956,1.005004
2011-09-26T15:26:14.874765,12720,0.349350,-0.131591,-0.500994,0.145624,0.037228,1.004636
2011-09-26T15:26:14.884765,12730,0.298883,-0.119065,-0.475110,0.144788,0.036810,1.003290
2011-09-26T15:26:14.894765,12740,0.248096,-0.107671,-0.447863,0.143914,0.036359,1.001899
2011-09-26T15:26:14.904765,12750,0.197309,-0.096276,-0.420617,0.143040,0.035909,1.000509
2011-09-26T15:26:14.914765,12760,0.146522,-0.084882,-0.393370,0.142166,0.035459,0.999118
2011-09-26T15:26:14.924765,12770,0.095736,-0.073487,-0.366124,0.141292,0.035009,0.997728
2011-09-26T15:26:14.934765,12780,0.044949,-0.062093,-0.338877,0.140418,0.034559,0.996337
2011-09-26T15:26:14.944765,12790,-0.005838,-0.050698,-0.311631,0.139544,0.034109,0.994947
2011-09-26T15:26:14.954765,12800,-0.056625,-0.039304,-0.284384,0.138670,0.033659,0.993556
2011-09-26T15:26:14.964765,12810,-0.107412,-0.027909,-0.257138,0.137796,0.033209,0.992166
2011-09-26T15:26:14.974765,12820,-0.158199,-0.016514,-0.229891,0.136922,0.032759,0.990776
2011-09-26T15:26:14.984765,12830,-0.208986,-0.005120,-0.202645,0.136048,0.032309,0.989385
2011-09-26T15:26:14.994765,12840,-0.220118,-0.026414,-0.189101,0.136412,0.032256,0.990686
2011-09-26T15:26:15.004765,12850,-0.229484,-0.049164,-0.176167,0.136831,0.032220,0.992106
2011-09-26T15:26:15.014765,12860,-0.238850,-0.071913,-0.163233,0.137249,0.032185,0.993526
2011-09-26T15:26:15.024765,12870,-0.248216,-0.094663,-0.150300,0.137668,0.032150,0.994947
2011-09-26T15:26:15.034765,12880,-0.257582,-0.117412,-0.137366,0.138087,0.032115,0.996367
2011-09-26T15:26:15.044765,12890,-0.266948,-0.140162,-0.124432,0.138506,0.032080,0.997787
2011-09-26T15:26:15.054765,12900,-0.276314,-0.162911,-0.111498,0.138925,0.032045,0.999208
2011-09-26T15:26:15.064765,12910,-0.285680,-0.185661,-0.098564,0.139343,0.032009,1.000628
2011-09-26T15:26:15.074765,12920,-0.295046,-0.208411,-0.085631,0.139762,0.031974,1.002048
2011-09-26T15:26:15.084765,12930,-0.304412,-0.231160,-0.072697,0.140181,0.031939,1.003469
2011-09-26T15:26:15.094765,12940,-0.257215,-0.223820,-0.081013,0.139933,0.030926,1.005106
2011-09-26T15:26:15.104765,12950,-0.207192,-0.214976,-0.090391,0.139653,0.029863,1.006754
2011-09-26T15:26:15.114765,12960,-0.157169,-0.206132,-0.099770,0.139372,0.028801,1.008402
2011-09-26T15:26:15.124765,12970,-0.107145,-0.197288,-0.109148,0.139091,0.027739,1.010050
2011-09-26T15:26:15.134765,12980,-0.057122,-0.188443,-0.118527,0.138810,0.026677,1.011698
2011-09-26T15:26:15.144765,12990,-0.007098,-0.179599,-0.127905,0.138529,0.025615,1.013346
2011-09-26T15:26:15.154765,13000,0.042925,-0.170755,-0.137283,0.138249,0.024553,1.014994
2011-09-26T15:26:15.164765,13010,0.092949,-0.161911,-0.146662,0.137968,0.023491,1.016642
2011-09-26T15:26:15.174765,13020,0.142972,-0.153067,-0.156040,0.137687,0.022428,1.018290
2011-09-26T15:26:15.184765,13030,0.192996,-0.144223,-0.165419,0.137406,0.021366,1.019938
2011-09-26T15:26:15.194765,13040,0.225377,-0.121295,-0.156727,0.137101,0.021257,1.018681
2011-09-26T15:26:15.204765,13050,0.256603,-0.097445,-0.146852,0.136795,0.021209,1.017234
2011-09-26T15:26:15.214765,13060,0.287829,-0.073595,-0.136976,0.136488,0.021162,1.015787
2011-09-26T15:26:15.224765,13070,0.319055,-0.049745,-0.127101,0.136181,0.021115,1.014339
2011-09-26T15:26:15.234765,13080,0.350281,-0.025895,-0.117226,0.135875,0.021067,1.012892
2011-09-26T15:26:15.244765,13090,0.381506,-0.002045,-0.107350,0.135568,0.021020,1.011444
2011-09-26T15:26:15.254765,13100,0.412732,0.021805,-0.097475,0.135262,0.020973,1.009997
2011-09-26T15:26:15.264765,13110,0.443958,0.045655,-0.087599,0.134955,0.020926,1.008550
2011-09-26T15:26:15.274765,13120,0.475184,0.069505,-0.077724,0.134648,0.020878,1.007102
2011-09-26T15:26:15.284765,13130,0.506409,0.093355,-0.067849,0.134342,0.020831,1.005655
2011-09-26T15:26:15.294765,13140,0.537635,0.117205,-0.057973,0.134035,0.020784,1.004207
2011-09-26T15:26:15.304765,13150,0.556633,0.136510,-0.035595,0.133423,0.022811,1.003827
2011-09-26T15:26:15.314765,13160,0.575015,0.155586,-0.012586,0.132796,0.024943,1.003500
2011-09-26T15:26:15.324765,13170,0.593396,0.174662,0.010423,0.132168,0.027074,1.003173
2011-09-26T15:26:15.334765,13180,0.611778,0.193738,0.033432,0.131541,0.029206,1.002846
2011-09-26T15:26:15.344765,13190,0.630160,0.212814,0.056440,0.130913,0.031338,1.002519
2011-09-26T15:26:15.354765,13200,0.648541,0.231889,0.079449,0.130286,0.033470,1.002192
2011-09-26T15:26:15.364765,13210,0.666923,0.250965,0.102458,0.129658,0.035602,1.001865
2011-09-26T15:26:15.374765,13220,0.685305,0.270041,0.125467,0.129031,0.037733,1.001538
2011-09-26T15:26:15.384765,13230,0.703686,0.289117,0.148475,0.128404,0.039865,1.001211
2011-09-26T15:26:15.394765,13240,0.722068,0.308193,0.171484,0.127776,0.041997,1.000884
2011-09-26T15:26:15.404765,13250,0.553490,0.310919,0.185967,0.128172,0.043465,0.999589
2011-09-26T15:26:15.414765,13260,0.375608,0.312832,0.200026,0.128618,0.044899,0.998247
2011-09-26T15:26:15.424765,13270,0.197725,0.314745,0.214085,0.129064,0.046334,0.996905
2011-09-26T15:26:15.434765,13280,0.019843,0.316657,0.228144,0.129511,0.047769,0.995562
2011-09-26T15:26:15.444765,13290,-0.158040,0.318570,0.242203,0.129957,0.049203,0.994220
2011-09-26T15:26:15.454765,13300,-0.335923,0.320482,0.256262,0.130403,0.050638,0.992877
2011-09-26T15:26:15.464765,13310,-0.513805,0.322395,0.270321,0.130850,0.052073,0.991535
2011-09-26T15:26:15.474765,13320,-0.691688,0.324308,0.284380,0.131296,0.053507,0.990193
2011-09-26T15:26:15.484765,13330,-0.869570,0.326220,0.298439,0.131742,0.054942,0.988850
2011-09-26T15:26:15.494765,13340,-1.047453,0.328133,0.312498,0.132189,0.056377,0.987508
2011-09-26T15:26:15.504765,13350,-1.225335,0.330046,0.326557,0.132635,0.057811,0.986165
2011-09-26T15:26:15.514765,13360,-1.128110,0.307670,0.330075,0.133389,0.056697,0.987972
2011-09-26T15:26:15.524765,13370,-1.017163,0.284082,0.333068,0.134157,0.055455,0.989935
2011-09-26T15:26:15.534765,13380,-0.906215,0.260494,0.336060,0.134926,0.054213,0.991898
2011-09-26T15:26:15.544765,13390,-0.795268,0.236907,0.339052,0.135695,0.052971,0.993862
2011-09-26T15:26:15.554765,13400,-0.684320,0.213319,0.342044,0.136463,0.051729,0.995825
2011-09-26T15:26:15.564765,13410,-0.573373,0.189731,0.345037,0.137232,0.050487,0.997788
2011-09-26T15:26:15.574765,13420,-0.462425,0.166144,0.348029,0.138001,0.049245,0.999752
2011-09-26T15:26:15.584765,13430,-0.351477,0.142556,0.351021,0.138769,0.048003,1.001715
2011-09-26T15:26:15.594765,13440,-0.240530,0.118968,0.354014,0.139538,0.046761,1.003679
2011-09-26T15:26:15.604765,13450,-0.129582,0.095381,0.357006,0.140307,0.045519,1.005642
2011-09-26T15:26:15.614765,13460,-0.073737,0.070006,0.385483,0.139691,0.042772,1.005905
2011-09-26T15:26:15.624765,13470,-0.021008,0.044530,0.415401,0.138997,0.039941,1.006073
2011-09-26T15:26:15.634765,13480,0.031721,0.019054,0.445320,0.138303,0.037109,1.006241
2011-09-26T15:26:15.644765,13490,0.084451,-0.006421,0.475238,0.137609,0.034277,1.006408
2011-09-26T15:26:15.654765,13500,0.137180,-0.031897,0.505156,0.136916,0.031446,1.006576
2011-09-26T15:26:15.664765,13510,0.189909,-0.057373,0.535074,0.136222,0.028614,1.006743
2011-09-26T15:26:15.674765,13520,0.242638,-0.082849,0.564993,0.135528,0.025783,1.006911
2011-09-26T15:26:15.684765,13530,0.295368,-0.108325,0.594911,0.134834,0.022951,1.007078
2011-09-26T15:26:15.694765,13540,0.348097,-0.133800,0.624829,0.134140,0.020120,1.007246
2011-09-26T15:26:15.704765,13550,0.400826,-0.159276,0.654747,0.133446,0.017288,1.007413
2011-09-26T15:26:15.714765,13560,0.446275,-0.174080,0.666026,0.133264,0.021263,1.003012
2011-09-26T15:26:15.724765,13570,0.491302,-0.188265,0.676225,0.133112,0.025633,0.998346
2011-09-26T15:26:15.734765,13580,0.536328,-0.202451,0.686423,0.132961,0.030002,0.993680
2011-09-26T15:26:15.744765,13590,0.581354,-0.216636,0.696621,0.132809,0.034372,0.989014
2011-09-26T15:26:15.754765,13600,0.626381,-0.230821,0.706819,0.132657,0.038742,0.984348
