pc_time,ts_ms,gyroX,gyroY,gyroZ,accelX,accelY,accelZ
2011-09-26T13:11:15.406628,0,0.160593,0.568425,-2.402900,-0.188989,-0.017384,1.011086
2011-09-26T13:11:15.416628,10,0.124226,0.585795,-2.457088,-0.189065,-0.016053,1.009673
2011-09-26T13:11:15.426628,20,0.087859,0.603164,-2.511275,-0.189140,-0.014723,1.008260
2011-09-26T13:11:15.436628,30,0.051492,0.620533,-2.565463,-0.189216,-0.013392,1.006846
2011-09-26T13:11:15.446628,40,0.015125,0.637902,-2.619651,-0.189291,-0.012061,1.005433
2011-09-26T13:11:15.456628,50,-0.021242,0.655271,-2.673838,-0.189367,-0.010731,1.004020
2011-09-26T13:11:15.466628,60,-0.057609,0.672641,-2.728026,-0.189442,-0.009400,1.002606
2011-09-26T13:11:15.476628,70,-0.093976,0.690010,-2.782214,-0.189518,-0.008070,1.001193
2011-09-26T13:11:15.486628,80,-0.130343,0.707379,-2.836401,-0.189594,-0.006739,0.999780
2011-09-26T13:11:15.496628,90,-0.166711,0.724748,-2.890589,-0.189669,-0.005408,0.998366
2011-09-26T13:11:15.506628,100,-0.203074,0.742126,-2.944782,-0.189745,-0.004079,0.996952
2011-09-26T13:11:15.516628,110,-0.230724,0.781878,-3.012294,-0.190481,-0.005448,0.994713
2011-09-26T13:11:15.526628,120,-0.258374,0.821631,-3.079806,-0.191217,-0.006817,0.992473
2011-09-26T13:11:15.536628,130,-0.286024,0.861383,-3.147317,-0.191952,-0.008187,0.990233
2011-09-26T13:11:15.546628,140,-0.313673,0.901135,-3.214829,-0.192688,-0.009556,0.987994
2011-09-26T13:11:15.556628,150,-0.341323,0.940888,-3.282341,-0.193424,-0.010925,0.985754
2011-09-26T13:11:15.566628,160,-0.368973,0.980640,-3.349853,-0.194160,-0.012294,0.983514
2011-09-26T13:11:15.576628,170,-0.396623,1.020392,-3.417365,-0.194896,-0.013664,0.981275
2011-09-26T13:11:15.586628,180,-0.424273,1.060144,-3.484877,-0.195632,-0.015033,0.979035
2011-09-26T13:11:15.596628,190,-0.451922,1.099897,-3.552389,-0.196367,-0.016402,0.976795
2011-09-26T13:11:15.606628,200,-0.479572,1.139649,-3.619901,-0.197103,-0.017772,0.974555
2011-09-26T13:11:15.616628,210,-0.507005,1.179335,-3.687413,-0.197840,-0.019142,0.972330
2011-09-26T13:11:15.626628,220,-0.464717,1.197664,-3.754917,-0.198955,-0.020851,0.974789
2011-09-26T13:11:15.636628,230,-0.422429,1.215993,-3.822421,-0.200070,-0.022560,0.977247
2011-09-26T13:11:15.646628,240,-0.380141,1.234322,-3.889925,-0.201185,-0.024270,0.979705
2011-09-26T13:11:15.656628,250,-0.337853,1.252651,-3.957429,-0.202300,-0.025979,0.982163
2011-09-26T13:11:15.666628,260,-0.295565,1.270980,-4.024933,-0.203415,-0.027688,0.984622
2011-09-26T13:11:15.676628,270,-0.253277,1.289309,-4.092437,-0.204530,-0.029397,0.987080
2011-09-26T13:11:15.686628,280,-0.210989,1.307638,-4.159941,-0.205645,-0.031107,0.989538
2011-09-26T13:11:15.696628,290,-0.168701,1.325967,-4.227445,-0.206760,-0.032816,0.991996
2011-09-26T13:11:15.706628,300,-0.126413,1.344296,-4.294949,-0.207875,-0.034525,0.994455
2011-09-26T13:11:15.716628,310,-0.084125,1.362625,-4.362453,-0.208990,-0.036234,0.996913
2011-09-26T13:11:15.726628,320,-0.132052,1.380759,-4.437940,-0.209509,-0.035254,0.995420
2011-09-26T13:11:15.736628,330,-0.181764,1.398890,-4.513585,-0.210015,-0.034220,0.993848
2011-09-26T13:11:15.746628,340,-0.231476,1.417021,-4.589229,-0.210521,-0.033186,0.992277
2011-09-26T13:11:15.756628,350,-0.281189,1.435151,-4.664874,-0.211028,-0.032152,0.990705
2011-09-26T13:11:15.766628,360,-0.330901,1.453282,-4.740518,-0.211534,-0.031118,0.989134
2011-09-26T13:11:15.776628,370,-0.380613,1.471413,-4.816163,-0.212040,-0.030084,0.987562
2011-09-26T13:11:15.786628,380,-0.430326,1.489543,-4.891808,-0.212547,-0.029050,0.985991
2011-09-26T13:11:15.796628,390,-0.480038,1.507674,-4.967452,-0.213053,-0.028016,0.984419
2011-09-26T13:11:15.806628,400,-0.529750,1.525805,-5.043097,-0.213559,-0.026982,0.982848
2011-09-26T13:11:15.816628,410,-0.579465,1.543766,-5.118798,-0.214065,-0.025950,0.981278
2011-09-26T13:11:15.826628,420,-0.630780,1.420251,-5.241958,-0.214105,-0.026639,0.981101
2011-09-26T13:11:15.836628,430,-0.682096,1.296736,-5.365118,-0.214146,-0.027329,0.980923
2011-09-26T13:11:15.846628,440,-0.733412,1.173221,-5.488278,-0.214186,-0.028018,0.980745
2011-09-26T13:11:15.856628,450,-0.784727,1.049705,-5.611437,-0.214226,-0.028708,0.980567
2011-09-26T13:11:15.866628,460,-0.836043,0.926190,-5.734597,-0.214266,-0.029397,0.980390
2011-09-26T13:11:15.876628,470,-0.887358,0.802675,-5.857757,-0.214307,-0.030086,0.980212
2011-09-26T13:11:15.886628,480,-0.938674,0.679160,-5.980916,-0.214347,-0.030776,0.980034
2011-09-26T13:11:15.896628,490,-0.989990,0.555645,-6.104076,-0.214387,-0.031465,0.979857
2011-09-26T13:11:15.906628,500,-1.041305,0.432130,-6.227236,-0.214427,-0.032155,0.979679
2011-09-26T13:11:15.916628,510,-1.092621,0.308615,-6.350396,-0.214468,-0.032844,0.979501
2011-09-26T13:11:15.926628,520,-1.143936,0.185100,-6.473555,-0.214508,-0.033533,0.979324
2011-09-26T13:11:15.936628,530,-1.160175,0.110820,-6.588717,-0.213280,-0.036668,0.978115
2011-09-26T13:11:15.946628,540,-1.176406,0.036552,-6.703877,-0.212052,-0.039803,0.976907
2011-09-26T13:11:15.956628,550,-1.192636,-0.037717,-6.819037,-0.210823,-0.042939,0.975698
2011-09-26T13:11:15.966628,560,-1.208867,-0.111985,-6.934196,-0.209595,-0.046074,0.974490
2011-09-26T13:11:15.976628,570,-1.225098,-0.186254,-7.049356,-0.208367,-0.049209,0.973282
2011-09-26T13:11:15.986628,580,-1.241328,-0.260522,-7.164516,-0.207139,-0.052344,0.972073
2011-09-26T13:11:15.996628,590,-1.257559,-0.334791,-7.279676,-0.205910,-0.055479,0.970865
2011-09-26T13:11:16.006628,600,-1.273790,-0.409059,-7.394836,-0.204682,-0.058615,0.969656
2011-09-26T13:11:16.016628,610,-1.290020,-0.483328,-7.509996,-0.203454,-0.061750,0.968448
2011-09-26T13:11:16.026628,620,-1.306197,-0.557614,-7.625148,-0.202226,-0.064885,0.967241
2011-09-26T13:11:16.036628,630,-1.210883,-0.666887,-7.725544,-0.202149,-0.067815,0.968969
2011-09-26T13:11:16.046628,640,-1.115570,-0.776160,-7.825940,-0.202072,-0.070746,0.970698
2011-09-26T13:11:16.056628,650,-1.020257,-0.885434,-7.926336,-0.201995,-0.073676,0.972427
2011-09-26T13:11:16.066628,660,-0.924944,-0.994707,-8.026732,-0.201918,-0.076607,0.974155
2011-09-26T13:11:16.076628,670,-0.829631,-1.103980,-8.127128,-0.201841,-0.079537,0.975884
2011-09-26T13:11:16.086628,680,-0.734318,-1.213254,-8.227524,-0.201764,-0.082468,0.977612
2011-09-26T13:11:16.096628,690,-0.639005,-1.322527,-8.327920,-0.201687,-0.085398,0.979341
2011-09-26T13:11:16.106628,700,-0.543692,-1.431800,-8.428316,-0.201610,-0.088328,0.981070
2011-09-26T13:11:16.116628,710,-0.448378,-1.541074,-8.528712,-0.201533,-0.091259,0.982798
2011-09-26T13:11:16.126628,720,-0.353065,-1.650347,-8.629108,-0.201456,-0.094189,0.984527
2011-09-26T13:11:16.136628,730,-0.351813,-1.589515,-8.767385,-0.199030,-0.093971,0.987802
2011-09-26T13:11:16.146628,740,-0.350939,-1.527998,-8.905815,-0.196594,-0.093740,0.991083
2011-09-26T13:11:16.156628,750,-0.350064,-1.466482,-9.044244,-0.194158,-0.093508,0.994364
2011-09-26T13:11:16.166628,760,-0.349190,-1.404966,-9.182674,-0.191722,-0.093277,0.997646
2011-09-26T13:11:16.176628,770,-0.348316,-1.343449,-9.321104,-0.189286,-0.093046,1.000927
2011-09-26T13:11:16.186628,780,-0.347442,-1.281933,-9.459533,-0.186850,-0.092815,1.004208
2011-09-26T13:11:16.196628,790,-0.346567,-1.220417,-9.597963,-0.184414,-0.092583,1.007489
2011-09-26T13:11:16.206628,800,-0.345693,-1.158900,-9.736393,-0.181978,-0.092352,1.010770
2011-09-26T13:11:16.216628,810,-0.344819,-1.097384,-9.874822,-0.179543,-0.092121,1.014052
2011-09-26T13:11:16.226628,820,-0.343945,-1.035868,-10.013252,-0.177107,-0.091890,1.017333
2011-09-26T13:11:16.236628,830,-0.343070,-0.974351,-10.151682,-0.174671,-0.091659,1.020614
2011-09-26T13:11:16.246628,840,-0.354693,-0.915313,-10.300009,-0.174625,-0.094373,1.021369
2011-09-26T13:11:16.256628,850,-0.366435,-0.856299,-10.448429,-0.174602,-0.097116,1.022101
2011-09-26T13:11:16.266628,860,-0.378176,-0.797284,-10.596850,-0.174579,-0.099859,1.022832
2011-09-26T13:11:16.276628,870,-0.389918,-0.738270,-10.745271,-0.174556,-0.102601,1.023564
2011-09-26T13:11:16.286628,880,-0.401660,-0.679255,-10.893692,-0.174533,-0.105344,1.024295
2011-09-26T13:11:16.296628,890,-0.413401,-0.620241,-11.042113,-0.174510,-0.108086,1.025026
2011-09-26T13:11:16.306628,900,-0.425143,-0.561226,-11.190534,-0.174487,-0.110829,1.025758
2011-09-26T13:11:16.316628,910,-0.436884,-0.502212,-11.338954,-0.174464,-0.113572,1.026489
2011-09-26T13:11:16.326628,920,-0.448626,-0.443198,-11.487375,-0.174441,-0.116314,1.027221
2011-09-26T13:11:16.336628,930,-0.460367,-0.384183,-11.635796,-0.174418,-0.119057,1.027952
2011-09-26T13:11:16.346628,940,-0.372877,-0.358080,-11.769122,-0.174842,-0.119014,1.024451
2011-09-26T13:11:16.356628,950,-0.285387,-0.331977,-11.902448,-0.175267,-0.118971,1.020950
2011-09-26T13:11:16.366628,960,-0.197896,-0.305874,-12.035774,-0.175691,-0.118928,1.017449
2011-09-26T13:11:16.376628,970,-0.110406,-0.279771,-12.169099,-0.176115,-0.118884,1.013948
2011-09-26T13:11:16.386628,980,-0.022916,-0.253668,-12.302425,-0.176539,-0.118841,1.010447
2011-09-26T13:11:16.396628,990,0.064575,-0.227565,-12.435751,-0.176964,-0.118798,1.006946
2011-09-26T13:11:16.406628,1000,0.152065,-0.201463,-12.569077,-0.177388,-0.118755,1.003445
2011-09-26T13:11:16.416628,1010,0.239555,-0.175360,-12.702403,-0.177812,-0.118712,0.999944
2011-09-26T13:11:16.426628,1020,0.327046,-0.149257,-12.835728,-0.178236,-0.118669,0.996443
2011-09-26T13:11:16.436628,1030,0.414536,-0.123154,-12.969054,-0.178660,-0.118625,0.992942
2011-09-26T13:11:16.446628,1040,0.389383,-0.208667,-13.119920,-0.173509,-0.117405,0.993425
2011-09-26T13:11:16.456628,1050,0.363788,-0.294618,-13.270854,-0.168336,-0.116180,0.993923
2011-09-26T13:11:16.466628,1060,0.338192,-0.380569,-13.421789,-0.163163,-0.114954,0.994422
2011-09-26T13:11:16.476628,1070,0.312597,-0.466519,-13.572723,-0.157990,-0.113729,0.994920
2011-09-26T13:11:16.486628,1080,0.287002,-0.552470,-13.723658,-0.152817,-0.112504,0.995418
2011-09-26T13:11:16.496628,1090,0.261407,-0.638421,-13.874592,-0.147644,-0.111278,0.995917
2011-09-26T13:11:16.506628,1100,0.235812,-0.724372,-14.025526,-0.142471,-0.110053,0.996415
2011-09-26T13:11:16.516628,1110,0.210216,-0.810323,-14.176461,-0.137298,-0.108828,0.996914
2011-09-26T13:11:16.526628,1120,0.184621,-0.896274,-14.327395,-0.132125,-0.107603,0.997412
2011-09-26T13:11:16.536628,1130,0.159026,-0.982225,-14.478330,-0.126952,-0.106377,0.997910
2011-09-26T13:11:16.546628,1140,0.133431,-1.068175,-14.629264,-0.121779,-0.105152,0.998409
2011-09-26T13:11:16.556628,1150,0.002462,-1.216147,-14.848347,-0.115389,-0.108982,0.994525
2011-09-26T13:11:16.566628,1160,-0.128738,-1.364256,-15.067580,-0.108996,-0.112823,0.990631
2011-09-26T13:11:16.576628,1170,-0.259939,-1.512365,-15.286813,-0.102603,-0.116664,0.986737
2011-09-26T13:11:16.586628,1180,-0.391139,-1.660473,-15.506046,-0.096211,-0.120505,0.982844
2011-09-26T13:11:16.596628,1190,-0.522340,-1.808582,-15.725279,-0.089818,-0.124347,0.978950
2011-09-26T13:11:16.606628,1200,-0.653541,-1.956690,-15.944512,-0.083425,-0.128188,0.975056
2011-09-26T13:11:16.616628,1210,-0.784741,-2.104799,-16.163745,-0.077032,-0.132029,0.971162
2011-09-26T13:11:16.626628,1220,-0.915942,-2.252907,-16.382978,-0.070639,-0.135870,0.967269
2011-09-26T13:11:16.636628,1230,-1.047142,-2.401016,-16.602211,-0.064247,-0.139711,0.963375
2011-09-26T13:11:16.646628,1240,-1.178343,-2.549125,-16.821444,-0.057854,-0.143552,0.959481
2011-09-26T13:11:16.656628,1250,-1.180014,-2.626422,-16.990395,-0.055645,-0.146776,0.964361
2011-09-26T13:11:16.666628,1260,-1.180914,-2.703298,-17.159047,-0.053461,-0.149996,0.969294
2011-09-26T13:11:16.676628,1270,-1.181815,-2.780174,-17.327700,-0.051278,-0.153215,0.974226
2011-09-26T13:11:16.686628,1280,-1.182716,-2.857050,-17.496352,-0.049094,-0.156435,0.979158
2011-09-26T13:11:16.696628,1290,-1.183616,-2.933926,-17.665004,-0.046910,-0.159655,0.984090
2011-09-26T13:11:16.706628,1300,-1.184517,-3.010802,-17.833657,-0.044726,-0.162875,0.989022
2011-09-26T13:11:16.716628,1310,-1.185418,-3.087678,-18.002309,-0.042542,-0.166095,0.993954
2011-09-26T13:11:16.726628,1320,-1.186319,-3.164554,-18.170961,-0.040358,-0.169314,0.998887
2011-09-26T13:11:16.736628,1330,-1.187219,-3.241430,-18.339614,-0.038175,-0.172534,1.003819
2011-09-26T13:11:16.746628,1340,-1.188120,-3.318306,-18.508266,-0.035991,-0.175754,1.008751
2011-09-26T13:11:16.756628,1350,-1.189021,-3.395183,-18.676918,-0.033807,-0.178974,1.013683
2011-09-26T13:11:16.766628,1360,-1.093447,-3.314976,-18.814473,-0.032741,-0.183217,1.017293
2011-09-26T13:11:16.776628,1370,-0.997242,-3.233742,-18.951825,-0.031683,-0.187466,1.020895
2011-09-26T13:11:16.786628,1380,-0.901038,-3.152508,-19.089177,-0.030625,-0.191716,1.024496
2011-09-26T13:11:16.796628,1390,-0.804834,-3.071274,-19.226529,-0.029566,-0.195966,1.028098
2011-09-26T13:11:16.806628,1400,-0.708629,-2.990040,-19.363881,-0.028508,-0.200215,1.031699
2011-09-26T13:11:16.816628,1410,-0.612425,-2.908807,-19.501233,-0.027450,-0.204465,1.035301
2011-09-26T13:11:16.826628,1420,-0.516220,-2.827573,-19.638585,-0.026391,-0.208714,1.038902
2011-09-26T13:11:16.836628,1430,-0.420016,-2.746339,-19.775937,-0.025333,-0.212964,1.042503
2011-09-26T13:11:16.846628,1440,-0.323812,-2.665105,-19.913289,-0.024275,-0.217214,1.046105
2011-09-26T13:11:16.856628,1450,-0.227607,-2.583871,-20.050640,-0.023216,-0.221463,1.049706
2011-09-26T13:11:16.866628,1460,-0.189829,-2.467391,-20.155358,-0.024254,-0.220119,1.048733
2011-09-26T13:11:16.876628,1470,-0.152350,-2.350730,-20.259909,-0.025302,-0.218746,1.047737
2011-09-26T13:11:16.886628,1480,-0.114872,-2.234069,-20.364459,-0.026350,-0.217373,1.046741
2011-09-26T13:11:16.896628,1490,-0.077393,-2.117407,-20.469009,-0.027398,-0.216001,1.045744
2011-09-26T13:11:16.906628,1500,-0.039915,-2.000746,-20.573560,-0.028446,-0.214628,1.044748
2011-09-26T13:11:16.916628,1510,-0.002436,-1.884085,-20.678110,-0.029494,-0.213255,1.043751
2011-09-26T13:11:16.926628,1520,0.035042,-1.767424,-20.782660,-0.030543,-0.211882,1.042755
2011-09-26T13:11:16.936628,1530,0.072521,-1.650763,-20.887211,-0.031591,-0.210509,1.041759
2011-09-26T13:11:16.946628,1540,0.110000,-1.534101,-20.991761,-0.032639,-0.209136,1.040762
2011-09-26T13:11:16.956628,1550,0.147478,-1.417440,-21.096312,-0.033687,-0.207763,1.039766
2011-09-26T13:11:16.966628,1560,0.146235,-1.430788,-21.192779,-0.033962,-0.208079,1.037471
2011-09-26T13:11:16.976628,1570,0.144714,-1.445066,-21.289189,-0.034231,-0.208408,1.035167
2011-09-26T13:11:16.986628,1580,0.143193,-1.459345,-21.385599,-0.034500,-0.208736,1.032863
2011-09-26T13:11:16.996628,1590,0.141672,-1.473623,-21.482009,-0.034769,-0.209064,1.030559
2011-09-26T13:11:17.006628,1600,0.140152,-1.487901,-21.578418,-0.035038,-0.209392,1.028255
2011-09-26T13:11:17.016628,1610,0.138631,-1.502179,-21.674828,-0.035307,-0.209721,1.025950
2011-09-26T13:11:17.026628,1620,0.137110,-1.516457,-21.771238,-0.035576,-0.210049,1.023646
2011-09-26T13:11:17.036628,1630,0.135590,-1.530736,-21.867648,-0.035845,-0.210377,1.021342
2011-09-26T13:11:17.046628,1640,0.134069,-1.545014,-21.964058,-0.036114,-0.210705,1.019038
2011-09-26T13:11:17.056628,1650,0.132548,-1.559292,-22.060467,-0.036383,-0.211033,1.016734
2011-09-26T13:11:17.066628,1660,0.131028,-1.573570,-22.156877,-0.036652,-0.211362,1.014430
2011-09-26T13:11:17.076628,1670,0.076834,-1.554295,-22.232252,-0.035376,-0.212369,1.016129
2011-09-26T13:11:17.086628,1680,0.022156,-1.534711,-22.307433,-0.034087,-0.213382,1.017865
2011-09-26T13:11:17.096628,1690,-0.032522,-1.515126,-22.382614,-0.032797,-0.214396,1.019601
2011-09-26T13:11:17.106628,1700,-0.087200,-1.495542,-22.457795,-0.031507,-0.215409,1.021337
2011-09-26T13:11:17.116628,1710,-0.141878,-1.475958,-22.532976,-0.030217,-0.216422,1.023073
2011-09-26T13:11:17.126628,1720,-0.196556,-1.456374,-22.608158,-0.028928,-0.217436,1.024809
2011-09-26T13:11:17.136628,1730,-0.251234,-1.436790,-22.683339,-0.027638,-0.218449,1.026545
2011-09-26T13:11:17.146628,1740,-0.305912,-1.417206,-22.758520,-0.026348,-0.219463,1.028281
2011-09-26T13:11:17.156628,1750,-0.360591,-1.397622,-22.833701,-0.025058,-0.220476,1.030017
2011-09-26T13:11:17.166628,1760,-0.415269,-1.378038,-22.908882,-0.023768,-0.221489,1.031753
2011-09-26T13:11:17.176628,1770,-0.369650,-1.296462,-22.936678,-0.024342,-0.223840,1.027856
2011-09-26T13:11:17.186628,1780,-0.323504,-1.214560,-22.964224,-0.024925,-0.226199,1.023928
2011-09-26T13:11:17.196628,1790,-0.277358,-1.132658,-22.991771,-0.025508,-0.228557,1.020001
2011-09-26T13:11:17.206628,1800,-0.231213,-1.050756,-23.019317,-0.026090,-0.230915,1.016074
2011-09-26T13:11:17.216628,1810,-0.185067,-0.968855,-23.046864,-0.026673,-0.233273,1.012146
2011-09-26T13:11:17.226628,1820,-0.138921,-0.886953,-23.074410,-0.027256,-0.235631,1.008219
2011-09-26T13:11:17.236628,1830,-0.092775,-0.805051,-23.101957,-0.027839,-0.237989,1.004292
2011-09-26T13:11:17.246628,1840,-0.046630,-0.723149,-23.129503,-0.028422,-0.240347,1.000364
2011-09-26T13:11:17.256628,1850,-0.000484,-0.641247,-23.157050,-0.029005,-0.242705,0.996437
2011-09-26T13:11:17.266628,1860,0.045662,-0.559346,-23.184596,-0.029588,-0.245063,0.992510
2011-09-26T13:11:17.276628,1870,0.108304,-0.550334,-23.169909,-0.029358,-0.244425,0.993228
2011-09-26T13:11:17.286628,1880,0.171067,-0.541859,-23.154911,-0.029122,-0.243765,0.993980
2011-09-26T13:11:17.296628,1890,0.233831,-0.533384,-23.139913,-0.028886,-0.243106,0.994732
2011-09-26T13:11:17.306628,1900,0.296594,-0.524909,-23.124915,-0.028650,-0.242446,0.995484
2011-09-26T13:11:17.316628,1910,0.359358,-0.516433,-23.109917,-0.028414,-0.241786,0.996236
2011-09-26T13:11:17.326628,1920,0.422121,-0.507958,-23.094919,-0.028178,-0.241126,0.996989
2011-09-26T13:11:17.336628,1930,0.484885,-0.499483,-23.079921,-0.027942,-0.240466,0.997741
2011-09-26T13:11:17.346628,1940,0.547648,-0.491008,-23.064923,-0.027706,-0.239806,0.998493
2011-09-26T13:11:17.356628,1950,0.610412,-0.482532,-23.049925,-0.027470,-0.239146,0.999245
2011-09-26T13:11:17.366628,1960,0.673175,-0.474057,-23.034927,-0.027234,-0.238486,0.999997
2011-09-26T13:11:17.376628,1970,0.735939,-0.465582,-23.019929,-0.026998,-0.237826,1.000750
2011-09-26T13:11:17.386628,1980,0.905628,-0.475581,-23.013853,-0.027562,-0.238583,1.005793
2011-09-26T13:11:17.396628,1990,1.075811,-0.485666,-23.007817,-0.028129,-0.239347,1.010857
2011-09-26T13:11:17.406628,2000,1.245993,-0.495750,-23.001782,-0.028696,-0.240110,1.015921
2011-09-26T13:11:17.416628,2010,1.416176,-0.505835,-22.995747,-0.029263,-0.240874,1.020984
2011-09-26T13:11:17.426628,2020,1.586359,-0.515919,-22.989711,-0.029830,-0.241638,1.026048
2011-09-26T13:11:17.436628,2030,1.756541,-0.526004,-22.983676,-0.030398,-0.242401,1.031112
2011-09-26T13:11:17.446628,2040,1.926724,-0.536089,-22.977641,-0.030965,-0.243165,1.036176
2011-09-26T13:11:17.456628,2050,2.096906,-0.546173,-22.971605,-0.031532,-0.243929,1.041239
2011-09-26T13:11:17.466628,2060,2.267089,-0.556258,-22.965570,-0.032099,-0.244692,1.046303
2011-09-26T13:11:17.476628,2070,2.437271,-0.566342,-22.959535,-0.032666,-0.245456,1.051367
2011-09-26T13:11:17.486628,2080,2.316036,-0.568202,-22.956325,-0.029153,-0.242941,1.045986
2011-09-26T13:11:17.496628,2090,2.194102,-0.570042,-22.953122,-0.025629,-0.240419,1.040581
2011-09-26T13:11:17.506628,2100,2.072167,-0.571882,-22.949920,-0.022106,-0.237896,1.035175
2011-09-26T13:11:17.516628,2110,1.950233,-0.573723,-22.946717,-0.018583,-0.235374,1.029770
2011-09-26T13:11:17.526628,2120,1.828298,-0.575563,-22.943514,-0.015059,-0.232852,1.024365
2011-09-26T13:11:17.536628,2130,1.706364,-0.577403,-22.940312,-0.011536,-0.230329,1.018959
2011-09-26T13:11:17.546628,2140,1.584430,-0.579243,-22.937109,-0.008012,-0.227807,1.013554
2011-09-26T13:11:17.556628,2150,1.462495,-0.581083,-22.933906,-0.004489,-0.225284,1.008148
2011-09-26T13:11:17.566628,2160,1.340561,-0.582924,-22.930704,-0.000966,-0.222762,1.002743
2011-09-26T13:11:17.576628,2170,1.218626,-0.584764,-22.927501,0.002558,-0.220239,0.997338
2011-09-26T13:11:17.586628,2180,1.096692,-0.586604,-22.924298,0.006081,-0.217717,0.991932
2011-09-26T13:11:17.596628,2190,0.997960,-0.622085,-22.972750,0.010762,-0.214014,0.988390
2011-09-26T13:11:17.606628,2200,0.899418,-0.657842,-23.021623,0.015453,-0.210301,0.984862
2011-09-26T13:11:17.616628,2210,0.800876,-0.693598,-23.070496,0.020143,-0.206588,0.981335
2011-09-26T13:11:17.626628,2220,0.702334,-0.729354,-23.119370,0.024834,-0.202875,0.977808
2011-09-26T13:11:17.636628,2230,0.603791,-0.765110,-23.168243,0.029525,-0.199162,0.974281
2011-09-26T13:11:17.646628,2240,0.505249,-0.800867,-23.217116,0.034215,-0.195449,0.970753
2011-09-26T13:11:17.656628,2250,0.406707,-0.836623,-23.265990,0.038906,-0.191736,0.967226
2011-09-26T13:11:17.666628,2260,0.308165,-0.872379,-23.314863,0.043596,-0.188023,0.963699
2011-09-26T13:11:17.676628,2270,0.209623,-0.908136,-23.363736,0.048287,-0.184310,0.960172
2011-09-26T13:11:17.686628,2280,0.111080,-0.943892,-23.412610,0.052977,-0.180597,0.956644
2011-09-26T13:11:17.696628,2290,-0.088659,-0.952067,-23.497577,0.053249,-0.181404,0.960169
2011-09-26T13:11:17.706628,2300,-0.290400,-0.959697,-23.583258,0.053433,-0.182300,0.963834
2011-09-26T13:11:17.716628,2310,-0.492142,-0.967326,-23.668940,0.053618,-0.183196,0.967498
2011-09-26T13:11:17.726628,2320,-0.693884,-0.974956,-23.754621,0.053802,-0.184092,0.971163
2011-09-26T13:11:17.736628,2330,-0.895626,-0.982586,-23.840303,0.053986,-0.184989,0.974827
2011-09-26T13:11:17.746628,2340,-1.097368,-0.990215,-23.925984,0.054171,-0.185885,0.978492
2011-09-26T13:11:17.756628,2350,-1.299110,-0.997845,-24.011666,0.054355,-0.186781,0.982156
2011-09-26T13:11:17.766628,2360,-1.500852,-1.005474,-24.097347,0.054539,-0.187677,0.985820
2011-09-26T13:11:17.776628,2370,-1.702594,-1.013104,-24.183029,0.054723,-0.188573,0.989485
2011-09-26T13:11:17.786628,2380,-1.904336,-1.020734,-24.268710,0.054908,-0.189469,0.993149
2011-09-26T13:11:17.796628,2390,-2.106078,-1.028363,-24.354392,0.055092,-0.190365,0.996814
2011-09-26T13:11:17.806628,2400,-2.255541,-1.022823,-24.433508,0.056177,-0.195049,0.997757
2011-09-26T13:11:17.816628,2410,-2.404509,-1.017158,-24.512562,0.057271,-0.199768,0.998674
2011-09-26T13:11:17.826628,2420,-2.553476,-1.011493,-24.591616,0.058364,-0.204487,0.999591
2011-09-26T13:11:17.836628,2430,-2.702444,-1.005827,-24.670670,0.059458,-0.209206,1.000509
2011-09-26T13:11:17.846628,2440,-2.851411,-1.000162,-24.749724,0.060551,-0.213926,1.001426
2011-09-26T13:11:17.856628,2450,-3.000379,-0.994497,-24.828777,0.061645,-0.218645,1.002343
2011-09-26T13:11:17.866628,2460,-3.149347,-0.988832,-24.907831,0.062738,-0.223364,1.003260
2011-09-26T13:11:17.876628,2470,-3.298314,-0.983166,-24.986885,0.063832,-0.228084,1.004177
2011-09-26T13:11:17.886628,2480,-3.447282,-0.977501,-25.065939,0.064925,-0.232803,1.005095
2011-09-26T13:11:17.896628,2490,-3.596249,-0.971836,-25.144993,0.066019,-0.237522,1.006012
2011-09-26T13:11:17.906628,2500,-3.391506,-0.880870,-25.228825,0.066801,-0.242968,1.011699
2011-09-26T13:11:17.916628,2510,-3.184511,-0.789361,-25.312688,0.067582,-0.248419,1.017416
2011-09-26T13:11:17.926628,2520,-2.977516,-0.697852,-25.396551,0.068363,-0.253870,1.023133
2011-09-26T13:11:17.936628,2530,-2.770522,-0.606343,-25.480414,0.069143,-0.259321,1.028850
2011-09-26T13:11:17.946628,2540,-2.563527,-0.514834,-25.564277,0.069924,-0.264771,1.034567
2011-09-26T13:11:17.956628,2550,-2.356533,-0.423324,-25.648139,0.070704,-0.270222,1.040285
2011-09-26T13:11:17.966628,2560,-2.149538,-0.331815,-25.732002,0.071485,-0.275673,1.046002
2011-09-26T13:11:17.976628,2570,-1.942544,-0.240306,-25.815865,0.072266,-0.281123,1.051719
2011-09-26T13:11:17.986628,2580,-1.735549,-0.148797,-25.899728,0.073046,-0.286574,1.057436
2011-09-26T13:11:17.996628,2590,-1.528555,-0.057288,-25.983591,0.073827,-0.292025,1.063153
2011-09-26T13:11:18.006628,2600,-1.419001,0.112751,-26.107745,0.073684,-0.291417,1.056897
2011-09-26T13:11:18.016628,2610,-1.310471,0.283615,-26.232322,0.073532,-0.290746,1.050516
2011-09-26T13:11:18.026628,2620,-1.201941,0.454479,-26.356899,0.073380,-0.290075,1.044134
2011-09-26T13:11:18.036628,2630,-1.093411,0.625343,-26.481476,0.073228,-0.289404,1.037752
2011-09-26T13:11:18.046628,2640,-0.984881,0.796207,-26.606054,0.073076,-0.288732,1.031371
2011-09-26T13:11:18.056628,2650,-0.876351,0.967071,-26.730631,0.072923,-0.288061,1.024989
2011-09-26T13:11:18.066628,2660,-0.767821,1.137935,-26.855208,0.072771,-0.287390,1.018607
2011-09-26T13:11:18.076628,2670,-0.659291,1.308799,-26.979786,0.072619,-0.286719,1.012225
2011-09-26T13:11:18.086628,2680,-0.550761,1.479664,-27.104363,0.072467,-0.286048,1.005844
2011-09-26T13:11:18.096628,2690,-0.442231,1.650528,-27.228940,0.072314,-0.285376,0.999462
2011-09-26T13:11:18.106628,2700,-0.396621,1.555405,-27.340141,0.071761,-0.284857,0.995671
2011-09-26T13:11:18.116628,2710,-0.351694,1.457400,-27.451197,0.071202,-0.284339,0.991909
2011-09-26T13:11:18.126628,2720,-0.306766,1.359396,-27.562253,0.070644,-0.283821,0.988146
2011-09-26T13:11:18.136628,2730,-0.261838,1.261391,-27.673309,0.070086,-0.283303,0.984384
2011-09-26T13:11:18.146628,2740,-0.216910,1.163387,-27.784366,0.069528,-0.282785,0.980622
2011-09-26T13:11:18.156628,2750,-0.171983,1.065383,-27.895422,0.068970,-0.282268,0.976859
2011-09-26T13:11:18.166628,2760,-0.127055,0.967378,-28.006478,0.068411,-0.281750,0.973097
2011-09-26T13:11:18.176628,2770,-0.082127,0.869374,-28.117534,0.067853,-0.281232,0.969334
2011-09-26T13:11:18.186628,2780,-0.037200,0.771369,-28.228590,0.067295,-0.280714,0.965572
2011-09-26T13:11:18.196628,2790,0.007728,0.673365,-28.339646,0.066737,-0.280196,0.961809
2011-09-26T13:11:18.206628,2800,0.052656,0.575360,-28.450702,0.066179,-0.279678,0.958047
2011-09-26T13:11:18.216628,2810,0.038886,0.493675,-28.498311,0.066582,-0.281648,0.959636
2011-09-26T13:11:18.226628,2820,0.023386,0.412471,-28.544051,0.067013,-0.283692,0.961383
2011-09-26T13:11:18.236628,2830,0.007887,0.331267,-28.589791,0.067444,-0.285735,0.963130
2011-09-26T13:11:18.246628,2840,-0.007612,0.250063,-28.635531,0.067875,-0.287779,0.964877
2011-09-26T13:11:18.256628,2850,-0.023112,0.168858,-28.681271,0.068306,-0.289822,0.966623
2011-09-26T13:11:18.266628,2860,-0.038611,0.087654,-28.727011,0.068738,-0.291865,0.968370
2011-09-26T13:11:18.276628,2870,-0.054110,0.006450,-28.772751,0.069169,-0.293909,0.970117
2011-09-26T13:11:18.286628,2880,-0.069610,-0.074754,-28.818491,0.069600,-0.295952,0.971864
2011-09-26T13:11:18.296628,2890,-0.085109,-0.155959,-28.864231,0.070031,-0.297996,0.973611
2011-09-26T13:11:18.306628,2900,-0.100608,-0.237163,-28.909971,0.070463,-0.300039,0.975358
2011-09-26T13:11:18.316628,2910,-0.186737,-0.204289,-28.953325,0.071323,-0.299230,0.979501
2011-09-26T13:11:18.326628,2920,-0.273784,-0.169933,-28.996649,0.072189,-0.298384,0.983676
2011-09-26T13:11:18.336628,2930,-0.360830,-0.135578,-29.039973,0.073054,-0.297537,0.987851
2011-09-26T13:11:18.346628,2940,-0.447876,-0.101223,-29.083297,0.073920,-0.296691,0.992026
2011-09-26T13:11:18.356628,2950,-0.534922,-0.066867,-29.126621,0.074786,-0.295845,0.996201
2011-09-26T13:11:18.366628,2960,-0.621968,-0.032512,-29.169944,0.075652,-0.294999,1.000375
2011-09-26T13:11:18.376628,2970,-0.709015,0.001844,-29.213268,0.076517,-0.294153,1.004550
2011-09-26T13:11:18.386628,2980,-0.796061,0.036199,-29.256592,0.077383,-0.293306,1.008725
2011-09-26T13:11:18.396628,2990,-0.883107,0.070554,-29.299916,0.078249,-0.292460,1.012900
2011-09-26T13:11:18.406628,3000,-0.970153,0.104910,-29.343240,0.079115,-0.291614,1.017075
2011-09-26T13:11:18.416628,3010,-1.057199,0.139265,-29.386563,0.079980,-0.290768,1.021250
2011-09-26T13:11:18.426628,3020,-1.109672,0.205701,-29.410729,0.079212,-0.293737,1.018559
2011-09-26T13:11:18.436628,3030,-1.161823,0.272435,-29.434717,0.078428,-0.296741,1.015805
2011-09-26T13:11:18.446628,3040,-1.213974,0.339168,-29.458705,0.077645,-0.299745,1.013051
2011-09-26T13:11:18.456628,3050,-1.266125,0.405902,-29.482693,0.076861,-0.302750,1.010297
2011-09-26T13:11:18.466628,3060,-1.318276,0.472636,-29.506681,0.076077,-0.305754,1.007543
2011-09-26T13:11:18.476628,3070,-1.370427,0.539369,-29.530669,0.075294,-0.308758,1.004789
2011-09-26T13:11:18.486628,3080,-1.422578,0.606103,-29.554657,0.074510,-0.311763,1.002034
2011-09-26T13:11:18.496628,3090,-1.474729,0.672837,-29.578645,0.073726,-0.314767,0.999280
2011-09-26T13:11:18.506628,3100,-1.526880,0.739571,-29.602633,0.072943,-0.317771,0.996526
2011-09-26T13:11:18.516628,3110,-1.579031,0.806304,-29.626621,0.072159,-0.320776,0.993772
2011-09-26T13:11:18.526628,3120,-1.571797,0.778819,-29.613752,0.072286,-0.322523,0.993740
2011-09-26T13:11:18.536628,3130,-1.564054,0.750526,-29.600567,0.072421,-0.324260,0.993732
2011-09-26T13:11:18.546628,3140,-1.556311,0.722232,-29.587383,0.072556,-0.325997,0.993724
2011-09-26T13:11:18.556628,3150,-1.548568,0.693939,-29.574198,0.072691,-0.327734,0.993716
2011-09-26T13:11:18.566628,3160,-1.540824,0.665646,-29.561013,0.072826,-0.329470,0.993707
2011-09-26T13:11:18.576628,3170,-1.533081,0.637353,-29.547828,0.072961,-0.331207,0.993699
2011-09-26T13:11:18.586628,3180,-1.525338,0.609060,-29.534643,0.073096,-0.332944,0.993691
2011-09-26T13:11:18.596628,3190,-1.517595,0.580767,-29.521458,0.073231,-0.334681,0.993682
2011-09-26T13:11:18.606628,3200,-1.509852,0.552474,-29.508273,0.073366,-0.336417,0.993674
2011-09-26T13:11:18.616628,3210,-1.502109,0.524181,-29.495088,0.073501,-0.338154,0.993666
2011-09-26T13:11:18.626628,3220,-1.335936,0.512963,-29.524019,0.073159,-0.339902,0.993560
2011-09-26T13:11:18.636628,3230,-1.168374,0.501894,-29.553319,0.072812,-0.341651,0.993454
2011-09-26T13:11:18.646628,3240,-1.000812,0.490825,-29.582619,0.072466,-0.343399,0.993348
2011-09-26T13:11:18.656628,3250,-0.833250,0.479757,-29.611919,0.072119,-0.345148,0.993241
2011-09-26T13:11:18.666628,3260,-0.665688,0.468688,-29.641219,0.071772,-0.346896,0.993135
2011-09-26T13:11:18.676628,3270,-0.498126,0.457620,-29.670519,0.071426,-0.348644,0.993029
2011-09-26T13:11:18.686628,3280,-0.330564,0.446551,-29.699819,0.071079,-0.350393,0.992922
2011-09-26T13:11:18.696628,3290,-0.163002,0.435482,-29.729119,0.070733,-0.352141,0.992816
2011-09-26T13:11:18.706628,3300,0.004560,0.424414,-29.758419,0.070386,-0.353890,0.992710
2011-09-26T13:11:18.716628,3310,0.172122,0.413345,-29.787719,0.070039,-0.355638,0.992603
2011-09-26T13:11:18.726628,3320,0.236587,0.440876,-29.807028,0.070614,-0.354875,0.992541
2011-09-26T13:11:18.736628,3330,0.298646,0.469307,-29.826104,0.071210,-0.354054,0.992480
2011-09-26T13:11:18.746628,3340,0.360706,0.497738,-29.845179,0.071806,-0.353233,0.992419
2011-09-26T13:11:18.756628,3350,0.422765,0.526170,-29.864255,0.072402,-0.352412,0.992357
2011-09-26T13:11:18.766628,3360,0.484824,0.554601,-29.883331,0.072998,-0.351590,0.992296
2011-09-26T13:11:18.776628,3370,0.546884,0.583032,-29.902406,0.073594,-0.350769,0.992235
2011-09-26T13:11:18.786628,3380,0.608943,0.611464,-29.921482,0.074190,-0.349948,0.992174
2011-09-26T13:11:18.796628,3390,0.671002,0.639895,-29.940558,0.074786,-0.349126,0.992112
2011-09-26T13:11:18.806628,3400,0.733062,0.668326,-29.959633,0.075382,-0.348305,0.992051
2011-09-26T13:11:18.816628,3410,0.795121,0.696758,-29.978709,0.075978,-0.347484,0.991990
2011-09-26T13:11:18.826628,3420,0.857180,0.725189,-29.997785,0.076574,-0.346663,0.991929
2011-09-26T13:11:18.836628,3430,0.880955,0.697222,-29.953074,0.076772,-0.345712,0.990827
2011-09-26T13:11:18.846628,3440,0.904370,0.668726,-29.907765,0.076966,-0.344760,0.989716
2011-09-26T13:11:18.856628,3450,0.927785,0.640230,-29.862455,0.077160,-0.343808,0.988605
2011-09-26T13:11:18.866628,3460,0.951200,0.611734,-29.817146,0.077355,-0.342855,0.987494
2011-09-26T13:11:18.876628,3470,0.974615,0.583237,-29.771836,0.077549,-0.341903,0.986383
2011-09-26T13:11:18.886628,3480,0.998030,0.554741,-29.726527,0.077743,-0.340951,0.985272
2011-09-26T13:11:18.896628,3490,1.021445,0.526245,-29.681217,0.077937,-0.339999,0.984161
2011-09-26T13:11:18.906628,3500,1.044860,0.497749,-29.635908,0.078131,-0.339047,0.983049
2011-09-26T13:11:18.916628,3510,1.068275,0.469253,-29.590598,0.078325,-0.338095,0.981938
2011-09-26T13:11:18.926628,3520,1.091690,0.440757,-29.545289,0.078519,-0.337143,0.980827
2011-09-26T13:11:18.936628,3530,1.096233,0.416617,-29.432862,0.079179,-0.336530,0.983991
2011-09-26T13:11:18.946628,3540,1.100545,0.392530,-29.319613,0.079845,-0.335922,0.987208
2011-09-26T13:11:18.956628,3550,1.104857,0.368443,-29.206363,0.080511,-0.335314,0.990424
2011-09-26T13:11:18.966628,3560,1.109169,0.344357,-29.093114,0.081176,-0.334706,0.993640
2011-09-26T13:11:18.976628,3570,1.113481,0.320270,-28.979865,0.081842,-0.334097,0.996857
2011-09-26T13:11:18.986628,3580,1.117793,0.296184,-28.866615,0.082508,-0.333489,1.000073
2011-09-26T13:11:18.996628,3590,1.122105,0.272097,-28.753366,0.083173,-0.332881,1.003290
2011-09-26T13:11:19.006628,3600,1.126417,0.248011,-28.640116,0.083839,-0.332272,1.006506
2011-09-26T13:11:19.016628,3610,1.130729,0.223924,-28.526867,0.084505,-0.331664,1.009722
2011-09-26T13:11:19.026628,3620,1.135041,0.199837,-28.413618,0.085170,-0.331056,1.012939
2011-09-26T13:11:19.036628,3630,1.139353,0.175751,-28.300368,0.085836,-0.330447,1.016155
2011-09-26T13:11:19.046628,3640,1.167680,0.171047,-28.029200,0.086443,-0.330335,1.014881
2011-09-26T13:11:19.056628,3650,1.196264,0.166551,-27.756337,0.087049,-0.330228,1.013559
2011-09-26T13:11:19.066628,3660,1.224849,0.162056,-27.483474,0.087654,-0.330121,1.012237
2011-09-26T13:11:19.076628,3670,1.253433,0.157560,-27.210611,0.088260,-0.330014,1.010915
2011-09-26T13:11:19.086628,3680,1.282018,0.153064,-26.937747,0.088866,-0.329907,1.009592
2011-09-26T13:11:19.096628,3690,1.310602,0.148568,-26.664884,0.089472,-0.329800,1.008270
2011-09-26T13:11:19.106628,3700,1.339187,0.144073,-26.392021,0.090078,-0.329693,1.006948
2011-09-26T13:11:19.116628,3710,1.367771,0.139577,-26.119158,0.090684,-0.329586,1.005626
2011-09-26T13:11:19.126628,3720,1.396356,0.135081,-25.846295,0.091290,-0.329479,1.004304
2011-09-26T13:11:19.136628,3730,1.424940,0.130585,-25.573431,0.091896,-0.329372,1.002981
2011-09-26T13:11:19.146628,3740,1.483879,0.111897,-25.233827,0.093071,-0.325171,1.001425
2011-09-26T13:11:19.156628,3750,1.543258,0.093004,-24.893254,0.094255,-0.320909,0.999865
2011-09-26T13:11:19.166628,3760,1.602637,0.074110,-24.552681,0.095439,-0.316648,0.998305
2011-09-26T13:11:19.176628,3770,1.662015,0.055216,-24.212108,0.096623,-0.312387,0.996745
2011-09-26T13:11:19.186628,3780,1.721394,0.036322,-23.871536,0.097807,-0.308125,0.995186
2011-09-26T13:11:19.196628,3790,1.780773,0.017429,-23.530963,0.098991,-0.303864,0.993626
2011-09-26T13:11:19.206628,3800,1.840152,-0.001465,-23.190390,0.100175,-0.299603,0.992066
2011-09-26T13:11:19.216628,3810,1.899531,-0.020359,-22.849817,0.101359,-0.295342,0.990506
2011-09-26T13:11:19.226628,3820,1.958910,-0.039253,-22.509244,0.102543,-0.291080,0.988946
2011-09-26T13:11:19.236628,3830,2.018289,-0.058146,-22.168671,0.103727,-0.286819,0.987387
2011-09-26T13:11:19.246628,3840,2.019342,-0.108205,-21.863533,0.104797,-0.281123,0.986844
2011-09-26T13:11:19.256628,3850,2.018757,-0.159139,-21.559391,0.105864,-0.275387,0.986329
2011-09-26T13:11:19.266628,3860,2.018172,-0.210072,-21.255249,0.106931,-0.269651,0.985815
2011-09-26T13:11:19.276628,3870,2.017586,-0.261006,-20.951107,0.107998,-0.263915,0.985300
2011-09-26T13:11:19.286628,3880,2.017001,-0.311940,-20.646964,0.109065,-0.258179,0.984786
2011-09-26T13:11:19.296628,3890,2.016416,-0.362874,-20.342822,0.110132,-0.252443,0.984271
2011-09-26T13:11:19.306628,3900,2.015831,-0.413807,-20.038680,0.111199,-0.246707,0.983757
2011-09-26T13:11:19.316628,3910,2.015245,-0.464741,-19.734538,0.112266,-0.240970,0.983242
2011-09-26T13:11:19.326628,3920,2.014660,-0.515675,-19.430395,0.113333,-0.235234,0.982728
2011-09-26T13:11:19.336628,3930,2.014075,-0.566609,-19.126253,0.114400,-0.229498,0.982213
2011-09-26T13:11:19.346628,3940,2.013490,-0.617542,-18.822111,0.115467,-0.223762,0.981699
2011-09-26T13:11:19.356628,3950,1.931882,-0.604940,-18.547009,0.117016,-0.219031,0.983262
2011-09-26T13:11:19.366628,3960,1.849040,-0.591371,-18.272349,0.118572,-0.214315,0.984856
2011-09-26T13:11:19.376628,3970,1.766199,-0.577801,-17.997688,0.120129,-0.209599,0.986450
2011-09-26T13:11:19.386628,3980,1.683358,-0.564232,-17.723028,0.121685,-0.204882,0.988044
2011-09-26T13:11:19.396628,3990,1.600517,-0.550663,-17.448368,0.123242,-0.200166,0.989638
2011-09-26T13:11:19.406628,4000,1.517676,-0.537093,-17.173708,0.124798,-0.195450,0.991233
2011-09-26T13:11:19.416628,4010,1.434835,-0.523524,-16.899048,0.126355,-0.190734,0.992827
2011-09-26T13:11:19.426628,4020,1.351994,-0.509955,-16.624387,0.127911,-0.186018,0.994421
2011-09-26T13:11:19.436628,4030,1.269153,-0.496385,-16.349727,0.129468,-0.181302,0.996015
2011-09-26T13:11:19.446628,4040,1.186312,-0.482816,-16.075067,0.131025,-0.176586,0.997609
2011-09-26T13:11:19.456628,4050,1.103341,-0.445988,-15.826344,0.132036,-0.174436,0.999437
2011-09-26T13:11:19.466628,4060,1.020369,-0.408754,-15.578073,0.133039,-0.172330,1.001268
2011-09-26T13:11:19.476628,4070,0.937396,-0.371521,-15.329801,0.134041,-0.170224,1.003100
2011-09-26T13:11:19.486628,4080,0.854423,-0.334288,-15.081530,0.135044,-0.168118,1.004932
2011-09-26T13:11:19.496628,4090,0.771451,-0.297055,-14.833259,0.136046,-0.166012,1.006763
2011-09-26T13:11:19.506628,4100,0.688478,-0.259821,-14.584987,0.137049,-0.163907,1.008595
2011-09-26T13:11:19.516628,4110,0.605505,-0.222588,-14.336716,0.138051,-0.161801,1.010426
2011-09-26T13:11:19.526628,4120,0.522533,-0.185355,-14.088445,0.139054,-0.159695,1.012258
2011-09-26T13:11:19.536628,4130,0.439560,-0.148122,-13.840173,0.140056,-0.157589,1.014090
2011-09-26T13:11:19.546628,4140,0.356588,-0.110888,-13.591902,0.141058,-0.155483,1.015921
2011-09-26T13:11:19.556628,4150,0.374215,-0.105141,-13.332372,0.141715,-0.154754,1.014780
2011-09-26T13:11:19.566628,4160,0.393365,-0.099870,-13.072671,0.142367,-0.154045,1.013594
2011-09-26T13:11:19.576628,4170,0.412515,-0.094599,-12.812970,0.143019,-0.153336,1.012408
2011-09-26T13:11:19.586628,4180,0.431666,-0.089328,-12.553269,0.143671,-0.152627,1.011222
2011-09-26T13:11:19.596628,4190,0.450816,-0.084056,-12.293568,0.144323,-0.151919,1.010036
2011-09-26T13:11:19.606628,4200,0.469967,-0.078785,-12.033867,0.144975,-0.151210,1.008850
2011-09-26T13:11:19.616628,4210,0.489117,-0.073514,-11.774166,0.145627,-0.150501,1.007664
2011-09-26T13:11:19.626628,4220,0.508268,-0.068243,-11.514465,0.146278,-0.149792,1.006478
2011-09-26T13:11:19.636628,4230,0.527418,-0.062972,-11.254764,0.146930,-0.149084,1.005291
2011-09-26T13:11:19.646628,4240,0.546569,-0.057701,-10.995063,0.147582,-0.148375,1.004105
2011-09-26T13:11:19.656628,4250,0.565719,-0.052430,-10.735362,0.148234,-0.147666,1.002919
2011-09-26T13:11:19.666628,4260,0.649084,-0.069993,-10.481847,0.148842,-0.144385,1.002272
2011-09-26T13:11:19.676628,4270,0.733441,-0.087909,-10.228429,0.149449,-0.141064,1.001634
2011-09-26T13:11:19.686628,4280,0.817798,-0.105825,-9.975010,0.150057,-0.137743,1.000995
2011-09-26T13:11:19.696628,4290,0.902155,-0.123740,-9.721591,0.150664,-0.134422,1.000356
2011-09-26T13:11:19.706628,4300,0.986512,-0.141656,-9.468173,0.151271,-0.131101,0.999718
2011-09-26T13:11:19.716628,4310,1.070869,-0.159572,-9.214754,0.151878,-0.127780,0.999079
2011-09-26T13:11:19.726628,4320,1.155226,-0.177488,-8.961336,0.152486,-0.124459,0.998440
2011-09-26T13:11:19.736628,4330,1.239582,-0.195403,-8.707917,0.153093,-0.121138,0.997802
2011-09-26T13:11:19.746628,4340,1.323939,-0.213319,-8.454498,0.153700,-0.117818,0.997163
2011-09-26T13:11:19.756628,4350,1.408296,-0.231235,-8.201080,0.154308,-0.114497,0.996525
2011-09-26T13:11:19.766628,4360,1.441960,-0.265948,-7.938058,0.155710,-0.110168,0.996228
2011-09-26T13:11:19.776628,4370,1.474667,-0.300977,-7.674856,0.157127,-0.105819,0.995938
2011-09-26T13:11:19.786628,4380,1.507375,-0.336007,-7.411653,0.158545,-0.101471,0.995648
2011-09-26T13:11:19.796628,4390,1.540082,-0.371036,-7.148450,0.159962,-0.097123,0.995358
2011-09-26T13:11:19.806628,4400,1.572790,-0.406066,-6.885248,0.161379,-0.092775,0.995068
2011-09-26T13:11:19.816628,4410,1.605497,-0.441095,-6.622045,0.162796,-0.088427,0.994778
2011-09-26T13:11:19.826628,4420,1.638205,-0.476125,-6.358843,0.164214,-0.084079,0.994488
2011-09-26T13:11:19.836628,4430,1.670912,-0.511154,-6.095640,0.165631,-0.079731,0.994198
2011-09-26T13:11:19.846628,4440,1.703620,-0.546184,-5.832437,0.167048,-0.075383,0.993907
2011-09-26T13:11:19.856628,4450,1.736327,-0.581213,-5.569235,0.168465,-0.071035,0.993617
2011-09-26T13:11:19.866628,4460,1.678415,-0.558300,-5.348675,0.169460,-0.066656,0.993776
2011-09-26T13:11:19.876628,4470,1.619030,-0.534444,-5.128807,0.170447,-0.062277,0.993941
2011-09-26T13:11:19.886628,4480,1.559644,-0.510588,-4.908940,0.171434,-0.057898,0.994107
2011-09-26T13:11:19.896628,4490,1.500259,-0.486733,-4.689073,0.172422,-0.053520,0.994273
2011-09-26T13:11:19.906628,4500,1.440874,-0.462877,-4.469206,0.173409,-0.049141,0.994438
2011-09-26T13:11:19.916628,4510,1.381489,-0.439022,-4.249339,0.174396,-0.044762,0.994604
2011-09-26T13:11:19.926628,4520,1.322104,-0.415166,-4.029472,0.175384,-0.040383,0.994769
2011-09-26T13:11:19.936628,4530,1.262718,-0.391311,-3.809604,0.176371,-0.036004,0.994935
2011-09-26T13:11:19.946628,4540,1.203333,-0.367455,-3.589737,0.177358,-0.031625,0.995101
2011-09-26T13:11:19.956628,4550,1.143948,-0.343600,-3.369870,0.178346,-0.027246,0.995266
2011-09-26T13:11:19.966628,4560,1.084563,-0.319744,-3.150003,0.179333,-0.022867,0.995432
2011-09-26T13:11:19.976628,4570,1.025178,-0.295889,-2.930136,0.180320,-0.018488,0.995597
2011-09-26T13:11:19.986628,4580,1.060887,-0.280758,-2.789874,0.180724,-0.016620,0.998708
2011-09-26T13:11:19.996628,4590,1.098005,-0.265757,-2.650791,0.181119,-0.014789,1.001863
2011-09-26T13:11:20.006628,4600,1.135123,-0.250756,-2.511709,0.181514,-0.012958,1.005018
2011-09-26T13:11:20.016628,4610,1.172241,-0.235756,-2.372627,0.181909,-0.011126,1.008173
2011-09-26T13:11:20.026628,4620,1.209360,-0.220755,-2.233544,0.182304,-0.009295,1.011327
2011-09-26T13:11:20.036628,4630,1.246478,-0.205754,-2.094462,0.182699,-0.007464,1.014482
2011-09-26T13:11:20.046628,4640,1.283596,-0.190753,-1.955380,0.183094,-0.005633,1.017637
2011-09-26T13:11:20.056628,4650,1.320714,-0.175752,-1.816297,0.183489,-0.003802,1.020791
2011-09-26T13:11:20.066628,4660,1.357832,-0.160751,-1.677215,0.183884,-0.001971,1.023946
2011-09-26T13:11:20.076628,4670,1.318350,-0.150410,-1.581957,0.184122,0.000352,1.021551
2011-09-26T13:11:20.086628,4680,1.277456,-0.140155,-1.487507,0.184356,0.002684,1.019053
2011-09-26T13:11:20.096628,4690,1.236561,-0.129900,-1.393057,0.184591,0.005015,1.016555
2011-09-26T13:11:20.106628,4700,1.195667,-0.119645,-1.298607,0.184825,0.007347,1.014058
2011-09-26T13:11:20.116628,4710,1.154773,-0.109390,-1.204157,0.185060,0.009679,1.011560
2011-09-26T13:11:20.126628,4720,1.113879,-0.099135,-1.109707,0.185294,0.012011,1.009063
2011-09-26T13:11:20.136628,4730,1.072985,-0.088880,-1.015257,0.185529,0.014343,1.006565
2011-09-26T13:11:20.146628,4740,1.032091,-0.078625,-0.920806,0.185763,0.016675,1.004068
2011-09-26T13:11:20.156628,4750,0.991197,-0.068370,-0.826356,0.185998,0.019006,1.001570
2011-09-26T13:11:20.166628,4760,0.950303,-0.058115,-0.731906,0.186232,0.021338,0.999073
2011-09-26T13:11:20.176628,4770,0.906504,-0.030748,-0.676785,0.186358,0.022677,0.998654
2011-09-26T13:11:20.186628,4780,0.862649,-0.003051,-0.622422,0.186482,0.023997,0.998276
2011-09-26T13:11:20.196628,4790,0.818794,0.024645,-0.568059,0.186607,0.025316,0.997897
2011-09-26T13:11:20.206628,4800,0.774939,0.052342,-0.513695,0.186731,0.026636,0.997519
2011-09-26T13:11:20.216628,4810,0.731084,0.080038,-0.459332,0.186855,0.027956,0.997141
2011-09-26T13:11:20.226628,4820,0.687229,0.107735,-0.404969,0.186979,0.029275,0.996762
2011-09-26T13:11:20.236628,4830,0.643374,0.135431,-0.350605,0.187103,0.030595,0.996384
2011-09-26T13:11:20.246628,4840,0.599519,0.163128,-0.296242,0.187227,0.031914,0.996005
2011-09-26T13:11:20.256628,4850,0.555664,0.190825,-0.241878,0.187351,0.033234,0.995627
2011-09-26T13:11:20.266628,4860,0.511809,0.218521,-0.187515,0.187475,0.034554,0.995249
2011-09-26T13:11:20.276628,4870,0.503500,0.236210,-0.149805,0.186607,0.033851,0.996099
2011-09-26T13:11:20.286628,4880,0.496001,0.253671,-0.112474,0.185717,0.033102,0.996978
2011-09-26T13:11:20.296628,4890,0.488503,0.271132,-0.075143,0.184826,0.032353,0.997857
2011-09-26T13:11:20.306628,4900,0.481004,0.288593,-0.037813,0.183936,0.031604,0.998736
2011-09-26T13:11:20.316628,4910,0.473505,0.306053,-0.000482,0.183045,0.030855,0.999615
2011-09-26T13:11:20.326628,4920,0.466006,0.323514,0.036849,0.182155,0.030106,1.000494
2011-09-26T13:11:20.336628,4930,0.458508,0.340975,0.074180,0.181264,0.029358,1.001372
2011-09-26T13:11:20.346628,4940,0.451009,0.358436,0.111510,0.180373,0.028609,1.002251
2011-09-26T13:11:20.356628,4950,0.443510,0.375897,0.148841,0.179483,0.027860,1.003130
2011-09-26T13:11:20.366628,4960,0.436012,0.393357,0.186172,0.178592,0.027111,1.004009
2011-09-26T13:11:20.376628,4970,0.428513,0.410818,0.223502,0.177702,0.026362,1.004888
2011-09-26T13:11:20.386628,4980,0.427735,0.410929,0.256957,0.176773,0.027601,1.004600
2011-09-26T13:11:20.396628,4990,0.427129,0.410598,0.290313,0.175844,0.028890,1.004283
2011-09-26T13:11:20.406628,5000,0.426523,0.410266,0.323668,0.174914,0.030180,1.003966
2011-09-26T13:11:20.416628,5010,0.425916,0.409934,0.357024,0.173985,0.031469,1.003649
2011-09-26T13:11:20.426628,5020,0.425310,0.409602,0.390379,0.173055,0.032759,1.003332
2011-09-26T13:11:20.436628,5030,0.424704,0.409271,0.423735,0.172126,0.034048,1.003014
2011-09-26T13:11:20.446628,5040,0.424098,0.408939,0.457091,0.171196,0.035337,1.002697
2011-09-26T13:11:20.456628,5050,0.423492,0.408607,0.490446,0.170267,0.036627,1.002380
2011-09-26T13:11:20.466628,5060,0.422885,0.408275,0.523802,0.169338,0.037916,1.002063
2011-09-26T13:11:20.476628,5070,0.422279,0.407944,0.557157,0.168408,0.039206,1.001745
2011-09-26T13:11:20.486628,5080,0.415756,0.329476,0.557395,0.167904,0.039996,0.999526
2011-09-26T13:11:20.496628,5090,0.409110,0.249381,0.556942,0.167408,0.040776,0.997268
2011-09-26T13:11:20.506628,5100,0.402464,0.169285,0.556490,0.166912,0.041556,0.995009
2011-09-26T13:11:20.516628,5110,0.395818,0.089189,0.556037,0.166416,0.042336,0.992750
2011-09-26T13:11:20.526628,5120,0.389172,0.009094,0.555585,0.165921,0.043116,0.990491
2011-09-26T13:11:20.536628,5130,0.382526,-0.071002,0.555132,0.165425,0.043896,0.988232
2011-09-26T13:11:20.546628,5140,0.375880,-0.151097,0.554679,0.164929,0.044675,0.985974
2011-09-26T13:11:20.556628,5150,0.369234,-0.231193,0.554227,0.164433,0.045455,0.983715
2011-09-26T13:11:20.566628,5160,0.362587,-0.311288,0.553774,0.163938,0.046235,0.981456
2011-09-26T13:11:20.576628,5170,0.355941,-0.391384,0.553322,0.163442,0.047015,0.979197
2011-09-26T13:11:20.586628,5180,0.338089,-0.443981,0.559083,0.163651,0.046244,0.979886
2011-09-26T13:11:20.596628,5190,0.319919,-0.495800,0.565020,0.163880,0.045429,0.980659
2011-09-26T13:11:20.606628,5200,0.301749,-0.547619,0.570957,0.164110,0.044614,0.981431
2011-09-26T13:11:20.616628,5210,0.283580,-0.599437,0.576894,0.164339,0.043799,0.982203
2011-09-26T13:11:20.626628,5220,0.265410,-0.651256,0.582831,0.164568,0.042984,0.982976
2011-09-26T13:11:20.636628,5230,0.247241,-0.703075,0.588768,0.164797,0.042170,0.983748
2011-09-26T13:11:20.646628,5240,0.229071,-0.754894,0.594705,0.165026,0.041355,0.984520
2011-09-26T13:11:20.656628,5250,0.210901,-0.806713,0.600642,0.165255,0.040540,0.985293
2011-09-26T13:11:20.666628,5260,0.192732,-0.858532,0.606579,0.165484,0.039725,0.986065
2011-09-26T13:11:20.676628,5270,0.174562,-0.910351,0.612516,0.165714,0.038910,0.986837
2011-09-26T13:11:20.686628,5280,0.156392,-0.962170,0.618453,0.165943,0.038095,0.987610
2011-09-26T13:11:20.696628,5290,0.205715,-0.885128,0.618097,0.166013,0.038449,0.991966
2011-09-26T13:11:20.706628,5300,0.257181,-0.803992,0.617542,0.166078,0.038840,0.996437
2011-09-26T13:11:20.716628,5310,0.308648,-0.722857,0.616986,0.166144,0.039232,1.000907
2011-09-26T13:11:20.726628,5320,0.360114,-0.641722,0.616431,0.166209,0.039623,1.005378
2011-09-26T13:11:20.736628,5330,0.411580,-0.560587,0.615875,0.166274,0.040014,1.009849
2011-09-26T13:11:20.746628,5340,0.463047,-0.479452,0.615320,0.166339,0.040406,1.014319
2011-09-26T13:11:20.756628,5350,0.514513,-0.398316,0.614764,0.166405,0.040797,1.018790
2011-09-26T13:11:20.766628,5360,0.565980,-0.317181,0.614209,0.166470,0.041188,1.023260
2011-09-26T13:11:20.776628,5370,0.617446,-0.236046,0.613653,0.166535,0.041580,1.027731
2011-09-26T13:11:20.786628,5380,0.668912,-0.154911,0.613098,0.166601,0.041971,1.032201
2011-09-26T13:11:20.796628,5390,0.639573,-0.040268,0.619641,0.165436,0.041575,1.031706
2011-09-26T13:11:20.806628,5400,0.607878,0.075351,0.626392,0.164235,0.041156,1.031067
2011-09-26T13:11:20.816628,5410,0.576183,0.190970,0.633143,0.163034,0.040737,1.030427
2011-09-26T13:11:20.826628,5420,0.544488,0.306590,0.639894,0.161833,0.040318,1.029787
2011-09-26T13:11:20.836628,5430,0.512793,0.422209,0.646644,0.160632,0.039899,1.029147
2011-09-26T13:11:20.846628,5440,0.481098,0.537828,0.653395,0.159432,0.039480,1.028508
2011-09-26T13:11:20.856628,5450,0.449404,0.653447,0.660146,0.158231,0.039061,1.027868
2011-09-26T13:11:20.866628,5460,0.417709,0.769067,0.666897,0.157030,0.038642,1.027228
2011-09-26T13:11:20.876628,5470,0.386014,0.884686,0.673647,0.155829,0.038223,1.026588
2011-09-26T13:11:20.886628,5480,0.354319,1.000305,0.680398,0.154628,0.037804,1.025949
2011-09-26T13:11:20.896628,5490,0.368082,1.017773,0.664063,0.153221,0.039752,1.022352
2011-09-26T13:11:20.906628,5500,0.383044,1.032651,0.647119,0.151808,0.041762,1.018678
2011-09-26T13:11:20.916628,5510,0.398006,1.047529,0.630175,0.150395,0.043772,1.015004
2011-09-26T13:11:20.926628,5520,0.412969,1.062407,0.613231,0.148982,0.045782,1.011330
2011-09-26T13:11:20.936628,5530,0.427931,1.077285,0.596287,0.147569,0.047793,1.007655
2011-09-26T13:11:20.946628,5540,0.442893,1.092163,0.579343,0.146156,0.049803,1.003981
2011-09-26T13:11:20.956628,5550,0.457856,1.107040,0.562399,0.144743,0.051813,1.000307
2011-09-26T13:11:20.966628,5560,0.472818,1.121918,0.545455,0.143330,0.053823,0.996633
2011-09-26T13:11:20.976628,5570,0.487780,1.136796,0.528511,0.141917,0.055833,0.992958
2011-09-26T13:11:20.986628,5580,0.502742,1.151674,0.511567,0.140504,0.057843,0.989284
2011-09-26T13:11:20.996628,5590,0.517705,1.166552,0.494623,0.139091,0.059853,0.985610
2011-09-26T13:11:21.006628,5600,0.438529,1.025554,0.510564,0.139332,0.059171,0.982075
2011-09-26T13:11:21.016628,5610,0.356990,0.880643,0.527330,0.139615,0.058420,0.978544
2011-09-26T13:11:21.026628,5620,0.275452,0.735732,0.544096,0.139897,0.057670,0.975013
2011-09-26T13:11:21.036628,5630,0.193913,0.590820,0.560863,0.140179,0.056919,0.971481
2011-09-26T13:11:21.046628,5640,0.112375,0.445909,0.577629,0.140462,0.056169,0.967950
2011-09-26T13:11:21.056628,5650,0.030836,0.300998,0.594395,0.140744,0.055418,0.964419
2011-09-26T13:11:21.066628,5660,-0.050703,0.156087,0.611161,0.141027,0.054668,0.960887
2011-09-26T13:11:21.076628,5670,-0.132241,0.011176,0.627928,0.141309,0.053917,0.957356
2011-09-26T13:11:21.086628,5680,-0.213780,-0.133735,0.644694,0.141591,0.053167,0.953825
2011-09-26T13:11:21.096628,5690,-0.295319,-0.278646,0.661460,0.141874,0.052416,0.950294
2011-09-26T13:11:21.106628,5700,-0.260896,-0.354233,0.668528,0.141063,0.051947,0.953831
2011-09-26T13:11:21.116628,5710,-0.222947,-0.427712,0.675302,0.140219,0.051486,0.957583
2011-09-26T13:11:21.126628,5720,-0.184998,-0.501190,0.682075,0.139375,0.051025,0.961335
2011-09-26T13:11:21.136628,5730,-0.147049,-0.574668,0.688849,0.138531,0.050565,0.965087
2011-09-26T13:11:21.146628,5740,-0.109099,-0.648147,0.695622,0.137688,0.050104,0.968839
2011-09-26T13:11:21.156628,5750,-0.071150,-0.721625,0.702396,0.136844,0.049643,0.972591
2011-09-26T13:11:21.166628,5760,-0.033201,-0.795103,0.709169,0.136000,0.049182,0.976343
2011-09-26T13:11:21.176628,5770,0.004748,-0.868582,0.715943,0.135156,0.048721,0.980095
2011-09-26T13:11:21.186628,5780,0.042698,-0.942060,0.722716,0.134312,0.048261,0.983847
2011-09-26T13:11:21.196628,5790,0.080647,-1.015538,0.729490,0.133468,0.047800,0.987599
2011-09-26T13:11:21.206628,5800,-0.022906,-1.032208,0.749867,0.133477,0.048579,0.990398
2011-09-26T13:11:21.216628,5810,-0.133411,-1.046087,0.770914,0.133527,0.049418,0.993149
2011-09-26T13:11:21.226628,5820,-0.243915,-1.059966,0.791960,0.133577,0.050258,0.995900
2011-09-26T13:11:21.236628,5830,-0.354419,-1.073844,0.813006,0.133627,0.051098,0.998652
2011-09-26T13:11:21.246628,5840,-0.464924,-1.087723,0.834052,0.133678,0.051937,1.001403
2011-09-26T13:11:21.256628,5850,-0.575428,-1.101602,0.855098,0.133728,0.052777,1.004154
2011-09-26T13:11:21.266628,5860,-0.685933,-1.115481,0.876144,0.133778,0.053617,1.006906
2011-09-26T13:11:21.276628,5870,-0.796437,-1.129360,0.897190,0.133828,0.054456,1.009657
2011-09-26T13:11:21.286628,5880,-0.906941,-1.143238,0.918236,0.133879,0.055296,1.012408
2011-09-26T13:11:21.296628,5890,-1.017446,-1.157117,0.939282,0.133929,0.056136,1.015160
2011-09-26T13:11:21.306628,5900,-1.127950,-1.170996,0.960329,0.133979,0.056975,1.017911
2011-09-26T13:11:21.316628,5910,-1.135705,-1.126784,0.967977,0.132733,0.055839,1.020499
2011-09-26T13:11:21.326628,5920,-1.140877,-1.081112,0.975289,0.131455,0.054652,1.023083
2011-09-26T13:11:21.336628,5930,-1.146050,-1.035441,0.982601,0.130176,0.053466,1.025666
2011-09-26T13:11:21.346628,5940,-1.151222,-0.989769,0.989913,0.128898,0.052280,1.028250
2011-09-26T13:11:21.356628,5950,-1.156395,-0.944097,0.997225,0.127620,0.051094,1.030834
2011-09-26T13:11:21.366628,5960,-1.161567,-0.898426,1.004537,0.126341,0.049908,1.033418
2011-09-26T13:11:21.376628,5970,-1.166740,-0.852754,1.011849,0.125063,0.048721,1.036001
2011-09-26T13:11:21.386628,5980,-1.171913,-0.807082,1.019161,0.123785,0.047535,1.038585
2011-09-26T13:11:21.396628,5990,-1.177085,-0.761411,1.026473,0.122506,0.046349,1.041169
2011-09-26T13:11:21.406628,6000,-1.182258,-0.715739,1.033785,0.121228,0.045163,1.043753
2011-09-26T13:11:21.416628,6010,-1.216973,-0.593203,1.049322,0.119251,0.045013,1.042387
2011-09-26T13:11:21.426628,6020,-1.252622,-0.468240,1.065119,0.117253,0.044896,1.040896
2011-09-26T13:11:21.436628,6030,-1.288270,-0.343277,1.080917,0.115254,0.044779,1.039406
2011-09-26T13:11:21.446628,6040,-1.323919,-0.218314,1.096714,0.113256,0.044662,1.037915
2011-09-26T13:11:21.456628,6050,-1.359567,-0.093350,1.112511,0.111257,0.044545,1.036424
2011-09-26T13:11:21.466628,6060,-1.395216,0.031613,1.128309,0.109258,0.044428,1.034934
2011-09-26T13:11:21.476628,6070,-1.430864,0.156576,1.144106,0.107260,0.044310,1.033443
2011-09-26T13:11:21.486628,6080,-1.466513,0.281539,1.159903,0.105261,0.044193,1.031952
2011-09-26T13:11:21.496628,6090,-1.502161,0.406503,1.175700,0.103263,0.044076,1.030462
2011-09-26T13:11:21.506628,6100,-1.537810,0.531466,1.191498,0.101264,0.043959,1.028971
2011-09-26T13:11:21.516628,6110,-1.573458,0.656429,1.207295,0.099266,0.043842,1.027480
2011-09-26T13:11:21.526628,6120,-1.509981,0.730387,1.207645,0.097682,0.043242,1.024534
2011-09-26T13:11:21.536628,6130,-1.443963,0.803037,1.207600,0.096108,0.042630,1.021551
2011-09-26T13:11:21.546628,6140,-1.377944,0.875687,1.207554,0.094535,0.042018,1.018567
2011-09-26T13:11:21.556628,6150,-1.311926,0.948337,1.207509,0.092962,0.041406,1.015584
2011-09-26T13:11:21.566628,6160,-1.245907,1.020986,1.207463,0.091389,0.040794,1.012601
2011-09-26T13:11:21.576628,6170,-1.179889,1.093636,1.207418,0.089815,0.040181,1.009617
2011-09-26T13:11:21.586628,6180,-1.113870,1.166286,1.207372,0.088242,0.039569,1.006634
2011-09-26T13:11:21.596628,6190,-1.047852,1.238936,1.207326,0.086669,0.038957,1.003650
2011-09-26T13:11:21.606628,6200,-0.981833,1.311586,1.207281,0.085095,0.038345,1.000667
2011-09-26T13:11:21.616628,6210,-0.915815,1.384236,1.207235,0.083522,0.037733,0.997684
2011-09-26T13:11:21.626628,6220,-0.896932,1.395612,1.229552,0.080630,0.038753,0.997531
2011-09-26T13:11:21.636628,6230,-0.879272,1.405398,1.252449,0.077704,0.039815,0.997451
2011-09-26T13:11:21.646628,6240,-0.861613,1.415185,1.275345,0.074778,0.040877,0.997371
2011-09-26T13:11:21.656628,6250,-0.843953,1.424971,1.298242,0.071852,0.041939,0.997292
2011-09-26T13:11:21.666628,6260,-0.826293,1.434757,1.321139,0.068925,0.043001,0.997212
2011-09-26T13:11:21.676628,6270,-0.808634,1.444543,1.344036,0.065999,0.044064,0.997132
2011-09-26T13:11:21.686628,6280,-0.790974,1.454329,1.366933,0.063073,0.045126,0.997053
2011-09-26T13:11:21.696628,6290,-0.773314,1.464115,1.389829,0.060147,0.046188,0.996973
2011-09-26T13:11:21.706628,6300,-0.755655,1.473902,1.412726,0.057220,0.047250,0.996894
2011-09-26T13:11:21.716628,6310,-0.737995,1.483688,1.435623,0.054294,0.048313,0.996814
2011-09-26T13:11:21.726628,6320,-0.636581,1.438302,1.435232,0.054574,0.046865,0.995836
2011-09-26T13:11:21.736628,6330,-0.530329,1.389730,1.433496,0.055039,0.045272,0.994806
2011-09-26T13:11:21.746628,6340,-0.424077,1.341157,1.431760,0.055504,0.043680,0.993777
2011-09-26T13:11:21.756628,6350,-0.317825,1.292585,1.430024,0.055968,0.042087,0.992747
2011-09-26T13:11:21.766628,6360,-0.211573,1.244012,1.428288,0.056433,0.040494,0.991717
2011-09-26T13:11:21.776628,6370,-0.105321,1.195440,1.426552,0.056898,0.038902,0.990687
2011-09-26T13:11:21.786628,6380,0.000931,1.146867,1.424816,0.057363,0.037309,0.989658
2011-09-26T13:11:21.796628,6390,0.107183,1.098295,1.423080,0.057828,0.035716,0.988628
2011-09-26T13:11:21.806628,6400,0.213435,1.049722,1.421344,0.058293,0.034124,0.987598
2011-09-26T13:11:21.816628,6410,0.319687,1.001150,1.419608,0.058757,0.032531,0.986569
2011-09-26T13:11:21.826628,6420,0.425939,0.952577,1.417872,0.059222,0.030938,0.985539
2011-09-26T13:11:21.836628,6430,0.462563,0.926808,1.432455,0.057783,0.031501,0.985144
2011-09-26T13:11:21.846628,6440,0.497013,0.901750,1.447548,0.056284,0.032131,0.984768
2011-09-26T13:11:21.856628,6450,0.531462,0.876693,1.462641,0.054785,0.032762,0.984393
2011-09-26T13:11:21.866628,6460,0.565911,0.851635,1.477733,0.053286,0.033392,0.984017
2011-09-26T13:11:21.876628,6470,0.600361,0.826578,1.492826,0.051787,0.034022,0.983641
2011-09-26T13:11:21.886628,6480,0.634810,0.801521,1.507919,0.050288,0.034652,0.983266
2011-09-26T13:11:21.896628,6490,0.669259,0.776463,1.523011,0.048789,0.035282,0.982890
2011-09-26T13:11:21.906628,6500,0.703709,0.751406,1.538104,0.047290,0.035912,0.982515
2011-09-26T13:11:21.916628,6510,0.738158,0.726348,1.553197,0.045791,0.036543,0.982139
2011-09-26T13:11:21.926628,6520,0.772607,0.701291,1.568289,0.044292,0.037173,0.981764
2011-09-26T13:11:21.936628,6530,0.755475,0.623537,1.571905,0.042806,0.039521,0.981677
2011-09-26T13:11:21.946628,6540,0.736731,0.544135,1.575161,0.041319,0.041923,0.981598
2011-09-26T13:11:21.956628,6550,0.717986,0.464734,1.578418,0.039833,0.044325,0.981520
2011-09-26T13:11:21.966628,6560,0.699242,0.385333,1.581675,0.038347,0.046727,0.981442
2011-09-26T13:11:21.976628,6570,0.680498,0.305932,1.584932,0.036861,0.049129,0.981364
2011-09-26T13:11:21.986628,6580,0.661754,0.226531,1.588188,0.035374,0.051531,0.981285
2011-09-26T13:11:21.996628,6590,0.643010,0.147130,1.591445,0.033888,0.053933,0.981207
2011-09-26T13:11:22.006628,6600,0.624266,0.067729,1.594702,0.032402,0.056335,0.981129
2011-09-26T13:11:22.016628,6610,0.605521,-0.011672,1.597958,0.030915,0.058737,0.981051
2011-09-26T13:11:22.026628,6620,0.586777,-0.091073,1.601215,0.029429,0.061139,0.980973
2011-09-26T13:11:22.036628,6630,0.674599,-0.197865,1.606074,0.029376,0.059464,0.981991
2011-09-26T13:11:22.046628,6640,0.765841,-0.305536,1.610985,0.029369,0.057657,0.983046
2011-09-26T13:11:22.056628,6650,0.857084,-0.413208,1.615895,0.029361,0.055851,0.984100
2011-09-26T13:11:22.066628,6660,0.948326,-0.520879,1.620806,0.029354,0.054044,0.985154
2011-09-26T13:11:22.076628,6670,1.039569,-0.628550,1.625716,0.029347,0.052238,0.986208
2011-09-26T13:11:22.086628,6680,1.130811,-0.736221,1.630627,0.029340,0.050431,0.987262
2011-09-26T13:11:22.096628,6690,1.222054,-0.843892,1.635537,0.029333,0.048625,0.988317
2011-09-26T13:11:22.106628,6700,1.313296,-0.951564,1.640448,0.029325,0.046818,0.989371
2011-09-26T13:11:22.116628,6710,1.404539,-1.059235,1.645358,0.029318,0.045012,0.990425
2011-09-26T13:11:22.126628,6720,1.495781,-1.166906,1.650269,0.029311,0.043205,0.991479
2011-09-26T13:11:22.136628,6730,1.587024,-1.274577,1.655179,0.029304,0.041399,0.992533
2011-09-26T13:11:22.146628,6740,1.554935,-1.224960,1.656927,0.031239,0.044188,0.997245
2011-09-26T13:11:22.156628,6750,1.518819,-1.170207,1.658571,0.033238,0.047127,1.002076
2011-09-26T13:11:22.166628,6760,1.482704,-1.115455,1.660215,0.035236,0.050067,1.006906
2011-09-26T13:11:22.176628,6770,1.446588,-1.060702,1.661859,0.037235,0.053006,1.011737
2011-09-26T13:11:22.186628,6780,1.410473,-1.005949,1.663503,0.039234,0.055946,1.016568
2011-09-26T13:11:22.196628,6790,1.374357,-0.951197,1.665148,0.041233,0.058885,1.021399
2011-09-26T13:11:22.206628,6800,1.338242,-0.896444,1.666792,0.043231,0.061824,1.026230
2011-09-26T13:11:22.216628,6810,1.302126,-0.841691,1.668436,0.045230,0.064764,1.031061
2011-09-26T13:11:22.226628,6820,1.266011,-0.786939,1.670080,0.047229,0.067703,1.035891
2011-09-26T13:11:22.236628,6830,1.229895,-0.732186,1.671724,0.049228,0.070643,1.040722
2011-09-26T13:11:22.246628,6840,1.087633,-0.513885,1.643463,0.049917,0.070471,1.042352
2011-09-26T13:11:22.256628,6850,0.939346,-0.286302,1.613504,0.050531,0.070123,1.043799
2011-09-26T13:11:22.266628,6860,0.791059,-0.058719,1.583545,0.051146,0.069776,1.045247
2011-09-26T13:11:22.276628,6870,0.642772,0.168865,1.553585,0.051760,0.069428,1.046694
2011-09-26T13:11:22.286628,6880,0.494485,0.396448,1.523626,0.052375,0.069080,1.048142
2011-09-26T13:11:22.296628,6890,0.346198,0.624032,1.493667,0.052989,0.068732,1.049589
2011-09-26T13:11:22.306628,6900,0.197911,0.851615,1.463708,0.053604,0.068384,1.051037
2011-09-26T13:11:22.316628,6910,0.049624,1.079199,1.433749,0.054219,0.068036,1.052484
2011-09-26T13:11:22.326628,6920,-0.098663,1.306782,1.403790,0.054833,0.067689,1.053932
2011-09-26T13:11:22.336628,6930,-0.246950,1.534366,1.373831,0.055448,0.067341,1.055379
2011-09-26T13:11:22.346628,6940,-0.185801,1.695589,1.354688,0.053729,0.065969,1.047234
2011-09-26T13:11:22.356628,6950,-0.118147,1.854750,1.335882,0.051938,0.064566,1.038790
2011-09-26T13:11:22.366628,6960,-0.050493,2.013912,1.317076,0.050148,0.063162,1.030347
2011-09-26T13:11:22.376628,6970,0.017162,2.173073,1.298269,0.048357,0.061759,1.021903
2011-09-26T13:11:22.386628,6980,0.084816,2.332235,1.279463,0.046566,0.060355,1.013460
2011-09-26T13:11:22.396628,6990,0.152471,2.491397,1.260656,0.044775,0.058952,1.005016
2011-09-26T13:11:22.406628,7000,0.220125,2.650558,1.241850,0.042984,0.057548,0.996572
2011-09-26T13:11:22.416628,7010,0.287779,2.809720,1.223043,0.041193,0.056145,0.988129
2011-09-26T13:11:22.426628,7020,0.355434,2.968881,1.204237,0.039402,0.054741,0.979685
2011-09-26T13:11:22.436628,7030,0.423088,3.128043,1.185431,0.037611,0.053338,0.971242
2011-09-26T13:11:22.446628,7040,0.490742,3.287204,1.166624,0.035821,0.051934,0.962798
2011-09-26T13:11:22.456628,7050,0.499307,3.206771,1.136690,0.034297,0.054302,0.961841
2011-09-26T13:11:22.466628,7060,0.505855,3.118160,1.106376,0.032783,0.056799,0.961140
2011-09-26T13:11:22.476628,7070,0.512402,3.029548,1.076061,0.031268,0.059296,0.960439
2011-09-26T13:11:22.486628,7080,0.518950,2.940937,1.045747,0.029754,0.061792,0.959738
2011-09-26T13:11:22.496628,7090,0.525498,2.852326,1.015433,0.028239,0.064289,0.959036
2011-09-26T13:11:22.506628,7100,0.532045,2.763714,0.985119,0.026725,0.066786,0.958335
2011-09-26T13:11:22.516628,7110,0.538593,2.675103,0.954805,0.025211,0.069283,0.957634
2011-09-26T13:11:22.526628,7120,0.545140,2.586491,0.924491,0.023696,0.071779,0.956933
2011-09-26T13:11:22.536628,7130,0.551688,2.497880,0.894176,0.022182,0.074276,0.956231
2011-09-26T13:11:22.546628,7140,0.558236,2.409268,0.863862,0.020667,0.076773,0.955530
2011-09-26T13:11:22.556628,7150,0.524166,2.132974,0.841972,0.019926,0.071036,0.944377
2011-09-26T13:11:22.566628,7160,0.488761,1.850512,0.820358,0.019210,0.065028,0.932881
2011-09-26T13:11:22.576628,7170,0.453357,1.568051,0.798745,0.018494,0.059020,0.921385
2011-09-26T13:11:22.586628,7180,0.417952,1.285589,0.777131,0.017778,0.053013,0.909888
2011-09-26T13:11:22.596628,7190,0.382548,1.003128,0.755517,0.017062,0.047005,0.898392
2011-09-26T13:11:22.606628,7200,0.347144,0.720666,0.733904,0.016346,0.040998,0.886896
2011-09-26T13:11:22.616628,7210,0.311739,0.438205,0.712290,0.015630,0.034990,0.875400
2011-09-26T13:11:22.626628,7220,0.276335,0.155744,0.690676,0.014913,0.028982,0.863903
2011-09-26T13:11:22.636628,7230,0.240930,-0.126718,0.669063,0.014197,0.022975,0.852407
2011-09-26T13:11:22.646628,7240,0.205526,-0.409179,0.647449,0.013481,0.016967,0.840911
2011-09-26T13:11:22.656628,7250,0.194281,-0.726466,0.645393,0.013835,0.019940,0.857783
2011-09-26T13:11:22.666628,7260,0.183887,-1.044979,0.644025,0.014226,0.023229,0.875653
2011-09-26T13:11:22.676628,7270,0.173493,-1.363491,0.642657,0.014616,0.026519,0.893523
2011-09-26T13:11:22.686628,7280,0.163099,-1.682003,0.641289,0.015007,0.029808,0.911393
2011-09-26T13:11:22.696628,7290,0.152704,-2.000515,0.639921,0.015398,0.033097,0.929263
2011-09-26T13:11:22.706628,7300,0.142310,-2.319028,0.638553,0.015789,0.036386,0.947133
2011-09-26T13:11:22.716628,7310,0.131916,-2.637540,0.637186,0.016180,0.039675,0.965003
2011-09-26T13:11:22.726628,7320,0.121521,-2.956052,0.635818,0.016571,0.042965,0.982873
2011-09-26T13:11:22.736628,7330,0.111127,-3.274564,0.634450,0.016962,0.046254,1.000743
2011-09-26T13:11:22.746628,7340,0.100733,-3.593077,0.633082,0.017353,0.049543,1.018613
2011-09-26T13:11:22.756628,7350,0.090338,-3.911589,0.631714,0.017744,0.052832,1.036483
2011-09-26T13:11:22.766628,7360,0.012919,-3.798167,0.601170,0.021776,0.051764,1.044358
2011-09-26T13:11:22.776628,7370,-0.067228,-3.667164,0.569440,0.025956,0.050518,1.051826
2011-09-26T13:11:22.786628,7380,-0.147376,-3.536160,0.537709,0.030136,0.049272,1.059294
2011-09-26T13:11:22.796628,7390,-0.227523,-3.405157,0.505978,0.034316,0.048026,1.066762
2011-09-26T13:11:22.806628,7400,-0.307670,-3.274154,0.474247,0.038496,0.046780,1.074230
2011-09-26T13:11:22.816628,7410,-0.387817,-3.143150,0.442516,0.042677,0.045534,1.081699
2011-09-26T13:11:22.826628,7420,-0.467965,-3.012147,0.410786,0.046857,0.044288,1.089167
2011-09-26T13:11:22.836628,7430,-0.548112,-2.881144,0.379055,0.051037,0.043042,1.096635
2011-09-26T13:11:22.846628,7440,-0.628259,-2.750141,0.347324,0.055217,0.041796,1.104103
2011-09-26T13:11:22.856628,7450,-0.708407,-2.619137,0.315593,0.059397,0.040550,1.111571
2011-09-26T13:11:22.866628,7460,-0.721896,-2.386609,0.293001,0.058705,0.038587,1.106046
2011-09-26T13:11:22.876628,7470,-0.733067,-2.150548,0.270728,0.057844,0.036599,1.100069
2011-09-26T13:11:22.886628,7480,-0.744238,-1.914487,0.248454,0.056982,0.034611,1.094092
2011-09-26T13:11:22.896628,7490,-0.755408,-1.678427,0.226180,0.056121,0.032622,1.088115
2011-09-26T13:11:22.906628,7500,-0.766579,-1.442366,0.203906,0.055259,0.030634,1.082138
2011-09-26T13:11:22.916628,7510,-0.777750,-1.206306,0.181633,0.054398,0.028646,1.076161
2011-09-26T13:11:22.926628,7520,-0.788920,-0.970245,0.159359,0.053536,0.026658,1.070184
2011-09-26T13:11:22.936628,7530,-0.800091,-0.734185,0.137085,0.052675,0.024670,1.064207
2011-09-26T13:11:22.946628,7540,-0.811262,-0.498124,0.114812,0.051813,0.022682,1.058229
2011-09-26T13:11:22.956628,7550,-0.822432,-0.262064,0.092538,0.050952,0.020694,1.052252
2011-09-26T13:11:22.966628,7560,-0.833603,-0.026003,0.070264,0.050090,0.018706,1.046275
2011-09-26T13:11:22.976628,7570,-0.790642,0.113349,0.032145,0.049657,0.019794,1.042519
2011-09-26T13:11:22.986628,7580,-0.745681,0.249129,-0.006560,0.049239,0.020996,1.038845
2011-09-26T13:11:22.996628,7590,-0.700721,0.384909,-0.045265,0.048822,0.022198,1.035171
2011-09-26T13:11:23.006628,7600,-0.655760,0.520690,-0.083969,0.048405,0.023400,1.031496
2011-09-26T13:11:23.016628,7610,-0.610799,0.656470,-0.122674,0.047987,0.024603,1.027822
2011-09-26T13:11:23.026628,7620,-0.565839,0.792250,-0.161378,0.047570,0.025805,1.024148
2011-09-26T13:11:23.036628,7630,-0.520878,0.928030,-0.200083,0.047152,0.027007,1.020474
2011-09-26T13:11:23.046628,7640,-0.475917,1.063810,-0.238788,0.046735,0.028209,1.016800
2011-09-26T13:11:23.056628,7650,-0.430957,1.199591,-0.277492,0.046317,0.029411,1.013125
2011-09-26T13:11:23.066628,7660,-0.385996,1.335371,-0.316197,0.045900,0.030613,1.009451
2011-09-26T13:11:23.076628,7670,-0.399227,1.327600,-0.324067,0.045426,0.030147,1.005042
2011-09-26T13:11:23.086628,7680,-0.414657,1.314407,-0.330773,0.044950,0.029619,1.000605
2011-09-26T13:11:23.096628,7690,-0.430087,1.301214,-0.337478,0.044474,0.029090,0.996168
2011-09-26T13:11:23.106628,7700,-0.445517,1.288020,-0.344184,0.043998,0.028561,0.991731
2011-09-26T13:11:23.116628,7710,-0.460947,1.274827,-0.350889,0.043522,0.028032,0.987295
2011-09-26T13:11:23.126628,7720,-0.476377,1.261634,-0.357595,0.043046,0.027503,0.982858
2011-09-26T13:11:23.136628,7730,-0.491806,1.248440,-0.364300,0.042570,0.026975,0.978421
2011-09-26T13:11:23.146628,7740,-0.507236,1.235247,-0.371006,0.042094,0.026446,0.973984
2011-09-26T13:11:23.156628,7750,-0.522666,1.222054,-0.377711,0.041618,0.025917,0.969547
2011-09-26T13:11:23.166628,7760,-0.538096,1.208861,-0.384417,0.041143,0.025388,0.965110
2011-09-26T13:11:23.176628,7770,-0.466311,1.095778,-0.385178,0.041089,0.024403,0.965855
2011-09-26T13:11:23.186628,7780,-0.391419,0.979136,-0.385727,0.041051,0.023401,0.966785
2011-09-26T13:11:23.196628,7790,-0.316528,0.862494,-0.386276,0.041013,0.022399,0.967715
2011-09-26T13:11:23.206628,7800,-0.241636,0.745853,-0.386825,0.040975,0.021397,0.968645
2011-09-26T13:11:23.216628,7810,-0.166744,0.629211,-0.387375,0.040936,0.020395,0.969575
2011-09-26T13:11:23.226628,7820,-0.091852,0.512570,-0.387924,0.040898,0.019394,0.970505
2011-09-26T13:11:23.236628,7830,-0.016960,0.395928,-0.388473,0.040860,0.018392,0.971435
2011-09-26T13:11:23.246628,7840,0.057931,0.279287,-0.389022,0.040822,0.017390,0.972365
2011-09-26T13:11:23.256628,7850,0.132823,0.162645,-0.389571,0.040784,0.016388,0.973295
2011-09-26T13:11:23.266628,7860,0.207715,0.046004,-0.390120,0.040745,0.015386,0.974225
2011-09-26T13:11:23.276628,7870,0.282607,-0.070638,-0.390670,0.040707,0.014385,0.975155
2011-09-26T13:11:23.286628,7880,0.285496,-0.093253,-0.381133,0.042717,0.015815,0.976744
2011-09-26T13:11:23.296628,7890,0.285579,-0.112205,-0.371203,0.044807,0.017340,0.978360
2011-09-26T13:11:23.306628,7900,0.285663,-0.131157,-0.361273,0.046897,0.018865,0.979976
2011-09-26T13:11:23.316628,7910,0.285746,-0.150109,-0.351344,0.048986,0.020390,0.981591
2011-09-26T13:11:23.326628,7920,0.285830,-0.169061,-0.341414,0.051076,0.021916,0.983207
2011-09-26T13:11:23.336628,7930,0.285913,-0.188013,-0.331484,0.053166,0.023441,0.984822
2011-09-26T13:11:23.346628,7940,0.285997,-0.206965,-0.321554,0.055256,0.024966,0.986438
2011-09-26T13:11:23.356628,7950,0.286080,-0.225917,-0.311625,0.057345,0.026491,0.988053
2011-09-26T13:11:23.366628,7960,0.286164,-0.244869,-0.301695,0.059435,0.028016,0.989669
2011-09-26T13:11:23.376628,7970,0.286248,-0.263821,-0.291765,0.061525,0.029542,0.991284
2011-09-26T13:11:23.386628,7980,0.296259,-0.186377,-0.298818,0.061276,0.029209,0.994838
2011-09-26T13:11:23.396628,7990,0.306610,-0.105631,-0.306453,0.060947,0.028812,0.998458
2011-09-26T13:11:23.406628,8000,0.316962,-0.024886,-0.314087,0.060618,0.028416,1.002077
2011-09-26T13:11:23.416628,8010,0.327313,0.055859,-0.321722,0.060290,0.028020,1.005697
2011-09-26T13:11:23.426628,8020,0.337664,0.136604,-0.329357,0.059961,0.027623,1.009317
2011-09-26T13:11:23.436628,8030,0.348016,0.217350,-0.336991,0.059632,0.027227,1.012937
2011-09-26T13:11:23.446628,8040,0.358367,0.298095,-0.344626,0.059303,0.026830,1.016557
2011-09-26T13:11:23.456628,8050,0.368718,0.378840,-0.352260,0.058974,0.026434,1.020177
2011-09-26T13:11:23.466628,8060,0.379069,0.459585,-0.359895,0.058646,0.026038,1.023796
2011-09-26T13:11:23.476628,8070,0.389421,0.540331,-0.367530,0.058317,0.025641,1.027416
2011-09-26T13:11:23.486628,8080,0.385944,0.538600,-0.366531,0.057908,0.026131,1.022209
2011-09-26T13:11:23.496628,8090,0.381983,0.533985,-0.365231,0.057495,0.026652,1.016693
2011-09-26T13:11:23.506628,8100,0.378022,0.529370,-0.363931,0.057083,0.027172,1.011177
2011-09-26T13:11:23.516628,8110,0.374062,0.524755,-0.362631,0.056671,0.027693,1.005661
2011-09-26T13:11:23.526628,8120,0.370101,0.520140,-0.361330,0.056259,0.028213,1.000145
2011-09-26T13:11:23.536628,8130,0.366141,0.515525,-0.360030,0.055846,0.028734,0.994629
2011-09-26T13:11:23.546628,8140,0.362180,0.510910,-0.358730,0.055434,0.029255,0.989113
2011-09-26T13:11:23.556628,8150,0.358219,0.506295,-0.357430,0.055022,0.029775,0.983597
2011-09-26T13:11:23.566628,8160,0.354259,0.501680,-0.356130,0.054610,0.030296,0.978081
2011-09-26T13:11:23.576628,8170,0.350298,0.497065,-0.354830,0.054198,0.030817,0.972565
2011-09-26T13:11:23.586628,8180,0.346337,0.492451,-0.353529,0.053785,0.031337,0.967049
2011-09-26T13:11:23.596628,8190,0.315308,0.467960,-0.361095,0.054989,0.030714,0.969286
2011-09-26T13:11:23.606628,8200,0.283251,0.442714,-0.368998,0.056254,0.030047,0.971816
2011-09-26T13:11:23.616628,8210,0.251194,0.417469,-0.376901,0.057519,0.029380,0.974347
2011-09-26T13:11:23.626628,8220,0.219137,0.392223,-0.384804,0.058785,0.028713,0.976878
2011-09-26T13:11:23.636628,8230,0.187079,0.366977,-0.392706,0.060050,0.028047,0.979409
2011-09-26T13:11:23.646628,8240,0.155022,0.341732,-0.400609,0.061315,0.027380,0.981939
2011-09-26T13:11:23.656628,8250,0.122965,0.316486,-0.408512,0.062580,0.026713,0.984470
2011-09-26T13:11:23.666628,8260,0.090908,0.291240,-0.416415,0.063845,0.026046,0.987001
2011-09-26T13:11:23.676628,8270,0.058850,0.265995,-0.424317,0.065110,0.025379,0.989532
2011-09-26T13:11:23.686628,8280,0.026793,0.240749,-0.432220,0.066376,0.024712,0.992063
2011-09-26T13:11:23.696628,8290,0.119802,0.407169,-0.436770,0.067430,0.023809,0.994221
2011-09-26T13:11:23.706628,8300,0.219421,0.583718,-0.441143,0.068474,0.022893,0.996360
2011-09-26T13:11:23.716628,8310,0.319040,0.760267,-0.445515,0.069517,0.021977,0.998499
2011-09-26T13:11:23.726628,8320,0.418659,0.936816,-0.449888,0.070560,0.021062,1.000637
2011-09-26T13:11:23.736628,8330,0.518278,1.113365,-0.454261,0.071604,0.020146,1.002776
2011-09-26T13:11:23.746628,8340,0.617896,1.289914,-0.458633,0.072647,0.019230,1.004915
2011-09-26T13:11:23.756628,8350,0.717515,1.466463,-0.463006,0.073691,0.018314,1.007053
2011-09-26T13:11:23.766628,8360,0.817134,1.643012,-0.467379,0.074734,0.017398,1.009192
2011-09-26T13:11:23.776628,8370,0.916753,1.819561,-0.471752,0.075777,0.016482,1.011331
2011-09-26T13:11:23.786628,8380,1.016372,1.996110,-0.476124,0.076821,0.015567,1.013470
2011-09-26T13:11:23.796628,8390,1.069594,2.107715,-0.482142,0.075212,0.016242,1.008664
2011-09-26T13:11:23.806628,8400,1.120772,2.216458,-0.488232,0.073487,0.016987,1.003552
2011-09-26T13:11:23.816628,8410,1.171950,2.325200,-0.494323,0.071762,0.017733,0.998440
2011-09-26T13:11:23.826628,8420,1.223127,2.433943,-0.500413,0.070036,0.018478,0.993328
2011-09-26T13:11:23.836628,8430,1.274305,2.542685,-0.506503,0.068311,0.019224,0.988216
2011-09-26T13:11:23.846628,8440,1.325483,2.651428,-0.512594,0.066586,0.019969,0.983105
2011-09-26T13:11:23.856628,8450,1.376660,2.760170,-0.518684,0.064860,0.020715,0.977993
2011-09-26T13:11:23.866628,8460,1.427838,2.868913,-0.524774,0.063135,0.021460,0.972881
2011-09-26T13:11:23.876628,8470,1.479016,2.977655,-0.530865,0.061410,0.022206,0.967769
2011-09-26T13:11:23.886628,8480,1.530194,3.086398,-0.536955,0.059684,0.022951,0.962657
2011-09-26T13:11:23.896628,8490,1.581371,3.195140,-0.543045,0.057959,0.023697,0.957545
2011-09-26T13:11:23.906628,8500,1.626360,3.063239,-0.521671,0.057280,0.024464,0.951950
2011-09-26T13:11:23.916628,8510,1.671100,2.921675,-0.499193,0.056643,0.025233,0.946336
2011-09-26T13:11:23.926628,8520,1.715839,2.780112,-0.476715,0.056006,0.026001,0.940721
2011-09-26T13:11:23.936628,8530,1.760579,2.638549,-0.454238,0.055368,0.026770,0.935107
2011-09-26T13:11:23.946628,8540,1.805319,2.496985,-0.431760,0.054731,0.027538,0.929492
2011-09-26T13:11:23.956628,8550,1.850059,2.355422,-0.409282,0.054094,0.028307,0.923878
2011-09-26T13:11:23.966628,8560,1.894799,2.213859,-0.386805,0.053457,0.029075,0.918264
2011-09-26T13:11:23.976628,8570,1.939539,2.072295,-0.364327,0.052820,0.029844,0.912649
2011-09-26T13:11:23.986628,8580,1.984279,1.930732,-0.341849,0.052183,0.030612,0.907035
2011-09-26T13:11:23.996628,8590,2.029019,1.789169,-0.319372,0.051546,0.031381,0.901420
2011-09-26T13:11:24.006628,8600,2.151268,1.619505,-0.327660,0.051702,0.030225,0.906187
2011-09-26T13:11:24.016628,8610,2.276631,1.448712,-0.337185,0.051890,0.028991,0.911370
2011-09-26T13:11:24.026628,8620,2.401994,1.277920,-0.346709,0.052078,0.027758,0.916554
2011-09-26T13:11:24.036628,8630,2.527358,1.107127,-0.356233,0.052266,0.026524,0.921737
2011-09-26T13:11:24.046628,8640,2.652721,0.936334,-0.365758,0.052455,0.025290,0.926921
2011-09-26T13:11:24.056628,8650,2.778084,0.765541,-0.375282,0.052643,0.024057,0.932104
2011-09-26T13:11:24.066628,8660,2.903447,0.594749,-0.384807,0.052831,0.022823,0.937288
2011-09-26T13:11:24.076628,8670,3.028810,0.423956,-0.394331,0.053019,0.021590,0.942471
2011-09-26T13:11:24.086628,8680,3.154173,0.253163,-0.403855,0.053207,0.020356,0.947655
2011-09-26T13:11:24.096628,8690,3.279537,0.082371,-0.413380,0.053395,0.019123,0.952838
2011-09-26T13:11:24.106628,8700,3.104320,-0.003801,-0.375183,0.053903,0.024140,0.956680
2011-09-26T13:11:24.116628,8710,2.918199,-0.086903,-0.335256,0.054422,0.029385,0.960473
2011-09-26T13:11:24.126628,8720,2.732077,-0.170004,-0.295328,0.054942,0.034629,0.964266
2011-09-26T13:11:24.136628,8730,2.545956,-0.253106,-0.255401,0.055461,0.039873,0.968059
2011-09-26T13:11:24.146628,8740,2.359835,-0.336207,-0.215473,0.055980,0.045118,0.971852
2011-09-26T13:11:24.156628,8750,2.173713,-0.419309,-0.175546,0.056499,0.050362,0.975645
2011-09-26T13:11:24.166628,8760,1.987592,-0.502411,-0.135618,0.057019,0.055606,0.979438
2011-09-26T13:11:24.176628,8770,1.801471,-0.585512,-0.095691,0.057538,0.060851,0.983230
2011-09-26T13:11:24.186628,8780,1.615349,-0.668614,-0.055763,0.058057,0.066095,0.987023
2011-09-26T13:11:24.196628,8790,1.429228,-0.751715,-0.015836,0.058577,0.071339,0.990816
2011-09-26T13:11:24.206628,8800,1.243107,-0.834817,0.024092,0.059096,0.076584,0.994609
2011-09-26T13:11:24.216628,8810,1.334769,-0.935744,0.040135,0.058823,0.073927,0.995381
2011-09-26T13:11:24.226628,8820,1.440347,-1.037564,0.054981,0.058510,0.070874,0.996002
2011-09-26T13:11:24.236628,8830,1.545924,-1.139384,0.069827,0.058197,0.067821,0.996623
2011-09-26T13:11:24.246628,8840,1.651502,-1.241204,0.084673,0.057884,0.064769,0.997243
2011-09-26T13:11:24.256628,8850,1.757080,-1.343024,0.099520,0.057571,0.061716,0.997864
2011-09-26T13:11:24.266628,8860,1.862658,-1.444844,0.114366,0.057258,0.058663,0.998485
2011-09-26T13:11:24.276628,8870,1.968236,-1.546664,0.129212,0.056945,0.055610,0.999106
2011-09-26T13:11:24.286628,8880,2.073814,-1.648484,0.144059,0.056632,0.052558,0.999726
2011-09-26T13:11:24.296628,8890,2.179391,-1.750304,0.158905,0.056319,0.049505,1.000347
2011-09-26T13:11:24.306628,8900,2.284969,-1.852124,0.173751,0.056006,0.046452,1.000968
2011-09-26T13:11:24.316628,8910,2.044455,-1.892056,0.192688,0.056882,0.050703,1.005497
2011-09-26T13:11:24.326628,8920,1.789514,-1.929409,0.211796,0.057807,0.055258,1.010189
2011-09-26T13:11:24.336628,8930,1.534573,-1.966762,0.230904,0.058732,0.059813,1.014881
2011-09-26T13:11:24.346628,8940,1.279633,-2.004114,0.250012,0.059658,0.064368,1.019574
2011-09-26T13:11:24.356628,8950,1.024692,-2.041467,0.269120,0.060583,0.068923,1.024266
2011-09-26T13:11:24.366628,8960,0.769752,-2.078820,0.288228,0.061508,0.073478,1.028958
2011-09-26T13:11:24.376628,8970,0.514811,-2.116172,0.307336,0.062434,0.078033,1.033650
2011-09-26T13:11:24.386628,8980,0.259870,-2.153525,0.326444,0.063359,0.082588,1.038343
2011-09-26T13:11:24.396628,8990,0.004930,-2.190877,0.345551,0.064285,0.087143,1.043035
2011-09-26T13:11:24.406628,9000,-0.250011,-2.228230,0.364659,0.065210,0.091698,1.047727
2011-09-26T13:11:24.416628,9010,-0.504951,-2.265583,0.383767,0.066135,0.096253,1.052419
2011-09-26T13:11:24.426628,9020,-0.550756,-2.251487,0.390453,0.066718,0.093771,1.049515
2011-09-26T13:11:24.436628,9030,-0.587909,-2.235263,0.396626,0.067286,0.090998,1.046296
2011-09-26T13:11:24.446628,9040,-0.625062,-2.219039,0.402798,0.067854,0.088226,1.043077
2011-09-26T13:11:24.456628,9050,-0.662216,-2.202816,0.408970,0.068422,0.085453,1.039859
2011-09-26T13:11:24.466628,9060,-0.699369,-2.186592,0.415143,0.068990,0.082680,1.036640
2011-09-26T13:11:24.476628,9070,-0.736522,-2.170368,0.421315,0.069558,0.079907,1.033421
2011-09-26T13:11:24.486628,9080,-0.773676,-2.154144,0.427488,0.070126,0.077134,1.030202
2011-09-26T13:11:24.496628,9090,-0.810829,-2.137921,0.433660,0.070694,0.074361,1.026984
2011-09-26T13:11:24.506628,9100,-0.847983,-2.121697,0.439832,0.071262,0.071588,1.023765
2011-09-26T13:11:24.516628,9110,-0.885136,-2.105473,0.446005,0.071830,0.068815,1.020546
2011-09-26T13:11:24.526628,9120,-0.850845,-2.041442,0.463158,0.072965,0.070121,1.022635
2011-09-26T13:11:24.536628,9130,-0.813902,-1.975637,0.480719,0.074120,0.071578,1.024922
2011-09-26T13:11:24.546628,9140,-0.776959,-1.909832,0.498280,0.075275,0.073035,1.027208
2011-09-26T13:11:24.556628,9150,-0.740016,-1.844027,0.515841,0.076431,0.074493,1.029494
2011-09-26T13:11:24.566628,9160,-0.703073,-1.778221,0.533402,0.077586,0.075950,1.031780
2011-09-26T13:11:24.576628,9170,-0.666130,-1.712416,0.550963,0.078742,0.077408,1.034067
2011-09-26T13:11:24.586628,9180,-0.629188,-1.646611,0.568525,0.079897,0.078865,1.036353
2011-09-26T13:11:24.596628,9190,-0.592245,-1.580806,0.586086,0.081053,0.080322,1.038639
2011-09-26T13:11:24.606628,9200,-0.555302,-1.515000,0.603647,0.082208,0.081780,1.040925
2011-09-26T13:11:24.616628,9210,-0.518359,-1.449195,0.621208,0.083364,0.083237,1.043212
2011-09-26T13:11:24.626628,9220,-0.580335,-1.275283,0.603360,0.084066,0.082942,1.045638
2011-09-26T13:11:24.636628,9230,-0.646209,-1.097110,0.584117,0.084751,0.082577,1.048069
2011-09-26T13:11:24.646628,9240,-0.712084,-0.918938,0.564873,0.085436,0.082213,1.050500
2011-09-26T13:11:24.656628,9250,-0.777958,-0.740765,0.545630,0.086121,0.081848,1.052932
2011-09-26T13:11:24.666628,9260,-0.843833,-0.562593,0.526387,0.086806,0.081484,1.055363
2011-09-26T13:11:24.676628,9270,-0.909707,-0.384420,0.507143,0.087491,0.081119,1.057795
2011-09-26T13:11:24.686628,9280,-0.975582,-0.206248,0.487900,0.088176,0.080755,1.060226
2011-09-26T13:11:24.696628,9290,-1.041456,-0.028075,0.468657,0.088861,0.080390,1.062658
2011-09-26T13:11:24.706628,9300,-1.107331,0.150098,0.449414,0.089546,0.080026,1.065089
2011-09-26T13:11:24.716628,9310,-1.173205,0.328270,0.430170,0.090231,0.079661,1.067520
2011-09-26T13:11:24.726628,9320,-1.239080,0.506443,0.410927,0.090916,0.079297,1.069952
2011-09-26T13:11:24.736628,9330,-1.228018,0.442496,0.416099,0.090842,0.075973,1.063414
2011-09-26T13:11:24.746628,9340,-1.211438,0.361184,0.423022,0.090714,0.072437,1.056233
2011-09-26T13:11:24.756628,9350,-1.194858,0.279872,0.429945,0.090587,0.068901,1.049053
2011-09-26T13:11:24.766628,9360,-1.178279,0.198561,0.436868,0.090459,0.065365,1.041872
2011-09-26T13:11:24.776628,9370,-1.161699,0.117249,0.443791,0.090331,0.061829,1.034691
2011-09-26T13:11:24.786628,9380,-1.145120,0.035938,0.450714,0.090203,0.058293,1.027510
2011-09-26T13:11:24.796628,9390,-1.128540,-0.045374,0.457637,0.090075,0.054757,1.020330
2011-09-26T13:11:24.806628,9400,-1.111960,-0.126685,0.464560,0.089947,0.051221,1.013149
2011-09-26T13:11:24.816628,9410,-1.095381,-0.207997,0.471482,0.089819,0.047685,1.005968
2011-09-26T13:11:24.826628,9420,-1.078801,-0.289308,0.478405,0.089691,0.044149,0.998787
2011-09-26T13:11:24.836628,9430,-0.963098,-0.304532,0.489685,0.088788,0.041991,0.997540
2011-09-26T13:11:24.846628,9440,-0.843166,-0.316936,0.501151,0.087852,0.039892,0.996546
2011-09-26T13:11:24.856628,9450,-0.723233,-0.329340,0.512616,0.086916,0.037793,0.995552
2011-09-26T13:11:24.866628,9460,-0.603301,-0.341744,0.524082,0.085980,0.035694,0.994558
2011-09-26T13:11:24.876628,9470,-0.483369,-0.354148,0.535548,0.085044,0.033595,0.993564
2011-09-26T13:11:24.886628,9480,-0.363437,-0.366551,0.547013,0.084108,0.031497,0.992569
2011-09-26T13:11:24.896628,9490,-0.243504,-0.378955,0.558479,0.083172,0.029398,0.991575
2011-09-26T13:11:24.906628,9500,-0.123572,-0.391359,0.569945,0.082235,0.027299,0.990581
2011-09-26T13:11:24.916628,9510,-0.003640,-0.403763,0.581410,0.081299,0.025200,0.989587
2011-09-26T13:11:24.926628,9520,0.116292,-0.416167,0.592876,0.080363,0.023101,0.988593
2011-09-26T13:11:24.936628,9530,0.144962,-0.484911,0.623538,0.080366,0.026985,0.990679
2011-09-26T13:11:24.946628,9540,0.169430,-0.556249,0.655085,0.080413,0.031145,0.992906
2011-09-26T13:11:24.956628,9550,0.193898,-0.627586,0.686631,0.080460,0.035305,0.995134
2011-09-26T13:11:24.966628,9560,0.218366,-0.698924,0.718177,0.080506,0.039465,0.997361
2011-09-26T13:11:24.976628,9570,0.242834,-0.770262,0.749724,0.080553,0.043624,0.999589
2011-09-26T13:11:24.986628,9580,0.267302,-0.841599,0.781270,0.080599,0.047784,1.001816
2011-09-26T13:11:24.996628,9590,0.291769,-0.912937,0.812816,0.080646,0.051944,1.004044
2011-09-26T13:11:25.006628,9600,0.316237,-0.984275,0.844363,0.080692,0.056104,1.006271
2011-09-26T13:11:25.016628,9610,0.340705,-1.055613,0.875909,0.080739,0.060264,1.008499
2011-09-26T13:11:25.026628,9620,0.365173,-1.126950,0.907455,0.080785,0.064423,1.010726
2011-09-26T13:11:25.036628,9630,0.389641,-1.198288,0.939002,0.080832,0.068583,1.012954
2011-09-26T13:11:25.046628,9640,0.347881,-1.212654,0.934920,0.081259,0.067852,1.014027
2011-09-26T13:11:25.056628,9650,0.303512,-1.224775,0.929434,0.081701,0.066929,1.015055
2011-09-26T13:11:25.066628,9660,0.259143,-1.236896,0.923948,0.082143,0.066006,1.016082
2011-09-26T13:11:25.076628,9670,0.214773,-1.249017,0.918463,0.082586,0.065082,1.017110
2011-09-26T13:11:25.086628,9680,0.170404,-1.261137,0.912977,0.083028,0.064159,1.018138
2011-09-26T13:11:25.096628,9690,0.126034,-1.273258,0.907491,0.083470,0.063235,1.019165
2011-09-26T13:11:25.106628,9700,0.081665,-1.285379,0.902005,0.083912,0.062312,1.020193
2011-09-26T13:11:25.116628,9710,0.037296,-1.297500,0.896519,0.084355,0.061389,1.021221
2011-09-26T13:11:25.126628,9720,-0.007074,-1.309621,0.891034,0.084797,0.060465,1.022249
2011-09-26T13:11:25.136628,9730,-0.051443,-1.321742,0.885548,0.085239,0.059542,1.023276
2011-09-26T13:11:25.146628,9740,-0.104061,-1.195851,0.889968,0.086072,0.061482,1.022156
2011-09-26T13:11:25.156628,9750,-0.157078,-1.063273,0.894869,0.086923,0.063560,1.020932
2011-09-26T13:11:25.166628,9760,-0.210096,-0.930694,0.899770,0.087774,0.065639,1.019708
2011-09-26T13:11:25.176628,9770,-0.263113,-0.798116,0.904670,0.088626,0.067717,1.018484
2011-09-26T13:11:25.186628,9780,-0.316131,-0.665538,0.909571,0.089477,0.069796,1.017261
2011-09-26T13:11:25.196628,9790,-0.369148,-0.532960,0.914471,0.090328,0.071874,1.016037
2011-09-26T13:11:25.206628,9800,-0.422165,-0.400381,0.919372,0.091180,0.073953,1.014813
2011-09-26T13:11:25.216628,9810,-0.475183,-0.267803,0.924273,0.092031,0.076031,1.013589
2011-09-26T13:11:25.226628,9820,-0.528200,-0.135225,0.929173,0.092882,0.078110,1.012365
2011-09-26T13:11:25.236628,9830,-0.581218,-0.002646,0.934074,0.093734,0.080189,1.011141
2011-09-26T13:11:25.246628,9840,-0.651871,0.119910,0.928361,0.093445,0.081430,1.012307
2011-09-26T13:11:25.256628,9850,-0.723631,0.241837,0.921982,0.093084,0.082619,1.013623
2011-09-26T13:11:25.266628,9860,-0.795390,0.363764,0.915604,0.092723,0.083808,1.014940
2011-09-26T13:11:25.276628,9870,-0.867149,0.485692,0.909225,0.092363,0.084997,1.016256
2011-09-26T13:11:25.286628,9880,-0.938909,0.607619,0.902847,0.092002,0.086186,1.017572
2011-09-26T13:11:25.296628,9890,-1.010668,0.729547,0.896469,0.091642,0.087375,1.018889
2011-09-26T13:11:25.306628,9900,-1.082427,0.851474,0.890090,0.091281,0.088563,1.020205
2011-09-26T13:11:25.316628,9910,-1.154187,0.973402,0.883712,0.090921,0.089752,1.021521
2011-09-26T13:11:25.326628,9920,-1.225946,1.095329,0.877333,0.090560,0.090941,1.022837
2011-09-26T13:11:25.336628,9930,-1.297705,1.217257,0.870955,0.090199,0.092130,1.024154
2011-09-26T13:11:25.346628,9940,-1.369465,1.339184,0.864576,0.089839,0.093319,1.025470
2011-09-26T13:11:25.356628,9950,-1.359323,1.313711,0.860383,0.089406,0.090322,1.019431
2011-09-26T13:11:25.366628,9960,-1.345160,1.281001,0.856298,0.088970,0.087120,1.013031
2011-09-26T13:11:25.376628,9970,-1.330996,1.248291,0.852212,0.088534,0.083918,1.006631
2011-09-26T13:11:25.386628,9980,-1.316833,1.215581,0.848126,0.088098,0.080716,1.000231
2011-09-26T13:11:25.396628,9990,-1.302669,1.182871,0.844040,0.087662,0.077514,0.993831
2011-09-26T13:11:25.406628,10000,-1.288506,1.150161,0.839955,0.087225,0.074312,0.987431
2011-09-26T13:11:25.416628,10010,-1.274343,1.117451,0.835869,0.086789,0.071110,0.981031
2011-09-26T13:11:25.426628,10020,-1.260179,1.084741,0.831783,0.086353,0.067908,0.974631
2011-09-26T13:11:25.436628,10030,-1.246016,1.052030,0.827698,0.085917,0.064706,0.968231
2011-09-26T13:11:25.446628,10040,-1.231853,1.019320,0.823612,0.085481,0.061504,0.961831
2011-09-26T13:11:25.456628,10050,-1.225660,0.978616,0.824238,0.085046,0.059792,0.962665
2011-09-26T13:11:25.466628,10060,-1.219857,0.937520,0.825095,0.084612,0.058152,0.963854
2011-09-26T13:11:25.476628,10070,-1.214055,0.896424,0.825952,0.084178,0.056512,0.965043
2011-09-26T13:11:25.486628,10080,-1.208252,0.855328,0.826809,0.083744,0.054872,0.966231
2011-09-26T13:11:25.496628,10090,-1.202450,0.814232,0.827666,0.083310,0.053233,0.967420
2011-09-26T13:11:25.506628,10100,-1.196647,0.773136,0.828523,0.082876,0.051593,0.968609
2011-09-26T13:11:25.516628,10110,-1.190845,0.732040,0.829381,0.082442,0.049953,0.969798
2011-09-26T13:11:25.526628,10120,-1.185042,0.690944,0.830238,0.082008,0.048313,0.970986
2011-09-26T13:11:25.536628,10130,-1.179240,0.649848,0.831095,0.081574,0.046674,0.972175
2011-09-26T13:11:25.546628,10140,-1.173437,0.608752,0.831952,0.081139,0.045034,0.973364
2011-09-26T13:11:25.556628,10150,-1.083246,0.586095,0.851580,0.081953,0.045250,0.976516
2011-09-26T13:11:25.566628,10160,-0.988707,0.564389,0.872176,0.082830,0.045561,0.979769
2011-09-26T13:11:25.576628,10170,-0.894168,0.542682,0.892772,0.083707,0.045872,0.983022
2011-09-26T13:11:25.586628,10180,-0.799630,0.520975,0.913368,0.084585,0.046183,0.986276
2011-09-26T13:11:25.596628,10190,-0.705091,0.499268,0.933964,0.085462,0.046495,0.989529
2011-09-26T13:11:25.606628,10200,-0.610552,0.477561,0.954559,0.086340,0.046806,0.992782
2011-09-26T13:11:25.616628,10210,-0.516013,0.455854,0.975155,0.087217,0.047117,0.996035
2011-09-26T13:11:25.626628,10220,-0.421474,0.434147,0.995751,0.088094,0.047429,0.999288
2011-09-26T13:11:25.636628,10230,-0.326935,0.412440,1.016347,0.088972,0.047740,1.002541
2011-09-26T13:11:25.646628,10240,-0.232396,0.390734,1.036943,0.089849,0.048051,1.005794
2011-09-26T13:11:25.656628,10250,-0.137857,0.369027,1.057538,0.090727,0.048363,1.009048
2011-09-26T13:11:25.666628,10260,-0.117748,0.430039,1.060494,0.089353,0.048743,1.007953
2011-09-26T13:11:25.676628,10270,-0.101016,0.494804,1.062648,0.087876,0.049128,1.006662
2011-09-26T13:11:25.686628,10280,-0.084284,0.559570,1.064803,0.086400,0.049512,1.005370
2011-09-26T13:11:25.696628,10290,-0.067552,0.624335,1.066958,0.084924,0.049896,1.004079
2011-09-26T13:11:25.706628,10300,-0.050820,0.689101,1.069113,0.083448,0.050280,1.002787
2011-09-26T13:11:25.716628,10310,-0.034088,0.753867,1.071268,0.081972,0.050664,1.001496
2011-09-26T13:11:25.726628,10320,-0.017356,0.818632,1.073423,0.080496,0.051048,1.000204
2011-09-26T13:11:25.736628,10330,-0.000624,0.883398,1.075577,0.079019,0.051432,0.998913
2011-09-26T13:11:25.746628,10340,0.016108,0.948163,1.077732,0.077543,0.051816,0.997621
2011-09-26T13:11:25.756628,10350,0.032840,1.012929,1.079887,0.076067,0.052200,0.996330
2011-09-26T13:11:25.766628,10360,0.048299,1.019828,1.066303,0.074112,0.052455,0.994801
2011-09-26T13:11:25.776628,10370,0.063694,1.023810,1.051925,0.072133,0.052703,0.993261
2011-09-26T13:11:25.786628,10380,0.079089,1.027792,1.037547,0.070154,0.052951,0.991721
2011-09-26T13:11:25.796628,10390,0.094484,1.031774,1.023169,0.068175,0.053199,0.990180
2011-09-26T13:11:25.806628,10400,0.109878,1.035755,1.008791,0.066196,0.053447,0.988640
2011-09-26T13:11:25.816628,10410,0.125273,1.039737,0.994413,0.064217,0.053695,0.987100
2011-09-26T13:11:25.826628,10420,0.140668,1.043719,0.980035,0.062238,0.053943,0.985559
2011-09-26T13:11:25.836628,10430,0.156063,1.047701,0.965658,0.060258,0.054191,0.984019
2011-09-26T13:11:25.846628,10440,0.171457,1.051683,0.951280,0.058279,0.054439,0.982479
2011-09-26T13:11:25.856628,10450,0.186852,1.055664,0.936902,0.056300,0.054688,0.980938
2011-09-26T13:11:25.866628,10460,0.183069,1.012259,0.944669,0.055514,0.055032,0.980560
2011-09-26T13:11:25.876628,10470,0.178354,0.966549,0.953513,0.054786,0.055381,0.980238
2011-09-26T13:11:25.886628,10480,0.173638,0.920839,0.962357,0.054057,0.055730,0.979916
2011-09-26T13:11:25.896628,10490,0.168922,0.875129,0.971201,0.053329,0.056079,0.979594
2011-09-26T13:11:25.906628,10500,0.164206,0.829419,0.980045,0.052601,0.056428,0.979272
2011-09-26T13:11:25.916628,10510,0.159490,0.783709,0.988889,0.051872,0.056777,0.978951
2011-09-26T13:11:25.926628,10520,0.154775,0.737999,0.997734,0.051144,0.057126,0.978629
2011-09-26T13:11:25.936628,10530,0.150059,0.692289,1.006578,0.050416,0.057475,0.978307
2011-09-26T13:11:25.946628,10540,0.145343,0.646579,1.015422,0.049688,0.057824,0.977985
2011-09-26T13:11:25.956628,10550,0.140627,0.600869,1.024266,0.048959,0.058173,0.977663
2011-09-26T13:11:25.966628,10560,0.135912,0.555159,1.033110,0.048231,0.058522,0.977341
2011-09-26T13:11:25.976628,10570,0.169326,0.489349,1.026923,0.047325,0.058127,0.979085
2011-09-26T13:11:25.986628,10580,0.204789,0.422459,1.019927,0.046408,0.057691,0.980940
2011-09-26T13:11:25.996628,10590,0.240253,0.355569,1.012932,0.045492,0.057256,0.982795
2011-09-26T13:11:26.006628,10600,0.275716,0.288679,1.005937,0.044576,0.056821,0.984650
2011-09-26T13:11:26.016628,10610,0.311179,0.221789,0.998942,0.043660,0.056386,0.986505
2011-09-26T13:11:26.026628,10620,0.346643,0.154899,0.991947,0.042744,0.055951,0.988360
2011-09-26T13:11:26.036628,10630,0.382106,0.088009,0.984952,0.041828,0.055516,0.990214
2011-09-26T13:11:26.046628,10640,0.417570,0.021119,0.977956,0.040912,0.055081,0.992069
2011-09-26T13:11:26.056628,10650,0.453033,-0.045772,0.970961,0.039996,0.054646,0.993924
2011-09-26T13:11:26.066628,10660,0.488497,-0.112662,0.963966,0.039080,0.054211,0.995779
2011-09-26T13:11:26.076628,10670,0.503402,-0.111928,0.966094,0.038918,0.054665,0.996790
2011-09-26T13:11:26.086628,10680,0.517219,-0.107612,0.968706,0.038796,0.055167,0.997756
2011-09-26T13:11:26.096628,10690,0.531036,-0.103295,0.971317,0.038674,0.055669,0.998722
2011-09-26T13:11:26.106628,10700,0.544852,-0.098979,0.973929,0.038552,0.056170,0.999688
2011-09-26T13:11:26.116628,10710,0.558669,-0.094662,0.976540,0.038430,0.056672,1.000654
2011-09-26T13:11:26.126628,10720,0.572485,-0.090346,0.979152,0.038308,0.057173,1.001621
2011-09-26T13:11:26.136628,10730,0.586302,-0.086029,0.981763,0.038186,0.057675,1.002587
2011-09-26T13:11:26.146628,10740,0.600119,-0.081713,0.984375,0.038064,0.058177,1.003553
2011-09-26T13:11:26.156628,10750,0.613935,-0.077396,0.986986,0.037942,0.058678,1.004519
2011-09-26T13:11:26.166628,10760,0.627752,-0.073080,0.989597,0.037820,0.059180,1.005485
2011-09-26T13:11:26.176628,10770,0.641569,-0.068763,0.992209,0.037698,0.059682,1.006451
2011-09-26T13:11:26.186628,10780,0.645318,-0.006946,0.992148,0.036750,0.059946,1.007037
2011-09-26T13:11:26.196628,10790,0.648359,0.058920,0.991900,0.035745,0.060194,1.007596
2011-09-26T13:11:26.206628,10800,0.651400,0.124787,0.991651,0.034739,0.060442,1.008155
2011-09-26T13:11:26.216628,10810,0.654441,0.190654,0.991402,0.033733,0.060690,1.008714
2011-09-26T13:11:26.226628,10820,0.657482,0.256520,0.991154,0.032727,0.060937,1.009273
2011-09-26T13:11:26.236628,10830,0.660523,0.322387,0.990905,0.031722,0.061185,1.009832
2011-09-26T13:11:26.246628,10840,0.663564,0.388254,0.990656,0.030716,0.061433,1.010391
2011-09-26T13:11:26.256628,10850,0.666604,0.454121,0.990408,0.029710,0.061681,1.010950
2011-09-26T13:11:26.266628,10860,0.669645,0.519987,0.990159,0.028704,0.061928,1.011509
2011-09-26T13:11:26.276628,10870,0.672686,0.585854,0.989910,0.027698,0.062176,1.012068
2011-09-26T13:11:26.286628,10880,0.620613,0.595319,0.987866,0.026713,0.062881,1.010355
2011-09-26T13:11:26.296628,10890,0.565572,0.601747,0.985724,0.025728,0.063611,1.008520
2011-09-26T13:11:26.306628,10900,0.510531,0.608175,0.983583,0.024744,0.064340,1.006685
2011-09-26T13:11:26.316628,10910,0.455490,0.614602,0.981442,0.023759,0.065070,1.004851
2011-09-26T13:11:26.326628,10920,0.400449,0.621030,0.979300,0.022774,0.065799,1.003016
2011-09-26T13:11:26.336628,10930,0.345408,0.627458,0.977159,0.021790,0.066529,1.001181
2011-09-26T13:11:26.346628,10940,0.290367,0.633886,0.975018,0.020805,0.067258,0.999346
2011-09-26T13:11:26.356628,10950,0.235326,0.640314,0.972876,0.019821,0.067988,0.997511
2011-09-26T13:11:26.366628,10960,0.180285,0.646741,0.970735,0.018836,0.068717,0.995677
2011-09-26T13:11:26.376628,10970,0.125244,0.653169,0.968593,0.017852,0.069447,0.993842
2011-09-26T13:11:26.386628,10980,0.153412,0.678350,0.948643,0.016702,0.068840,0.993552
2011-09-26T13:11:26.396628,10990,0.185611,0.704439,0.927830,0.015544,0.068169,0.993337
2011-09-26T13:11:26.406628,11000,0.217811,0.730528,0.907017,0.014386,0.067497,0.993122
2011-09-26T13:11:26.416628,11010,0.250010,0.756617,0.886203,0.013228,0.066826,0.992907
2011-09-26T13:11:26.426628,11020,0.282209,0.782706,0.865390,0.012070,0.066154,0.992692
2011-09-26T13:11:26.436628,11030,0.314409,0.808795,0.844577,0.010911,0.065483,0.992478
2011-09-26T13:11:26.446628,11040,0.346608,0.834885,0.823763,0.009753,0.064812,0.992263
2011-09-26T13:11:26.456628,11050,0.378808,0.860974,0.802950,0.008595,0.064140,0.992048
2011-09-26T13:11:26.466628,11060,0.411007,0.887063,0.782137,0.007437,0.063469,0.991833
2011-09-26T13:11:26.476628,11070,0.443206,0.913152,0.761324,0.006279,0.062797,0.991618
2011-09-26T13:11:26.486628,11080,0.475406,0.939241,0.740510,0.005121,0.062126,0.991403
2011-09-26T13:11:26.496628,11090,0.432588,0.949509,0.721934,0.003913,0.062137,0.989989
2011-09-26T13:11:26.506628,11100,0.383889,0.958537,0.703533,0.002700,0.062203,0.988482
2011-09-26T13:11:26.516628,11110,0.335190,0.967564,0.685132,0.001487,0.062268,0.986974
2011-09-26T13:11:26.526628,11120,0.286491,0.976591,0.666731,0.000275,0.062333,0.985467
2011-09-26T13:11:26.536628,11130,0.237792,0.985619,0.648330,-0.000938,0.062398,0.983959
2011-09-26T13:11:26.546628,11140,0.189093,0.994646,0.629930,-0.002151,0.062463,0.982451
2011-09-26T13:11:26.556628,11150,0.140394,1.003674,0.611529,-0.003363,0.062528,0.980944
2011-09-26T13:11:26.566628,11160,0.091695,1.012701,0.593128,-0.004576,0.062593,0.979436
2011-09-26T13:11:26.576628,11170,0.042996,1.021729,0.574727,-0.005789,0.062658,0.977929
2011-09-26T13:11:26.586628,11180,-0.005703,1.030756,0.556326,-0.007001,0.062723,0.976421
2011-09-26T13:11:26.596628,11190,0.057020,0.997597,0.543204,-0.007414,0.061120,0.976360
2011-09-26T13:11:26.606628,11200,0.125695,0.962184,0.530365,-0.007784,0.059428,0.976376
2011-09-26T13:11:26.616628,11210,0.194370,0.926771,0.517525,-0.008154,0.057736,0.976392
2011-09-26T13:11:26.626628,11220,0.263045,0.891359,0.504686,-0.008524,0.056044,0.976408
2011-09-26T13:11:26.636628,11230,0.331720,0.855946,0.491846,-0.008894,0.054353,0.976424
2011-09-26T13:11:26.646628,11240,0.400395,0.820533,0.479007,-0.009265,0.052661,0.976441
2011-09-26T13:11:26.656628,11250,0.469070,0.785120,0.466168,-0.009635,0.050969,0.976457
2011-09-26T13:11:26.666628,11260,0.537745,0.749707,0.453328,-0.010005,0.049277,0.976473
2011-09-26T13:11:26.676628,11270,0.606420,0.714294,0.440489,-0.010375,0.047585,0.976489
2011-09-26T13:11:26.686628,11280,0.675095,0.678882,0.427649,-0.010745,0.045893,0.976505
2011-09-26T13:11:26.696628,11290,0.664558,0.599645,0.438282,-0.010568,0.046327,0.977703
2011-09-26T13:11:26.706628,11300,0.647681,0.516900,0.450794,-0.010347,0.046931,0.978997
2011-09-26T13:11:26.716628,11310,0.630803,0.434155,0.463306,-0.010126,0.047535,0.980290
2011-09-26T13:11:26.726628,11320,0.613926,0.351410,0.475817,-0.009905,0.048139,0.981583
2011-09-26T13:11:26.736628,11330,0.597048,0.268665,0.488329,-0.009685,0.048743,0.982876
2011-09-26T13:11:26.746628,11340,0.580171,0.185920,0.500841,-0.009464,0.049347,0.984169
2011-09-26T13:11:26.756628,11350,0.563293,0.103175,0.513353,-0.009243,0.049951,0.985462
2011-09-26T13:11:26.766628,11360,0.546415,0.020430,0.525865,-0.009022,0.050555,0.986756
2011-09-26T13:11:26.776628,11370,0.529538,-0.062315,0.538377,-0.008801,0.051159,0.988049
2011-09-26T13:11:26.786628,11380,0.512660,-0.145060,0.550889,-0.008580,0.051763,0.989342
2011-09-26T13:11:26.796628,11390,0.495783,-0.227805,0.563401,-0.008359,0.052367,0.990635
2011-09-26T13:11:26.806628,11400,0.514635,-0.272965,0.553129,-0.007892,0.053712,0.991700
2011-09-26T13:11:26.816628,11410,0.535425,-0.316088,0.541623,-0.007411,0.055097,0.992753
2011-09-26T13:11:26.826628,11420,0.556214,-0.359211,0.530117,-0.006930,0.056483,0.993806
2011-09-26T13:11:26.836628,11430,0.577003,-0.402334,0.518611,-0.006449,0.057868,0.994859
2011-09-26T13:11:26.846628,11440,0.597792,-0.445456,0.507104,-0.005968,0.059253,0.995912
2011-09-26T13:11:26.856628,11450,0.618582,-0.488579,0.495598,-0.005487,0.060638,0.996965
2011-09-26T13:11:26.866628,11460,0.639371,-0.531702,0.484092,-0.005006,0.062024,0.998018
2011-09-26T13:11:26.876628,11470,0.660160,-0.574825,0.472586,-0.004525,0.063409,0.999071
2011-09-26T13:11:26.886628,11480,0.680949,-0.617947,0.461080,-0.004044,0.064794,1.000124
2011-09-26T13:11:26.896628,11490,0.701739,-0.661070,0.449573,-0.003564,0.066180,1.001177
2011-09-26T13:11:26.906628,11500,0.613250,-0.702824,0.445770,-0.003725,0.065736,1.002202
2011-09-26T13:11:26.916628,11510,0.518900,-0.744504,0.442380,-0.003921,0.065194,1.003225
2011-09-26T13:11:26.926628,11520,0.424550,-0.786184,0.438991,-0.004117,0.064653,1.004249
2011-09-26T13:11:26.936628,11530,0.330200,-0.827864,0.435601,-0.004313,0.064111,1.005273
2011-09-26T13:11:26.946628,11540,0.235850,-0.869544,0.432211,-0.004509,0.063570,1.006296
2011-09-26T13:11:26.956628,11550,0.141500,-0.911225,0.428821,-0.004704,0.063028,1.007320
2011-09-26T13:11:26.966628,11560,0.047150,-0.952905,0.425431,-0.004900,0.062486,1.008344
2011-09-26T13:11:26.976628,11570,-0.047200,-0.994585,0.422041,-0.005096,0.061945,1.009367
2011-09-26T13:11:26.986628,11580,-0.141550,-1.036265,0.418651,-0.005292,0.061403,1.010391
2011-09-26T13:11:26.996628,11590,-0.235900,-1.077945,0.415262,-0.005488,0.060861,1.011414
2011-09-26T13:11:27.006628,11600,-0.230999,-1.075136,0.414328,-0.005867,0.059569,1.011765
2011-09-26T13:11:27.016628,11610,-0.220829,-1.069966,0.413524,-0.006256,0.058236,1.012079
2011-09-26T13:11:27.026628,11620,-0.210659,-1.064795,0.412721,-0.006645,0.056903,1.012393
2011-09-26T13:11:27.036628,11630,-0.200489,-1.059624,0.411917,-0.007034,0.055571,1.012708
2011-09-26T13:11:27.046628,11640,-0.190319,-1.054453,0.411114,-0.007423,0.054238,1.013022
2011-09-26T13:11:27.056628,11650,-0.180149,-1.049282,0.410311,-0.007812,0.052905,1.013336
2011-09-26T13:11:27.066628,11660,-0.169979,-1.044111,0.409507,-0.008200,0.051573,1.013651
2011-09-26T13:11:27.076628,11670,-0.159809,-1.038941,0.408704,-0.008589,0.050240,1.013965
2011-09-26T13:11:27.086628,11680,-0.149639,-1.033770,0.407900,-0.008978,0.048907,1.014280
2011-09-26T13:11:27.096628,11690,-0.139469,-1.028599,0.407097,-0.009367,0.047574,1.014594
2011-09-26T13:11:27.106628,11700,-0.129299,-1.023428,0.406293,-0.009756,0.046242,1.014908
2011-09-26T13:11:27.116628,11710,-0.151737,-0.963895,0.397121,-0.010692,0.047589,1.015620
2011-09-26T13:11:27.126628,11720,-0.175878,-0.901524,0.387511,-0.011657,0.049077,1.016352
2011-09-26T13:11:27.136628,11730,-0.200019,-0.839153,0.377902,-0.012621,0.050564,1.017084
2011-09-26T13:11:27.146628,11740,-0.224160,-0.776782,0.368293,-0.013586,0.052052,1.017816
2011-09-26T13:11:27.156628,11750,-0.248301,-0.714411,0.358683,-0.014551,0.053539,1.018548
2011-09-26T13:11:27.166628,11760,-0.272442,-0.652040,0.349074,-0.015516,0.055026,1.019280
2011-09-26T13:11:27.176628,11770,-0.296583,-0.589669,0.339464,-0.016480,0.056514,1.020012
2011-09-26T13:11:27.186628,11780,-0.320723,-0.527299,0.329855,-0.017445,0.058001,1.020744
2011-09-26T13:11:27.196628,11790,-0.344864,-0.464928,0.320245,-0.018410,0.059489,1.021475
2011-09-26T13:11:27.206628,11800,-0.369005,-0.402557,0.310636,-0.019374,0.060976,1.022207
2011-09-26T13:11:27.216628,11810,-0.378470,-0.555601,0.310439,-0.019815,0.060161,1.020919
2011-09-26T13:11:27.226628,11820,-0.386874,-0.724215,0.310922,-0.020217,0.059179,1.019485
2011-09-26T13:11:27.236628,11830,-0.395278,-0.892829,0.311405,-0.020619,0.058197,1.018050
2011-09-26T13:11:27.246628,11840,-0.403682,-1.061443,0.311889,-0.021022,0.057215,1.016616
2011-09-26T13:11:27.256628,11850,-0.412086,-1.230057,0.312372,-0.021424,0.056234,1.015182
2011-09-26T13:11:27.266628,11860,-0.420490,-1.398671,0.312855,-0.021827,0.055252,1.013747
2011-09-26T13:11:27.276628,11870,-0.428894,-1.567285,0.313338,-0.022229,0.054270,1.012313
2011-09-26T13:11:27.286628,11880,-0.437298,-1.735899,0.313822,-0.022631,0.053288,1.010879
2011-09-26T13:11:27.296628,11890,-0.445702,-1.904513,0.314305,-0.023034,0.052307,1.009444
2011-09-26T13:11:27.306628,11900,-0.454106,-2.073127,0.314788,-0.023436,0.051325,1.008010
2011-09-26T13:11:27.316628,11910,-0.468828,-1.978043,0.320290,-0.022622,0.051422,1.012232
2011-09-26T13:11:27.326628,11920,-0.483906,-1.868143,0.326074,-0.021739,0.051579,1.016772
2011-09-26T13:11:27.336628,11930,-0.498984,-1.758243,0.331858,-0.020856,0.051736,1.021312
2011-09-26T13:11:27.346628,11940,-0.514062,-1.648342,0.337642,-0.019973,0.051893,1.025852
2011-09-26T13:11:27.356628,11950,-0.529140,-1.538442,0.343426,-0.019090,0.052051,1.030392
2011-09-26T13:11:27.366628,11960,-0.544218,-1.428542,0.349210,-0.018207,0.052208,1.034932
2011-09-26T13:11:27.376628,11970,-0.559295,-1.318641,0.354995,-0.017324,0.052365,1.039472
2011-09-26T13:11:27.386628,11980,-0.574373,-1.208741,0.360779,-0.016441,0.052523,1.044012
2011-09-26T13:11:27.396628,11990,-0.589451,-1.098841,0.366563,-0.015558,0.052680,1.048552
2011-09-26T13:11:27.406628,12000,-0.604529,-0.988940,0.372347,-0.014676,0.052837,1.053092
2011-09-26T13:11:27.416628,12010,-0.619607,-0.879040,0.378131,-0.013793,0.052994,1.057632
2011-09-26T13:11:27.426628,12020,-0.649457,-0.731661,0.371101,-0.013523,0.053481,1.055611
2011-09-26T13:11:27.436628,12030,-0.680109,-0.582246,0.363375,-0.013286,0.053984,1.053233
2011-09-26T13:11:27.446628,12040,-0.710762,-0.432831,0.355648,-0.013050,0.054488,1.050855
2011-09-26T13:11:27.456628,12050,-0.741414,-0.283416,0.347922,-0.012813,0.054992,1.048477
2011-09-26T13:11:27.466628,12060,-0.772066,-0.134001,0.340196,-0.012577,0.055496,1.046099
2011-09-26T13:11:27.476628,12070,-0.802719,0.015414,0.332470,-0.012340,0.056000,1.043721
2011-09-26T13:11:27.486628,12080,-0.833371,0.164829,0.324744,-0.012104,0.056504,1.041343
2011-09-26T13:11:27.496628,12090,-0.864023,0.314244,0.317018,-0.011867,0.057008,1.038966
2011-09-26T13:11:27.506628,12100,-0.894676,0.463659,0.309292,-0.011631,0.057512,1.036588
2011-09-26T13:11:27.516628,12110,-0.925328,0.613074,0.301566,-0.011394,0.058016,1.034210
2011-09-26T13:11:27.526628,12120,-0.863957,0.654473,0.296901,-0.012780,0.056839,1.028329
2011-09-26T13:11:27.536628,12130,-0.797383,0.689765,0.292409,-0.014257,0.055566,1.022250
2011-09-26T13:11:27.546628,12140,-0.730810,0.725057,0.287918,-0.015734,0.054293,1.016170
2011-09-26T13:11:27.556628,12150,-0.664236,0.760349,0.283426,-0.017211,0.053021,1.010091
2011-09-26T13:11:27.566628,12160,-0.597662,0.795641,0.278934,-0.018688,0.051748,1.004012
2011-09-26T13:11:27.576628,12170,-0.531088,0.830933,0.274443,-0.020165,0.050475,0.997933
2011-09-26T13:11:27.586628,12180,-0.464514,0.866225,0.269951,-0.021642,0.049203,0.991854
2011-09-26T13:11:27.596628,12190,-0.397940,0.901517,0.265459,-0.023119,0.047930,0.985775
2011-09-26T13:11:27.606628,12200,-0.331366,0.936809,0.260968,-0.024597,0.046658,0.979696
2011-09-26T13:11:27.616628,12210,-0.264792,0.972101,0.256476,-0.026074,0.045385,0.973616
2011-09-26T13:11:27.626628,12220,-0.271921,0.919505,0.277866,-0.025673,0.045110,0.972921
2011-09-26T13:11:27.636628,12230,-0.283596,0.861487,0.300852,-0.025155,0.044897,0.972557
2011-09-26T13:11:27.646628,12240,-0.295271,0.803469,0.323838,-0.024638,0.044685,0.972193
2011-09-26T13:11:27.656628,12250,-0.306947,0.745451,0.346824,-0.024121,0.044472,0.971829
2011-09-26T13:11:27.666628,12260,-0.318622,0.687433,0.369810,-0.023604,0.044259,0.971465
2011-09-26T13:11:27.676628,12270,-0.330297,0.629415,0.392796,-0.023087,0.044046,0.971101
2011-09-26T13:11:27.686628,12280,-0.341972,0.571397,0.415782,-0.022570,0.043833,0.970738
2011-09-26T13:11:27.696628,12290,-0.353647,0.513379,0.438768,-0.022053,0.043620,0.970374
2011-09-26T13:11:27.706628,12300,-0.365323,0.455362,0.461754,-0.021536,0.043407,0.970010
2011-09-26T13:11:27.716628,12310,-0.376998,0.397344,0.484741,-0.021019,0.043194,0.969646
2011-09-26T13:11:27.726628,12320,-0.388673,0.339326,0.507727,-0.020502,0.042981,0.969282
2011-09-26T13:11:27.736628,12330,-0.372819,0.236780,0.524495,-0.019244,0.043673,0.971627
2011-09-26T13:11:27.746628,12340,-0.355016,0.131082,0.540824,-0.017934,0.044429,0.974163
2011-09-26T13:11:27.756628,12350,-0.337213,0.025385,0.557153,-0.016624,0.045185,0.976699
2011-09-26T13:11:27.766628,12360,-0.319410,-0.080313,0.573481,-0.015313,0.045942,0.979235
2011-09-26T13:11:27.776628,12370,-0.301607,-0.186011,0.589810,-0.014003,0.046698,0.981772
2011-09-26T13:11:27.786628,12380,-0.283804,-0.291709,0.606138,-0.012693,0.047454,0.984308
2011-09-26T13:11:27.796628,12390,-0.266001,-0.397407,0.622467,-0.011382,0.048210,0.986844
2011-09-26T13:11:27.806628,12400,-0.248198,-0.503105,0.638796,-0.010072,0.048966,0.989381
2011-09-26T13:11:27.816628,12410,-0.230395,-0.608802,0.655124,-0.008762,0.049723,0.991917
2011-09-26T13:11:27.826628,12420,-0.212592,-0.714500,0.671453,-0.007451,0.050479,0.994453
2011-09-26T13:11:27.836628,12430,-0.258631,-0.657916,0.669595,-0.006505,0.051463,0.995982
2011-09-26T13:11:27.846628,12440,-0.308301,-0.592103,0.666703,-0.005579,0.052460,0.997454
2011-09-26T13:11:27.856628,12450,-0.357970,-0.526290,0.663810,-0.004652,0.053457,0.998927
2011-09-26T13:11:27.866628,12460,-0.407640,-0.460477,0.660918,-0.003726,0.054454,1.000399
2011-09-26T13:11:27.876628,12470,-0.457309,-0.394664,0.658026,-0.002800,0.055450,1.001871
2011-09-26T13:11:27.886628,12480,-0.506978,-0.328851,0.655134,-0.001874,0.056447,1.003343
2011-09-26T13:11:27.896628,12490,-0.556648,-0.263038,0.652242,-0.000948,0.057444,1.004815
2011-09-26T13:11:27.906628,12500,-0.606317,-0.197225,0.649350,-0.000022,0.058441,1.006287
2011-09-26T13:11:27.916628,12510,-0.655987,-0.131412,0.646458,0.000904,0.059438,1.007759
2011-09-26T13:11:27.926628,12520,-0.705656,-0.065599,0.643565,0.001830,0.060435,1.009231
2011-09-26T13:11:27.936628,12530,-0.755326,0.000214,0.640673,0.002756,0.061432,1.010703
2011-09-26T13:11:27.946628,12540,-0.732246,0.090278,0.637492,0.003673,0.060315,1.010227
2011-09-26T13:11:27.956628,12550,-0.704891,0.181767,0.634293,0.004590,0.059073,1.009637
2011-09-26T13:11:27.966628,12560,-0.677537,0.273257,0.631095,0.005507,0.057832,1.009046
2011-09-26T13:11:27.976628,12570,-0.650182,0.364746,0.627897,0.006424,0.056590,1.008455
2011-09-26T13:11:27.986628,12580,-0.622828,0.456235,0.624698,0.007341,0.055348,1.007865
2011-09-26T13:11:27.996628,12590,-0.595473,0.547724,0.621500,0.008257,0.054107,1.007274
2011-09-26T13:11:28.006628,12600,-0.568119,0.639213,0.618302,0.009174,0.052865,1.006684
2011-09-26T13:11:28.016628,12610,-0.540764,0.730703,0.615103,0.010091,0.051624,1.006093
2011-09-26T13:11:28.026628,12620,-0.513410,0.822192,0.611905,0.011008,0.050382,1.005502
2011-09-26T13:11:28.036628,12630,-0.486055,0.913681,0.608707,0.011924,0.049141,1.004912
2011-09-26T13:11:28.046628,12640,-0.461681,1.028503,0.610556,0.011738,0.048811,1.003545
2011-09-26T13:11:28.056628,12650,-0.437472,1.144623,0.612687,0.011490,0.048533,1.002135
2011-09-26T13:11:28.066628,12660,-0.413263,1.260743,0.614817,0.011241,0.048254,1.000724
2011-09-26T13:11:28.076628,12670,-0.389054,1.376863,0.616948,0.010993,0.047975,0.999314
2011-09-26T13:11:28.086628,12680,-0.364846,1.492983,0.619078,0.010745,0.047696,0.997904
2011-09-26T13:11:28.096628,12690,-0.340637,1.609103,0.621209,0.010497,0.047418,0.996494
2011-09-26T13:11:28.106628,12700,-0.316428,1.725223,0.623339,0.010249,0.047139,0.995084
2011-09-26T13:11:28.116628,12710,-0.292220,1.841343,0.625470,0.010001,0.046860,0.993673
2011-09-26T13:11:28.126628,12720,-0.268011,1.957463,0.627600,0.009753,0.046581,0.992263
2011-09-26T13:11:28.136628,12730,-0.243802,2.073583,0.629731,0.009504,0.046302,0.990853
2011-09-26T13:11:28.146628,12740,-0.198793,1.985147,0.647169,0.007485,0.046159,0.984139
2011-09-26T13:11:28.156628,12750,-0.152576,1.884827,0.665496,0.005362,0.046023,0.977118
2011-09-26T13:11:28.166628,12760,-0.106358,1.784506,0.683824,0.003239,0.045887,0.970096
2011-09-26T13:11:28.176628,12770,-0.060141,1.684186,0.702151,0.001117,0.045751,0.963074
2011-09-26T13:11:28.186628,12780,-0.013923,1.583866,0.720479,-0.001006,0.045615,0.956053
2011-09-26T13:11:28.196628,12790,0.032294,1.483545,0.738806,-0.003129,0.045479,0.949031
2011-09-26T13:11:28.206628,12800,0.078512,1.383225,0.757133,-0.005251,0.045343,0.942009
2011-09-26T13:11:28.216628,12810,0.124729,1.282904,0.775461,-0.007374,0.045207,0.934988
2011-09-26T13:11:28.226628,12820,0.170947,1.182584,0.793788,-0.009496,0.045071,0.927966
2011-09-26T13:11:28.236628,12830,0.217164,1.082264,0.812116,-0.011619,0.044935,0.920944
2011-09-26T13:11:28.246628,12840,0.263382,0.981943,0.830443,-0.013742,0.044799,0.913923
2011-09-26T13:11:28.256628,12850,0.365150,0.795844,0.827448,-0.011603,0.045261,0.918354
2011-09-26T13:11:28.266628,12860,0.471403,0.602818,0.822731,-0.009121,0.045770,0.923709
2011-09-26T13:11:28.276628,12870,0.577656,0.409793,0.818015,-0.006638,0.046279,0.929065
2011-09-26T13:11:28.286628,12880,0.683909,0.216767,0.813298,-0.004155,0.046789,0.934420
2011-09-26T13:11:28.296628,12890,0.790162,0.023741,0.808581,-0.001673,0.047298,0.939776
2011-09-26T13:11:28.306628,12900,0.896416,-0.169284,0.803865,0.000810,0.047807,0.945131
2011-09-26T13:11:28.316628,12910,1.002669,-0.362310,0.799148,0.003293,0.048317,0.950487
2011-09-26T13:11:28.326628,12920,1.108922,-0.555335,0.794431,0.005775,0.048826,0.955843
2011-09-26T13:11:28.336628,12930,1.215175,-0.748361,0.789715,0.008258,0.049336,0.961198
2011-09-26T13:11:28.346628,12940,1.321428,-0.941386,0.784998,0.010741,0.049845,0.966554
2011-09-26T13:11:28.356628,12950,1.314495,-0.899842,0.789756,0.011409,0.051852,0.973664
2011-09-26T13:11:28.366628,12960,1.300908,-0.844511,0.795070,0.011971,0.053947,0.980877
2011-09-26T13:11:28.376628,12970,1.287321,-0.789179,0.800385,0.012533,0.056043,0.988090
2011-09-26T13:11:28.386628,12980,1.273734,-0.733847,0.805699,0.013095,0.058138,0.995303
2011-09-26T13:11:28.396628,12990,1.260147,-0.678515,0.811014,0.013656,0.060233,1.002516
2011-09-26T13:11:28.406628,13000,1.246560,-0.623183,0.816328,0.014218,0.062328,1.009729
2011-09-26T13:11:28.416628,13010,1.232973,-0.567851,0.821643,0.014780,0.064424,1.016942
2011-09-26T13:11:28.426628,13020,1.219386,-0.512519,0.826957,0.015342,0.066519,1.024155
2011-09-26T13:11:28.436628,13030,1.205799,-0.457187,0.832272,0.015904,0.068614,1.031368
2011-09-26T13:11:28.446628,13040,1.192212,-0.401855,0.837586,0.016466,0.070709,1.038582
2011-09-26T13:11:28.456628,13050,1.089680,-0.337433,0.855389,0.016475,0.069517,1.034717
2011-09-26T13:11:28.466628,13060,0.981488,-0.272432,0.873986,0.016450,0.068116,1.030147
2011-09-26T13:11:28.476628,13070,0.873297,-0.207431,0.892584,0.016424,0.066715,1.025578
2011-09-26T13:11:28.486628,13080,0.765106,-0.142430,0.911181,0.016399,0.065314,1.021008
2011-09-26T13:11:28.496628,13090,0.656915,-0.077430,0.929778,0.016373,0.063913,1.016439
2011-09-26T13:11:28.506628,13100,0.548723,-0.012429,0.948376,0.016348,0.062511,1.011869
2011-09-26T13:11:28.516628,13110,0.440532,0.052572,0.966973,0.016323,0.061110,1.007299
2011-09-26T13:11:28.526628,13120,0.332341,0.117573,0.985570,0.016297,0.059709,1.002730
2011-09-26T13:11:28.536628,13130,0.224149,0.182573,1.004168,0.016272,0.058308,0.998160
2011-09-26T13:11:28.546628,13140,0.115958,0.247574,1.022765,0.016246,0.056907,0.993591
2011-09-26T13:11:28.556628,13150,0.007767,0.312575,1.041362,0.016221,0.055505,0.989021
2011-09-26T13:11:28.566628,13160,0.038187,0.272627,1.035997,0.016053,0.057772,0.989098
2011-09-26T13:11:28.576628,13170,0.077395,0.226026,1.029112,0.015875,0.060271,0.989469
2011-09-26T13:11:28.586628,13180,0.116603,0.179425,1.022227,0.015698,0.062770,0.989840
2011-09-26T13:11:28.596628,13190,0.155811,0.132824,1.015342,0.015521,0.065269,0.990211
2011-09-26T13:11:28.606628,13200,0.195019,0.086223,1.008457,0.015344,0.067768,0.990582
2011-09-26T13:11:28.616628,13210,0.234227,0.039622,1.001573,0.015167,0.070268,0.990953
2011-09-26T13:11:28.626628,13220,0.273435,-0.006979,0.994688,0.014989,0.072767,0.991324
2011-09-26T13:11:28.636628,13230,0.312643,-0.053580,0.987803,0.014812,0.075266,0.991696
2011-09-26T13:11:28.646628,13240,0.351851,-0.100181,0.980918,0.014635,0.077765,0.992067
2011-09-26T13:11:28.656628,13250,0.391059,-0.146782,0.974033,0.014458,0.080264,0.992438
2011-09-26T13:11:28.666628,13260,0.289117,-0.112433,0.958534,0.015134,0.079749,0.994164
2011-09-26T13:11:28.676628,13270,0.178229,-0.072954,0.942488,0.015863,0.079043,0.995977
2011-09-26T13:11:28.686628,13280,0.067341,-0.033476,0.926442,0.016593,0.078337,0.997789
2011-09-26T13:11:28.696628,13290,-0.043546,0.006003,0.910396,0.017323,0.077632,0.999602
2011-09-26T13:11:28.706628,13300,-0.154434,0.045481,0.894350,0.018053,0.076926,1.001414
2011-09-26T13:11:28.716628,13310,-0.265321,0.084960,0.878304,0.018782,0.076220,1.003227
2011-09-26T13:11:28.726628,13320,-0.376209,0.124438,0.862259,0.019512,0.075514,1.005040
2011-09-26T13:11:28.736628,13330,-0.487097,0.163917,0.846213,0.020242,0.074808,1.006852
2011-09-26T13:11:28.746628,13340,-0.597984,0.203396,0.830167,0.020972,0.074102,1.008665
2011-09-26T13:11:28.756628,13350,-0.708872,0.242874,0.814121,0.021702,0.073397,1.010477
2011-09-26T13:11:28.766628,13360,-0.684800,0.270099,0.818289,0.021452,0.072180,1.009588
2011-09-26T13:11:28.776628,13370,-0.652737,0.296597,0.823654,0.021144,0.070933,1.008539
2011-09-26T13:11:28.786628,13380,-0.620673,0.323096,0.829018,0.020836,0.069686,1.007490
2011-09-26T13:11:28.796628,13390,-0.588609,0.349595,0.834383,0.020529,0.068439,1.006441
2011-09-26T13:11:28.806628,13400,-0.556545,0.376094,0.839748,0.020221,0.067192,1.005392
2011-09-26T13:11:28.816628,13410,-0.524482,0.402593,0.845113,0.019913,0.065945,1.004343
2011-09-26T13:11:28.826628,13420,-0.492418,0.429092,0.850478,0.019605,0.064698,1.003294
2011-09-26T13:11:28.836628,13430,-0.460354,0.455590,0.855842,0.019298,0.063451,1.002244
2011-09-26T13:11:28.846628,13440,-0.428291,0.482089,0.861207,0.018990,0.062204,1.001195
2011-09-26T13:11:28.856628,13450,-0.396227,0.508588,0.866572,0.018682,0.060957,1.000146
2011-09-26T13:11:28.866628,13460,-0.364163,0.535087,0.871937,0.018375,0.059710,0.999097
2011-09-26T13:11:28.876628,13470,-0.308296,0.520410,0.873048,0.018330,0.059311,0.997225
2011-09-26T13:11:28.886628,13480,-0.250959,0.503189,0.873897,0.018302,0.058965,0.995302
2011-09-26T13:11:28.896628,13490,-0.193621,0.485967,0.874746,0.018274,0.058619,0.993380
2011-09-26T13:11:28.906628,13500,-0.136283,0.468746,0.875594,0.018246,0.058273,0.991457
2011-09-26T13:11:28.916628,13510,-0.078945,0.451525,0.876443,0.018218,0.057927,0.989534
2011-09-26T13:11:28.926628,13520,-0.021608,0.434303,0.877292,0.018190,0.057582,0.987611
2011-09-26T13:11:28.936628,13530,0.035730,0.417082,0.878140,0.018162,0.057236,0.985689
2011-09-26T13:11:28.946628,13540,0.093068,0.399860,0.878989,0.018134,0.056890,0.983766
