pc_time,ts_ms,gyroX,gyroY,gyroZ,accelX,accelY,accelZ
2011-09-26T15:05:33.492908,0,0.242927,-0.090330,-2.713089,0.006190,0.100091,0.990733
2011-09-26T15:05:33.502908,10,0.252335,-0.097491,-2.693887,0.006078,0.097544,0.991430
2011-09-26T15:05:33.512908,20,0.261744,-0.104653,-2.674686,0.005966,0.094997,0.992126
2011-09-26T15:05:33.522908,30,0.271152,-0.111814,-2.655485,0.005854,0.092451,0.992823
2011-09-26T15:05:33.532908,40,0.280560,-0.118976,-2.636283,0.005742,0.089904,0.993519
2011-09-26T15:05:33.542908,50,0.289969,-0.126138,-2.617082,0.005629,0.087357,0.994216
2011-09-26T15:05:33.552908,60,0.299377,-0.133299,-2.597881,0.005517,0.084811,0.994913
2011-09-26T15:05:33.562908,70,0.308785,-0.140461,-2.578679,0.005405,0.082264,0.995609
2011-09-26T15:05:33.572908,80,0.318193,-0.147623,-2.559478,0.005293,0.079717,0.996306
2011-09-26T15:05:33.582908,90,0.327602,-0.154784,-2.540277,0.005181,0.077171,0.997003
2011-09-26T15:05:33.592908,100,0.337010,-0.161946,-2.521075,0.005069,0.074624,0.997699
2011-09-26T15:05:33.602908,110,0.337072,-0.160286,-2.416284,0.007001,0.075353,0.996660
2011-09-26T15:05:33.612908,120,0.337005,-0.158506,-2.310320,0.008961,0.076126,0.995597
2011-09-26T15:05:33.622908,130,0.336939,-0.156726,-2.204357,0.010922,0.076900,0.994534
2011-09-26T15:05:33.632908,140,0.336873,-0.154945,-2.098394,0.012882,0.077674,0.993471
2011-09-26T15:05:33.642908,150,0.336807,-0.153165,-1.992431,0.014843,0.078447,0.992408
2011-09-26T15:05:33.652908,160,0.336740,-0.151385,-1.886467,0.016803,0.079221,0.991345
2011-09-26T15:05:33.662908,170,0.336674,-0.149604,-1.780504,0.018763,0.079994,0.990282
2011-09-26T15:05:33.672908,180,0.336608,-0.147824,-1.674541,0.020724,0.080768,0.989219
2011-09-26T15:05:33.682908,190,0.336541,-0.146044,-1.568578,0.022684,0.081542,0.988157
2011-09-26T15:05:33.692908,200,0.336475,-0.144263,-1.462614,0.024644,0.082315,0.987094
2011-09-26T15:05:33.702908,210,0.303053,-0.198225,-1.435118,0.029228,0.084689,0.986838
2011-09-26T15:05:33.712908,220,0.269426,-0.252528,-1.408102,0.033827,0.087073,0.986588
2011-09-26T15:05:33.722908,230,0.235799,-0.306832,-1.381087,0.038426,0.089456,0.986338
2011-09-26T15:05:33.732908,240,0.202172,-0.361135,-1.354072,0.043025,0.091840,0.986088
2011-09-26T15:05:33.742908,250,0.168545,-0.415439,-1.327057,0.047624,0.094224,0.985838
2011-09-26T15:05:33.752908,260,0.134918,-0.469742,-1.300042,0.052223,0.096608,0.985587
2011-09-26T15:05:33.762908,270,0.101291,-0.524046,-1.273027,0.056823,0.098991,0.985337
2011-09-26T15:05:33.772908,280,0.067664,-0.578350,-1.246012,0.061422,0.101375,0.985087
2011-09-26T15:05:33.782908,290,0.034037,-0.632653,-1.218997,0.066021,0.103759,0.984837
2011-09-26T15:05:33.792908,300,0.000410,-0.686957,-1.191982,0.070620,0.106142,0.984587
2011-09-26T15:05:33.802908,310,-0.033217,-0.741260,-1.164967,0.075219,0.108526,0.984337
2011-09-26T15:05:33.812908,320,-0.037321,-0.769637,-1.193117,0.077799,0.106126,0.985633
2011-09-26T15:05:33.822908,330,-0.041333,-0.797933,-1.221439,0.080373,0.103711,0.986933
2011-09-26T15:05:33.832908,340,-0.045346,-0.826229,-1.249761,0.082946,0.101296,0.988234
2011-09-26T15:05:33.842908,350,-0.049358,-0.854525,-1.278083,0.085520,0.098881,0.989535
2011-09-26T15:05:33.852908,360,-0.053370,-0.882822,-1.306404,0.088093,0.096466,0.990836
2011-09-26T15:05:33.862908,370,-0.057383,-0.911118,-1.334726,0.090667,0.094051,0.992137
2011-09-26T15:05:33.872908,380,-0.061395,-0.939414,-1.363048,0.093240,0.091636,0.993437
2011-09-26T15:05:33.882908,390,-0.065407,-0.967710,-1.391370,0.095814,0.089221,0.994738
2011-09-26T15:05:33.892908,400,-0.069419,-0.996006,-1.419692,0.098387,0.086806,0.996039
2011-09-26T15:05:33.902908,410,-0.073432,-1.024302,-1.448014,0.100960,0.084391,0.997340
2011-09-26T15:05:33.912908,420,-0.033816,-1.021228,-1.359530,0.103251,0.082664,0.997722
2011-09-26T15:05:33.922908,430,0.005830,-1.018132,-1.270964,0.105541,0.080937,0.998104
2011-09-26T15:05:33.932908,440,0.045476,-1.015036,-1.182397,0.107831,0.079210,0.998486
2011-09-26T15:05:33.942908,450,0.085123,-1.011939,-1.093831,0.110121,0.077483,0.998867
2011-09-26T15:05:33.952908,460,0.124769,-1.008843,-1.005264,0.112411,0.075756,0.999249
2011-09-26T15:05:33.962908,470,0.164415,-1.005747,-0.916698,0.114701,0.074030,0.999631
2011-09-26T15:05:33.972908,480,0.204062,-1.002650,-0.828132,0.116992,0.072303,1.000012
2011-09-26T15:05:33.982908,490,0.243708,-0.999554,-0.739565,0.119282,0.070576,1.000394
2011-09-26T15:05:33.992908,500,0.283354,-0.996458,-0.650999,0.121572,0.068849,1.000776
2011-09-26T15:05:34.002908,510,0.323000,-0.993361,-0.562432,0.123862,0.067122,1.001157
2011-09-26T15:05:34.012908,520,0.322702,-0.974528,-0.495283,0.127039,0.070506,1.000742
2011-09-26T15:05:34.022908,530,0.322299,-0.955654,-0.428190,0.130217,0.073904,1.000325
2011-09-26T15:05:34.032908,540,0.321897,-0.936780,-0.361097,0.133396,0.077301,0.999908
2011-09-26T15:05:34.042908,550,0.321494,-0.917906,-0.294004,0.136575,0.080698,0.999492
2011-09-26T15:05:34.052908,560,0.321091,-0.899032,-0.226911,0.139754,0.084096,0.999075
2011-09-26T15:05:34.062908,570,0.320688,-0.880158,-0.159818,0.142933,0.087493,0.998658
2011-09-26T15:05:34.072908,580,0.320285,-0.861284,-0.092724,0.146112,0.090891,0.998241
2011-09-26T15:05:34.082908,590,0.319882,-0.842410,-0.025631,0.149291,0.094288,0.997824
2011-09-26T15:05:34.092908,600,0.319480,-0.823536,0.041462,0.152470,0.097685,0.997407
2011-09-26T15:05:34.102908,610,0.319077,-0.804661,0.108555,0.155649,0.101083,0.996990
2011-09-26T15:05:34.112908,620,0.318674,-0.785787,0.175648,0.158828,0.104480,0.996573
2011-09-26T15:05:34.122908,630,0.259876,-0.759596,0.100152,0.157269,0.105323,0.998645
2011-09-26T15:05:34.132908,640,0.200278,-0.733304,0.022705,0.155645,0.106132,1.000750
2011-09-26T15:05:34.142908,650,0.140680,-0.707012,-0.054742,0.154022,0.106940,1.002856
2011-09-26T15:05:34.152908,660,0.081083,-0.680721,-0.132189,0.152398,0.107748,1.004962
2011-09-26T15:05:34.162908,670,0.021485,-0.654429,-0.209636,0.150775,0.108557,1.007067
2011-09-26T15:05:34.172908,680,-0.038112,-0.628138,-0.287084,0.149151,0.109365,1.009173
2011-09-26T15:05:34.182908,690,-0.097710,-0.601846,-0.364531,0.147528,0.110174,1.011279
2011-09-26T15:05:34.192908,700,-0.157307,-0.575554,-0.441978,0.145904,0.110982,1.013384
2011-09-26T15:05:34.202908,710,-0.216905,-0.549263,-0.519425,0.144280,0.111790,1.015490
2011-09-26T15:05:34.212908,720,-0.276503,-0.522971,-0.596872,0.142657,0.112599,1.017596
2011-09-26T15:05:34.222908,730,-0.292011,-0.450526,-0.635585,0.143033,0.108488,1.015403
2011-09-26T15:05:34.232908,740,-0.307122,-0.377665,-0.673950,0.143427,0.104332,1.013172
2011-09-26T15:05:34.242908,750,-0.322234,-0.304805,-0.712315,0.143821,0.100177,1.010942
2011-09-26T15:05:34.252908,760,-0.337346,-0.231944,-0.750679,0.144215,0.096022,1.008711
2011-09-26T15:05:34.262908,770,-0.352458,-0.159084,-0.789044,0.144608,0.091867,1.006480
2011-09-26T15:05:34.272908,780,-0.367569,-0.086224,-0.827409,0.145002,0.087711,1.004249
2011-09-26T15:05:34.282908,790,-0.382681,-0.013363,-0.865774,0.145396,0.083556,1.002018
2011-09-26T15:05:34.292908,800,-0.397793,0.059497,-0.904138,0.145790,0.079401,0.999787
2011-09-26T15:05:34.302908,810,-0.412905,0.132357,-0.942503,0.146184,0.075246,0.997556
2011-09-26T15:05:34.312908,820,-0.428016,0.205218,-0.980868,0.146578,0.071090,0.995325
2011-09-26T15:05:34.322908,830,-0.407969,0.142140,-0.984379,0.148125,0.072330,0.994893
2011-09-26T15:05:34.332908,840,-0.387712,0.078255,-0.987682,0.149678,0.073602,0.994471
2011-09-26T15:05:34.342908,850,-0.367456,0.014370,-0.990986,0.151231,0.074874,0.994049
2011-09-26T15:05:34.352908,860,-0.347199,-0.049515,-0.994289,0.152785,0.076146,0.993627
2011-09-26T15:05:34.362908,870,-0.326943,-0.113400,-0.997593,0.154338,0.077418,0.993206
2011-09-26T15:05:34.372908,880,-0.306687,-0.177285,-1.000897,0.155892,0.078691,0.992784
2011-09-26T15:05:34.382908,890,-0.286430,-0.241170,-1.004200,0.157445,0.079963,0.992362
2011-09-26T15:05:34.392908,900,-0.266174,-0.305056,-1.007504,0.158998,0.081235,0.991940
2011-09-26T15:05:34.402908,910,-0.245917,-0.368941,-1.010807,0.160552,0.082507,0.991518
2011-09-26T15:05:34.412908,920,-0.225661,-0.432826,-1.014111,0.162105,0.083779,0.991096
2011-09-26T15:05:34.422908,930,-0.205404,-0.496711,-1.017415,0.163658,0.085051,0.990675
2011-09-26T15:05:34.432908,940,-0.202459,-0.493595,-1.155249,0.165804,0.086567,0.989982
2011-09-26T15:05:34.442908,950,-0.199588,-0.490189,-1.293664,0.167952,0.088083,0.989289
2011-09-26T15:05:34.452908,960,-0.196717,-0.486783,-1.432078,0.170100,0.089600,0.988595
2011-09-26T15:05:34.462908,970,-0.193846,-0.483378,-1.570493,0.172247,0.091117,0.987902
2011-09-26T15:05:34.472908,980,-0.190975,-0.479972,-1.708908,0.174395,0.092634,0.987208
2011-09-26T15:05:34.482908,990,-0.188104,-0.476567,-1.847323,0.176543,0.094151,0.986515
2011-09-26T15:05:34.492908,1000,-0.185233,-0.473161,-1.985737,0.178691,0.095668,0.985821
2011-09-26T15:05:34.502908,1010,-0.182362,-0.469755,-2.124152,0.180839,0.097184,0.985128
2011-09-26T15:05:34.512908,1020,-0.179492,-0.466350,-2.262567,0.182987,0.098701,0.984434
2011-09-26T15:05:34.522908,1030,-0.176621,-0.462944,-2.400982,0.185135,0.100218,0.983741
2011-09-26T15:05:34.532908,1040,-0.172029,-0.512471,-2.549598,0.188143,0.098076,0.983844
2011-09-26T15:05:34.542908,1050,-0.167426,-0.562306,-2.698273,0.191156,0.095912,0.983952
2011-09-26T15:05:34.552908,1060,-0.162824,-0.612141,-2.846948,0.194170,0.093749,0.984061
2011-09-26T15:05:34.562908,1070,-0.158222,-0.661975,-2.995623,0.197183,0.091586,0.984169
2011-09-26T15:05:34.572908,1080,-0.153620,-0.711810,-3.144298,0.200197,0.089422,0.984277
2011-09-26T15:05:34.582908,1090,-0.149018,-0.761645,-3.292974,0.203210,0.087259,0.984385
2011-09-26T15:05:34.592908,1100,-0.144416,-0.811480,-3.441649,0.206223,0.085095,0.984493
2011-09-26T15:05:34.602908,1110,-0.139814,-0.861315,-3.590324,0.209237,0.082932,0.984601
2011-09-26T15:05:34.612908,1120,-0.135212,-0.911149,-3.738999,0.212250,0.080768,0.984710
2011-09-26T15:05:34.622908,1130,-0.130609,-0.960984,-3.887674,0.215263,0.078605,0.984818
2011-09-26T15:05:34.632908,1140,-0.151602,-0.954680,-3.991188,0.215517,0.079050,0.985874
2011-09-26T15:05:34.642908,1150,-0.172911,-0.947681,-4.094144,0.215737,0.079528,0.986943
2011-09-26T15:05:34.652908,1160,-0.194219,-0.940683,-4.197100,0.215956,0.080006,0.988011
2011-09-26T15:05:34.662908,1170,-0.215528,-0.933685,-4.300056,0.216176,0.080483,0.989080
2011-09-26T15:05:34.672908,1180,-0.236837,-0.926686,-4.403011,0.216395,0.080961,0.990148
2011-09-26T15:05:34.682908,1190,-0.258146,-0.919688,-4.505967,0.216615,0.081439,0.991217
2011-09-26T15:05:34.692908,1200,-0.279454,-0.912689,-4.608923,0.216834,0.081916,0.992285
2011-09-26T15:05:34.702908,1210,-0.300763,-0.905691,-4.711879,0.217054,0.082394,0.993354
2011-09-26T15:05:34.712908,1220,-0.322072,-0.898693,-4.814835,0.217273,0.082872,0.994422
2011-09-26T15:05:34.722908,1230,-0.343381,-0.891694,-4.917790,0.217493,0.083349,0.995490
2011-09-26T15:05:34.732908,1240,-0.364689,-0.884696,-5.020746,0.217712,0.083827,0.996559
2011-09-26T15:05:34.742908,1250,-0.384575,-0.917650,-5.184126,0.218765,0.083706,0.996848
2011-09-26T15:05:34.752908,1260,-0.404449,-0.950914,-5.347975,0.219824,0.083581,0.997131
2011-09-26T15:05:34.762908,1270,-0.424324,-0.984179,-5.511824,0.220884,0.083455,0.997414
2011-09-26T15:05:34.772908,1280,-0.444198,-1.017444,-5.675673,0.221943,0.083330,0.997697
2011-09-26T15:05:34.782908,1290,-0.464073,-1.050708,-5.839522,0.223002,0.083204,0.997979
2011-09-26T15:05:34.792908,1300,-0.483947,-1.083973,-6.003371,0.224062,0.083079,0.998262
2011-09-26T15:05:34.802908,1310,-0.503822,-1.117237,-6.167220,0.225121,0.082953,0.998545
2011-09-26T15:05:34.812908,1320,-0.523696,-1.150502,-6.331069,0.226180,0.082828,0.998828
2011-09-26T15:05:34.822908,1330,-0.543570,-1.183766,-6.494918,0.227240,0.082702,0.999111
2011-09-26T15:05:34.832908,1340,-0.563445,-1.217031,-6.658767,0.228299,0.082577,0.999394
2011-09-26T15:05:34.842908,1350,-0.524847,-1.232329,-6.839439,0.228050,0.079971,0.999735
2011-09-26T15:05:34.852908,1360,-0.485623,-1.247435,-7.020290,0.227787,0.077339,1.000076
2011-09-26T15:05:34.862908,1370,-0.446399,-1.262540,-7.201142,0.227524,0.074707,1.000418
2011-09-26T15:05:34.872908,1380,-0.407175,-1.277646,-7.381994,0.227261,0.072075,1.000759
2011-09-26T15:05:34.882908,1390,-0.367951,-1.292752,-7.562846,0.226998,0.069443,1.001101
2011-09-26T15:05:34.892908,1400,-0.328727,-1.307857,-7.743698,0.226735,0.066811,1.001442
2011-09-26T15:05:34.902908,1410,-0.289503,-1.322963,-7.924550,0.226472,0.064179,1.001784
2011-09-26T15:05:34.912908,1420,-0.250279,-1.338068,-8.105402,0.226209,0.061547,1.002125
2011-09-26T15:05:34.922908,1430,-0.211055,-1.353174,-8.286254,0.225946,0.058915,1.002467
2011-09-26T15:05:34.932908,1440,-0.171831,-1.368280,-8.467106,0.225683,0.056283,1.002808
2011-09-26T15:05:34.942908,1450,-0.101618,-1.373624,-8.595980,0.226409,0.055541,1.002524
2011-09-26T15:05:34.952908,1460,-0.031279,-1.378929,-8.724641,0.227138,0.054808,1.002236
2011-09-26T15:05:34.962908,1470,0.039061,-1.384233,-8.853301,0.227868,0.054074,1.001949
2011-09-26T15:05:34.972908,1480,0.109401,-1.389538,-8.981962,0.228598,0.053341,1.001662
2011-09-26T15:05:34.982908,1490,0.179741,-1.394842,-9.110622,0.229327,0.052607,1.001374
2011-09-26T15:05:34.992908,1500,0.250081,-1.400146,-9.239283,0.230057,0.051874,1.001087
2011-09-26T15:05:35.002908,1510,0.320421,-1.405451,-9.367943,0.230786,0.051140,1.000800
2011-09-26T15:05:35.012908,1520,0.390761,-1.410755,-9.496604,0.231516,0.050407,1.000513
2011-09-26T15:05:35.022908,1530,0.461101,-1.416060,-9.625264,0.232246,0.049673,1.000225
2011-09-26T15:05:35.032908,1540,0.531441,-1.421364,-9.753925,0.232975,0.048940,0.999938
2011-09-26T15:05:35.042908,1550,0.601780,-1.426669,-9.882585,0.233705,0.048207,0.999651
2011-09-26T15:05:35.052908,1560,0.658804,-1.410368,-10.013819,0.235273,0.048757,0.998253
2011-09-26T15:05:35.062908,1570,0.715692,-1.393849,-10.145079,0.236850,0.049320,0.996845
2011-09-26T15:05:35.072908,1580,0.772581,-1.377330,-10.276339,0.238426,0.049883,0.995437
2011-09-26T15:05:35.082908,1590,0.829470,-1.360811,-10.407599,0.240003,0.050446,0.994028
2011-09-26T15:05:35.092908,1600,0.886358,-1.344292,-10.538859,0.241580,0.051009,0.992620
2011-09-26T15:05:35.102908,1610,0.943247,-1.327773,-10.670119,0.243157,0.051572,0.991212
2011-09-26T15:05:35.112908,1620,1.000136,-1.311254,-10.801379,0.244733,0.052135,0.989803
2011-09-26T15:05:35.122908,1630,1.057024,-1.294735,-10.932639,0.246310,0.052698,0.988395
2011-09-26T15:05:35.132908,1640,1.113913,-1.278217,-11.063899,0.247887,0.053261,0.986987
2011-09-26T15:05:35.142908,1650,1.170802,-1.261698,-11.195159,0.249463,0.053824,0.985578
2011-09-26T15:05:35.152908,1660,1.129230,-1.309200,-11.299069,0.249845,0.055045,0.984962
2011-09-26T15:05:35.162908,1670,1.085679,-1.357988,-11.402429,0.250202,0.056279,0.984360
2011-09-26T15:05:35.172908,1680,1.042128,-1.406777,-11.505789,0.250559,0.057513,0.983759
2011-09-26T15:05:35.182908,1690,0.998577,-1.455566,-11.609149,0.250916,0.058747,0.983158
2011-09-26T15:05:35.192908,1700,0.955026,-1.504354,-11.712509,0.251273,0.059981,0.982557
2011-09-26T15:05:35.202908,1710,0.911476,-1.553143,-11.815870,0.251630,0.061215,0.981956
2011-09-26T15:05:35.212908,1720,0.867925,-1.601932,-11.919230,0.251987,0.062449,0.981355
2011-09-26T15:05:35.222908,1730,0.824374,-1.650720,-12.022590,0.252345,0.063683,0.980754
2011-09-26T15:05:35.232908,1740,0.780823,-1.699509,-12.125950,0.252702,0.064917,0.980153
2011-09-26T15:05:35.242908,1750,0.737272,-1.748298,-12.229310,0.253059,0.066151,0.979552
2011-09-26T15:05:35.252908,1760,0.681839,-1.733259,-12.320419,0.252941,0.065291,0.981563
2011-09-26T15:05:35.262908,1770,0.626312,-1.717714,-12.411430,0.252819,0.064413,0.983595
2011-09-26T15:05:35.272908,1780,0.570784,-1.702168,-12.502441,0.252697,0.063536,0.985627
2011-09-26T15:05:35.282908,1790,0.515257,-1.686622,-12.593452,0.252576,0.062659,0.987659
2011-09-26T15:05:35.292908,1800,0.459730,-1.671077,-12.684463,0.252454,0.061781,0.989691
2011-09-26T15:05:35.302908,1810,0.404202,-1.655531,-12.775474,0.252332,0.060904,0.991723
2011-09-26T15:05:35.312908,1820,0.348675,-1.639985,-12.866486,0.252211,0.060027,0.993755
2011-09-26T15:05:35.322908,1830,0.293148,-1.624440,-12.957497,0.252089,0.059150,0.995787
2011-09-26T15:05:35.332908,1840,0.237620,-1.608894,-13.048508,0.251967,0.058272,0.997819
2011-09-26T15:05:35.342908,1850,0.182093,-1.593348,-13.139519,0.251845,0.057395,0.999851
2011-09-26T15:05:35.352908,1860,0.126565,-1.577802,-13.230530,0.251724,0.056518,1.001883
2011-09-26T15:05:35.362908,1870,0.131668,-1.559939,-13.291557,0.251298,0.053303,1.003679
2011-09-26T15:05:35.372908,1880,0.137489,-1.542049,-13.352228,0.250868,0.050060,1.005472
2011-09-26T15:05:35.382908,1890,0.143309,-1.524158,-13.412900,0.250439,0.046817,1.007266
2011-09-26T15:05:35.392908,1900,0.149129,-1.506268,-13.473571,0.250009,0.043574,1.009059
2011-09-26T15:05:35.402908,1910,0.154949,-1.488377,-13.534243,0.249579,0.040331,1.010852
2011-09-26T15:05:35.412908,1920,0.160769,-1.470487,-13.594914,0.249150,0.037089,1.012645
2011-09-26T15:05:35.422908,1930,0.166590,-1.452596,-13.655586,0.248720,0.033846,1.014438
2011-09-26T15:05:35.432908,1940,0.172410,-1.434706,-13.716258,0.248291,0.030603,1.016231
2011-09-26T15:05:35.442908,1950,0.178230,-1.416815,-13.776929,0.247861,0.027360,1.018025
2011-09-26T15:05:35.452908,1960,0.184050,-1.398924,-13.837601,0.247431,0.024117,1.019818
2011-09-26T15:05:35.462908,1970,0.254801,-1.380147,-13.872189,0.247709,0.024770,1.019341
2011-09-26T15:05:35.472908,1980,0.326136,-1.361362,-13.906542,0.247993,0.025457,1.018844
2011-09-26T15:05:35.482908,1990,0.397471,-1.342576,-13.940896,0.248277,0.026145,1.018348
2011-09-26T15:05:35.492908,2000,0.468805,-1.323791,-13.975250,0.248561,0.026832,1.017851
2011-09-26T15:05:35.502908,2010,0.540140,-1.305006,-14.009603,0.248845,0.027520,1.017354
2011-09-26T15:05:35.512908,2020,0.611475,-1.286220,-14.043957,0.249129,0.028207,1.016857
2011-09-26T15:05:35.522908,2030,0.682809,-1.267435,-14.078310,0.249413,0.028895,1.016360
2011-09-26T15:05:35.532908,2040,0.754144,-1.248649,-14.112664,0.249697,0.029582,1.015863
2011-09-26T15:05:35.542908,2050,0.825479,-1.229864,-14.147018,0.249981,0.030270,1.015366
2011-09-26T15:05:35.552908,2060,0.896813,-1.211079,-14.181371,0.250265,0.030957,1.014870
2011-09-26T15:05:35.562908,2070,0.968148,-1.192293,-14.215725,0.250549,0.031645,1.014373
2011-09-26T15:05:35.572908,2080,1.017446,-1.179356,-14.229215,0.248822,0.030254,1.013891
2011-09-26T15:05:35.582908,2090,1.066502,-1.166484,-14.242477,0.247072,0.028841,1.013410
2011-09-26T15:05:35.592908,2100,1.115558,-1.153611,-14.255738,0.245322,0.027428,1.012928
2011-09-26T15:05:35.602908,2110,1.164613,-1.140738,-14.268999,0.243573,0.026014,1.012447
2011-09-26T15:05:35.612908,2120,1.213669,-1.127865,-14.282260,0.241823,0.024601,1.011965
2011-09-26T15:05:35.622908,2130,1.262724,-1.114993,-14.295521,0.240073,0.023187,1.011484
2011-09-26T15:05:35.632908,2140,1.311780,-1.102120,-14.308782,0.238324,0.021774,1.011002
2011-09-26T15:05:35.642908,2150,1.360836,-1.089247,-14.322043,0.236574,0.020361,1.010521
2011-09-26T15:05:35.652908,2160,1.409891,-1.076375,-14.335304,0.234825,0.018947,1.010040
2011-09-26T15:05:35.662908,2170,1.458947,-1.063502,-14.348565,0.233075,0.017534,1.009558
2011-09-26T15:05:35.672908,2180,1.547977,-1.082035,-14.333438,0.232127,0.016819,1.008984
2011-09-26T15:05:35.682908,2190,1.637531,-1.100978,-14.317938,0.231189,0.016113,1.008409
2011-09-26T15:05:35.692908,2200,1.727084,-1.119921,-14.302439,0.230251,0.015407,1.007835
2011-09-26T15:05:35.702908,2210,1.816637,-1.138865,-14.286940,0.229314,0.014702,1.007260
2011-09-26T15:05:35.712908,2220,1.906191,-1.157808,-14.271441,0.228376,0.013996,1.006685
2011-09-26T15:05:35.722908,2230,1.995744,-1.176751,-14.255942,0.227438,0.013290,1.006110
2011-09-26T15:05:35.732908,2240,2.085298,-1.195695,-14.240443,0.226500,0.012584,1.005535
2011-09-26T15:05:35.742908,2250,2.174851,-1.214638,-14.224943,0.225563,0.011879,1.004960
2011-09-26T15:05:35.752908,2260,2.264405,-1.233582,-14.209444,0.224625,0.011173,1.004385
2011-09-26T15:05:35.762908,2270,2.353958,-1.252525,-14.193945,0.223687,0.010467,1.003810
2011-09-26T15:05:35.772908,2280,2.426694,-1.250686,-14.147164,0.223449,0.011075,1.002123
2011-09-26T15:05:35.782908,2290,2.499141,-1.248489,-14.099846,0.223223,0.011705,1.000417
2011-09-26T15:05:35.792908,2300,2.571588,-1.246293,-14.052528,0.222997,0.012335,0.998710
2011-09-26T15:05:35.802908,2310,2.644035,-1.244096,-14.005209,0.222771,0.012965,0.997004
2011-09-26T15:05:35.812908,2320,2.716482,-1.241899,-13.957891,0.222545,0.013595,0.995298
2011-09-26T15:05:35.822908,2330,2.788929,-1.239703,-13.910573,0.222319,0.014225,0.993591
2011-09-26T15:05:35.832908,2340,2.861376,-1.237506,-13.863254,0.222094,0.014855,0.991885
2011-09-26T15:05:35.842908,2350,2.933823,-1.235310,-13.815936,0.221868,0.015485,0.990179
2011-09-26T15:05:35.852908,2360,3.006270,-1.233113,-13.768618,0.221642,0.016115,0.988472
2011-09-26T15:05:35.862908,2370,3.078717,-1.230917,-13.721299,0.221416,0.016745,0.986766
2011-09-26T15:05:35.872908,2380,3.151164,-1.228720,-13.673981,0.221190,0.017375,0.985060
2011-09-26T15:05:35.882908,2390,3.089727,-1.314653,-13.556496,0.220651,0.019070,0.985154
2011-09-26T15:05:35.892908,2400,3.026609,-1.401691,-13.438130,0.220108,0.020779,0.985272
2011-09-26T15:05:35.902908,2410,2.963491,-1.488730,-13.319764,0.219566,0.022487,0.985389
2011-09-26T15:05:35.912908,2420,2.900373,-1.575769,-13.201399,0.219023,0.024196,0.985506
2011-09-26T15:05:35.922908,2430,2.837255,-1.662808,-13.083033,0.218480,0.025905,0.985624
2011-09-26T15:05:35.932908,2440,2.774137,-1.749847,-12.964667,0.217938,0.027613,0.985741
2011-09-26T15:05:35.942908,2450,2.711019,-1.836886,-12.846301,0.217395,0.029322,0.985858
2011-09-26T15:05:35.952908,2460,2.647901,-1.923925,-12.727935,0.216852,0.031030,0.985976
2011-09-26T15:05:35.962908,2470,2.584783,-2.010964,-12.609569,0.216310,0.032739,0.986093
2011-09-26T15:05:35.972908,2480,2.521665,-2.098003,-12.491203,0.215767,0.034448,0.986210
2011-09-26T15:05:35.982908,2490,2.601682,-2.164318,-12.376801,0.216487,0.035808,0.989404
2011-09-26T15:05:35.992908,2500,2.683952,-2.230306,-12.262462,0.217226,0.037164,0.992646
2011-09-26T15:05:36.002908,2510,2.766223,-2.296295,-12.148122,0.217966,0.038519,0.995888
2011-09-26T15:05:36.012908,2520,2.848493,-2.362283,-12.033783,0.218706,0.039874,0.999130
2011-09-26T15:05:36.022908,2530,2.930764,-2.428272,-11.919443,0.219445,0.041229,1.002372
2011-09-26T15:05:36.032908,2540,3.013034,-2.494260,-11.805104,0.220185,0.042585,1.005615
2011-09-26T15:05:36.042908,2550,3.095305,-2.560249,-11.690764,0.220925,0.043940,1.008857
2011-09-26T15:05:36.052908,2560,3.177575,-2.626237,-11.576425,0.221664,0.045295,1.012099
2011-09-26T15:05:36.062908,2570,3.259846,-2.692225,-11.462085,0.222404,0.046650,1.015341
2011-09-26T15:05:36.072908,2580,3.342116,-2.758214,-11.347746,0.223143,0.048006,1.018583
2011-09-26T15:05:36.082908,2590,3.165789,-2.721446,-11.212773,0.222763,0.051030,1.016663
2011-09-26T15:05:36.092908,2600,2.983969,-2.682495,-11.077362,0.222358,0.054089,1.014634
2011-09-26T15:05:36.102908,2610,2.802149,-2.643544,-10.941952,0.221954,0.057149,1.012605
2011-09-26T15:05:36.112908,2620,2.620329,-2.604593,-10.806541,0.221550,0.060208,1.010576
2011-09-26T15:05:36.122908,2630,2.438508,-2.565642,-10.671130,0.221145,0.063268,1.008547
2011-09-26T15:05:36.132908,2640,2.256688,-2.526691,-10.535719,0.220741,0.066327,1.006517
2011-09-26T15:05:36.142908,2650,2.074868,-2.487740,-10.400308,0.220336,0.069387,1.004488
2011-09-26T15:05:36.152908,2660,1.893047,-2.448789,-10.264897,0.219932,0.072446,1.002459
2011-09-26T15:05:36.162908,2670,1.711227,-2.409838,-10.129486,0.219527,0.075506,1.000430
2011-09-26T15:05:36.172908,2680,1.529407,-2.370886,-9.994075,0.219123,0.078565,0.998401
2011-09-26T15:05:36.182908,2690,1.347587,-2.331935,-9.858664,0.218719,0.081625,0.996371
2011-09-26T15:05:36.192908,2700,1.297998,-2.403884,-9.668467,0.217876,0.081367,0.993577
2011-09-26T15:05:36.202908,2710,1.254178,-2.480671,-9.475880,0.217015,0.080966,0.990749
2011-09-26T15:05:36.212908,2720,1.210357,-2.557457,-9.283292,0.216154,0.080564,0.987922
2011-09-26T15:05:36.222908,2730,1.166537,-2.634244,-9.090705,0.215293,0.080162,0.985094
2011-09-26T15:05:36.232908,2740,1.122716,-2.711030,-8.898118,0.214432,0.079761,0.982266
2011-09-26T15:05:36.242908,2750,1.078895,-2.787817,-8.705531,0.213570,0.079359,0.979439
2011-09-26T15:05:36.252908,2760,1.035075,-2.864603,-8.512944,0.212709,0.078957,0.976611
2011-09-26T15:05:36.262908,2770,0.991254,-2.941390,-8.320356,0.211848,0.078555,0.973783
2011-09-26T15:05:36.272908,2780,0.947434,-3.018176,-8.127769,0.210987,0.078154,0.970956
2011-09-26T15:05:36.282908,2790,0.903613,-3.094963,-7.935182,0.210125,0.077752,0.968128
2011-09-26T15:05:36.292908,2800,0.828302,-3.292652,-7.784435,0.210235,0.076553,0.969569
2011-09-26T15:05:36.302908,2810,0.752559,-3.491997,-7.634261,0.210358,0.075343,0.971069
2011-09-26T15:05:36.312908,2820,0.676817,-3.691341,-7.484086,0.210481,0.074133,0.972568
2011-09-26T15:05:36.322908,2830,0.601074,-3.890685,-7.333912,0.210603,0.072923,0.974068
2011-09-26T15:05:36.332908,2840,0.525332,-4.090030,-7.183738,0.210726,0.071713,0.975567
2011-09-26T15:05:36.342908,2850,0.449589,-4.289374,-7.033564,0.210849,0.070503,0.977067
2011-09-26T15:05:36.352908,2860,0.373847,-4.488718,-6.883389,0.210972,0.069293,0.978567
2011-09-26T15:05:36.362908,2870,0.298104,-4.688062,-6.733215,0.211095,0.068083,0.980066
2011-09-26T15:05:36.372908,2880,0.222362,-4.887407,-6.583041,0.211218,0.066873,0.981566
2011-09-26T15:05:36.382908,2890,0.146619,-5.086751,-6.432866,0.211340,0.065663,0.983065
2011-09-26T15:05:36.392908,2900,0.246337,-5.173062,-6.361343,0.212180,0.064611,0.985969
2011-09-26T15:05:36.402908,2910,0.352628,-5.255138,-6.292766,0.213047,0.063564,0.988926
2011-09-26T15:05:36.412908,2920,0.458919,-5.337214,-6.224188,0.213914,0.062518,0.991883
2011-09-26T15:05:36.422908,2930,0.565210,-5.419290,-6.155611,0.214781,0.061471,0.994839
2011-09-26T15:05:36.432908,2940,0.671500,-5.501367,-6.087034,0.215648,0.060425,0.997796
2011-09-26T15:05:36.442908,2950,0.777791,-5.583443,-6.018457,0.216514,0.059378,1.000753
2011-09-26T15:05:36.452908,2960,0.884082,-5.665519,-5.949880,0.217381,0.058331,1.003709
2011-09-26T15:05:36.462908,2970,0.990373,-5.747596,-5.881303,0.218248,0.057285,1.006666
2011-09-26T15:05:36.472908,2980,1.096664,-5.829672,-5.812725,0.219115,0.056238,1.009622
2011-09-26T15:05:36.482908,2990,1.202955,-5.911748,-5.744148,0.219981,0.055192,1.012579
2011-09-26T15:05:36.492908,3000,1.309246,-5.993825,-5.675571,0.220848,0.054145,1.015536
2011-09-26T15:05:36.502908,3010,1.367378,-6.010697,-5.628355,0.219964,0.059894,1.019432
2011-09-26T15:05:36.512908,3020,1.424687,-6.026453,-5.581504,0.219050,0.065760,1.023344
2011-09-26T15:05:36.522908,3030,1.481995,-6.042209,-5.534654,0.218135,0.071625,1.027256
2011-09-26T15:05:36.532908,3040,1.539303,-6.057966,-5.487803,0.217221,0.077490,1.031168
2011-09-26T15:05:36.542908,3050,1.596612,-6.073722,-5.440952,0.216307,0.083356,1.035080
2011-09-26T15:05:36.552908,3060,1.653920,-6.089479,-5.394102,0.215393,0.089221,1.038993
2011-09-26T15:05:36.562908,3070,1.711229,-6.105235,-5.347251,0.214479,0.095087,1.042905
2011-09-26T15:05:36.572908,3080,1.768537,-6.120992,-5.300401,0.213564,0.100952,1.046817
2011-09-26T15:05:36.582908,3090,1.825846,-6.136748,-5.253550,0.212650,0.106817,1.050729
2011-09-26T15:05:36.592908,3100,1.883154,-6.152504,-5.206699,0.211736,0.112683,1.054641
2011-09-26T15:05:36.602908,3110,1.747125,-6.084983,-5.237787,0.212556,0.114449,1.053739
2011-09-26T15:05:36.612908,3120,1.603354,-6.014127,-5.271996,0.213445,0.116050,1.052644
2011-09-26T15:05:36.622908,3130,1.459584,-5.943271,-5.306206,0.214335,0.117652,1.051549
2011-09-26T15:05:36.632908,3140,1.315813,-5.872415,-5.340415,0.215225,0.119254,1.050454
2011-09-26T15:05:36.642908,3150,1.172042,-5.801559,-5.374624,0.216114,0.120856,1.049359
2011-09-26T15:05:36.652908,3160,1.028271,-5.730703,-5.408833,0.217004,0.122457,1.048263
2011-09-26T15:05:36.662908,3170,0.884501,-5.659846,-5.443042,0.217893,0.124059,1.047168
2011-09-26T15:05:36.672908,3180,0.740730,-5.588990,-5.477251,0.218783,0.125661,1.046073
2011-09-26T15:05:36.682908,3190,0.596959,-5.518134,-5.511460,0.219672,0.127263,1.044978
2011-09-26T15:05:36.692908,3200,0.453188,-5.447278,-5.545669,0.220562,0.128865,1.043883
2011-09-26T15:05:36.702908,3210,0.371522,-5.588859,-5.542314,0.216331,0.126718,1.042449
2011-09-26T15:05:36.712908,3220,0.291488,-5.736024,-5.537972,0.211966,0.124474,1.041005
2011-09-26T15:05:36.722908,3230,0.211455,-5.883188,-5.533630,0.207601,0.122229,1.039562
2011-09-26T15:05:36.732908,3240,0.131421,-6.030353,-5.529288,0.203236,0.119984,1.038119
2011-09-26T15:05:36.742908,3250,0.051387,-6.177518,-5.524946,0.198871,0.117740,1.036675
2011-09-26T15:05:36.752908,3260,-0.028647,-6.324682,-5.520604,0.194506,0.115495,1.035232
2011-09-26T15:05:36.762908,3270,-0.108681,-6.471847,-5.516262,0.190141,0.113250,1.033788
2011-09-26T15:05:36.772908,3280,-0.188715,-6.619011,-5.511920,0.185776,0.111006,1.032345
2011-09-26T15:05:36.782908,3290,-0.268749,-6.766176,-5.507578,0.181410,0.108761,1.030902
2011-09-26T15:05:36.792908,3300,-0.348783,-6.913341,-5.503236,0.177045,0.106516,1.029458
2011-09-26T15:05:36.802908,3310,-0.428817,-7.060505,-5.498894,0.172680,0.104272,1.028015
2011-09-26T15:05:36.812908,3320,-0.586516,-7.114066,-5.451879,0.172682,0.105231,1.027327
2011-09-26T15:05:36.822908,3330,-0.746030,-7.165440,-5.403866,0.172785,0.106266,1.026656
2011-09-26T15:05:36.832908,3340,-0.905544,-7.216813,-5.355854,0.172889,0.107300,1.025986
2011-09-26T15:05:36.842908,3350,-1.065058,-7.268187,-5.307842,0.172992,0.108335,1.025315
2011-09-26T15:05:36.852908,3360,-1.224572,-7.319561,-5.259830,0.173095,0.109370,1.024645
2011-09-26T15:05:36.862908,3370,-1.384086,-7.370935,-5.211818,0.173199,0.110404,1.023974
2011-09-26T15:05:36.872908,3380,-1.543599,-7.422309,-5.163806,0.173302,0.111439,1.023304
2011-09-26T15:05:36.882908,3390,-1.703113,-7.473683,-5.115794,0.173406,0.112473,1.022633
2011-09-26T15:05:36.892908,3400,-1.862627,-7.525057,-5.067782,0.173509,0.113508,1.021963
2011-09-26T15:05:36.902908,3410,-2.022141,-7.576430,-5.019770,0.173613,0.114543,1.021292
2011-09-26T15:05:36.912908,3420,-2.118140,-7.570857,-4.932987,0.175116,0.112366,1.024401
2011-09-26T15:05:36.922908,3430,-2.212856,-7.564133,-4.845421,0.176648,0.110125,1.027587
2011-09-26T15:05:36.932908,3440,-2.307571,-7.557409,-4.757855,0.178180,0.107884,1.030772
2011-09-26T15:05:36.942908,3450,-2.402287,-7.550686,-4.670289,0.179712,0.105643,1.033957
2011-09-26T15:05:36.952908,3460,-2.497003,-7.543962,-4.582723,0.181243,0.103402,1.037143
2011-09-26T15:05:36.962908,3470,-2.591718,-7.537238,-4.495157,0.182775,0.101161,1.040328
2011-09-26T15:05:36.972908,3480,-2.686434,-7.530514,-4.407591,0.184307,0.098920,1.043513
2011-09-26T15:05:36.982908,3490,-2.781150,-7.523790,-4.320025,0.185839,0.096679,1.046699
2011-09-26T15:05:36.992908,3500,-2.875866,-7.517067,-4.232459,0.187371,0.094438,1.049884
2011-09-26T15:05:37.002908,3510,-2.970581,-7.510343,-4.144893,0.188902,0.092197,1.053069
2011-09-26T15:05:37.012908,3520,-2.943739,-7.429271,-4.104111,0.190231,0.093084,1.053629
2011-09-26T15:05:37.022908,3530,-2.914553,-7.346765,-4.064230,0.191555,0.094031,1.054138
2011-09-26T15:05:37.032908,3540,-2.885366,-7.264260,-4.024350,0.192880,0.094978,1.054648
2011-09-26T15:05:37.042908,3550,-2.856180,-7.181754,-3.984470,0.194204,0.095925,1.055157
2011-09-26T15:05:37.052908,3560,-2.826993,-7.099248,-3.944589,0.195529,0.096873,1.055666
2011-09-26T15:05:37.062908,3570,-2.797807,-7.016743,-3.904709,0.196853,0.097820,1.056175
2011-09-26T15:05:37.072908,3580,-2.768620,-6.934237,-3.864828,0.198178,0.098767,1.056684
2011-09-26T15:05:37.082908,3590,-2.739434,-6.851731,-3.824948,0.199503,0.099714,1.057194
2011-09-26T15:05:37.092908,3600,-2.710247,-6.769226,-3.785068,0.200827,0.100661,1.057703
2011-09-26T15:05:37.102908,3610,-2.681061,-6.686720,-3.745187,0.202152,0.101609,1.058212
2011-09-26T15:05:37.112908,3620,-2.651874,-6.604215,-3.705307,0.203476,0.102556,1.058721
2011-09-26T15:05:37.122908,3630,-2.644882,-6.330858,-3.687638,0.205920,0.103202,1.059729
2011-09-26T15:05:37.132908,3640,-2.638555,-6.051780,-3.670634,0.208398,0.103840,1.060751
2011-09-26T15:05:37.142908,3650,-2.632228,-5.772703,-3.653631,0.210875,0.104477,1.061773
2011-09-26T15:05:37.152908,3660,-2.625900,-5.493626,-3.636628,0.213353,0.105115,1.062796
2011-09-26T15:05:37.162908,3670,-2.619573,-5.214548,-3.619624,0.215830,0.105752,1.063818
2011-09-26T15:05:37.172908,3680,-2.613246,-4.935471,-3.602621,0.218308,0.106390,1.064840
2011-09-26T15:05:37.182908,3690,-2.606919,-4.656394,-3.585617,0.220785,0.107027,1.065863
2011-09-26T15:05:37.192908,3700,-2.600592,-4.377316,-3.568614,0.223263,0.107665,1.066885
2011-09-26T15:05:37.202908,3710,-2.594264,-4.098239,-3.551611,0.225740,0.108303,1.067907
2011-09-26T15:05:37.212908,3720,-2.587937,-3.819162,-3.534607,0.228218,0.108940,1.068930
2011-09-26T15:05:37.222908,3730,-2.775624,-3.557873,-3.470432,0.226377,0.106292,1.072168
2011-09-26T15:05:37.232908,3740,-2.967531,-3.296971,-3.405230,0.224442,0.103572,1.075454
2011-09-26T15:05:37.242908,3750,-3.159438,-3.036070,-3.340029,0.222507,0.100852,1.078740
2011-09-26T15:05:37.252908,3760,-3.351345,-2.775168,-3.274827,0.220572,0.098132,1.082027
2011-09-26T15:05:37.262908,3770,-3.543251,-2.514266,-3.209626,0.218637,0.095412,1.085313
2011-09-26T15:05:37.272908,3780,-3.735158,-2.253365,-3.144424,0.216702,0.092693,1.088599
2011-09-26T15:05:37.282908,3790,-3.927065,-1.992463,-3.079223,0.214767,0.089973,1.091886
2011-09-26T15:05:37.292908,3800,-4.118972,-1.731561,-3.014021,0.212832,0.087253,1.095172
2011-09-26T15:05:37.302908,3810,-4.310879,-1.470660,-2.948820,0.210897,0.084533,1.098458
2011-09-26T15:05:37.312908,3820,-4.502786,-1.209758,-2.883618,0.208962,0.081813,1.101745
2011-09-26T15:05:37.322908,3830,-4.487987,-0.993989,-2.829343,0.208839,0.083833,1.097790
2011-09-26T15:05:37.332908,3840,-4.468253,-0.779298,-2.775329,0.208759,0.085966,1.093663
2011-09-26T15:05:37.342908,3850,-4.448519,-0.564607,-2.721315,0.208679,0.088099,1.089536
2011-09-26T15:05:37.352908,3860,-4.428786,-0.349915,-2.667300,0.208599,0.090232,1.085409
2011-09-26T15:05:37.362908,3870,-4.409052,-0.135224,-2.613286,0.208519,0.092365,1.081282
2011-09-26T15:05:37.372908,3880,-4.389318,0.079467,-2.559272,0.208439,0.094498,1.077154
2011-09-26T15:05:37.382908,3890,-4.369585,0.294158,-2.505258,0.208358,0.096631,1.073027
2011-09-26T15:05:37.392908,3900,-4.349851,0.508850,-2.451243,0.208278,0.098763,1.068900
2011-09-26T15:05:37.402908,3910,-4.330117,0.723541,-2.397229,0.208198,0.100896,1.064773
2011-09-26T15:05:37.412908,3920,-4.310384,0.938232,-2.343215,0.208118,0.103029,1.060646
2011-09-26T15:05:37.422908,3930,-4.290650,1.152923,-2.289200,0.208038,0.105162,1.056518
2011-09-26T15:05:37.432908,3940,-4.400374,1.319836,-2.323542,0.205846,0.104900,1.051598
2011-09-26T15:05:37.442908,3950,-4.512941,1.485700,-2.359824,0.203607,0.104586,1.046661
2011-09-26T15:05:37.452908,3960,-4.625507,1.651564,-2.396105,0.201369,0.104271,1.041723
2011-09-26T15:05:37.462908,3970,-4.738074,1.817428,-2.432387,0.199130,0.103957,1.036785
2011-09-26T15:05:37.472908,3980,-4.850641,1.983292,-2.468668,0.196892,0.103642,1.031848
2011-09-26T15:05:37.482908,3990,-4.963207,2.149157,-2.504950,0.194653,0.103328,1.026910
2011-09-26T15:05:37.492908,4000,-5.075774,2.315021,-2.541231,0.192415,0.103013,1.021973
2011-09-26T15:05:37.502908,4010,-5.188341,2.480885,-2.577513,0.190176,0.102699,1.017035
2011-09-26T15:05:37.512908,4020,-5.300907,2.646749,-2.613795,0.187937,0.102384,1.012098
2011-09-26T15:05:37.522908,4030,-5.413474,2.812613,-2.650076,0.185699,0.102070,1.007160
2011-09-26T15:05:37.532908,4040,-5.268608,2.671869,-2.638064,0.183800,0.094659,1.003390
2011-09-26T15:05:37.542908,4050,-5.117570,2.523775,-2.624895,0.181910,0.087078,0.999648
2011-09-26T15:05:37.552908,4060,-4.966532,2.375680,-2.611726,0.180019,0.079497,0.995906
2011-09-26T15:05:37.562908,4070,-4.815494,2.227586,-2.598556,0.178129,0.071916,0.992165
2011-09-26T15:05:37.572908,4080,-4.664456,2.079491,-2.585387,0.176238,0.064336,0.988423
2011-09-26T15:05:37.582908,4090,-4.513418,1.931397,-2.572217,0.174348,0.056755,0.984681
2011-09-26T15:05:37.592908,4100,-4.362380,1.783302,-2.559048,0.172457,0.049174,0.980939
2011-09-26T15:05:37.602908,4110,-4.211342,1.635208,-2.545879,0.170567,0.041593,0.977197
2011-09-26T15:05:37.612908,4120,-4.060304,1.487113,-2.532709,0.168676,0.034012,0.973455
2011-09-26T15:05:37.622908,4130,-3.909266,1.339019,-2.519540,0.166785,0.026431,0.969713
2011-09-26T15:05:37.632908,4140,-3.718704,1.168966,-2.484797,0.168730,0.026576,0.965048
2011-09-26T15:05:37.642908,4150,-3.526374,0.997931,-2.449089,0.170845,0.027067,0.960341
2011-09-26T15:05:37.652908,4160,-3.334044,0.826896,-2.413381,0.172961,0.027558,0.955634
2011-09-26T15:05:37.662908,4170,-3.141713,0.655862,-2.377673,0.175077,0.028049,0.950927
2011-09-26T15:05:37.672908,4180,-2.949383,0.484827,-2.341966,0.177192,0.028540,0.946221
2011-09-26T15:05:37.682908,4190,-2.757053,0.313792,-2.306258,0.179308,0.029031,0.941514
2011-09-26T15:05:37.692908,4200,-2.564723,0.142757,-2.270550,0.181424,0.029522,0.936807
2011-09-26T15:05:37.702908,4210,-2.372393,-0.028278,-2.234842,0.183539,0.030013,0.932100
2011-09-26T15:05:37.712908,4220,-2.180063,-0.199313,-2.199134,0.185655,0.030503,0.927393
2011-09-26T15:05:37.722908,4230,-1.987732,-0.370348,-2.163426,0.187771,0.030994,0.922687
2011-09-26T15:05:37.732908,4240,-1.795402,-0.541383,-2.127718,0.189887,0.031485,0.917980
2011-09-26T15:05:37.742908,4250,-1.836288,-0.516413,-2.134083,0.191187,0.036545,0.920427
2011-09-26T15:05:37.752908,4260,-1.882246,-0.487180,-2.141364,0.192470,0.041704,0.923029
2011-09-26T15:05:37.762908,4270,-1.928204,-0.457947,-2.148644,0.193753,0.046862,0.925632
2011-09-26T15:05:37.772908,4280,-1.974163,-0.428714,-2.155924,0.195036,0.052021,0.928234
2011-09-26T15:05:37.782908,4290,-2.020121,-0.399481,-2.163204,0.196319,0.057180,0.930837
2011-09-26T15:05:37.792908,4300,-2.066079,-0.370248,-2.170485,0.197601,0.062339,0.933440
2011-09-26T15:05:37.802908,4310,-2.112038,-0.341015,-2.177765,0.198884,0.067498,0.936042
2011-09-26T15:05:37.812908,4320,-2.157996,-0.311782,-2.185045,0.200167,0.072657,0.938645
2011-09-26T15:05:37.822908,4330,-2.203954,-0.282549,-2.192325,0.201450,0.077816,0.941247
2011-09-26T15:05:37.832908,4340,-2.249913,-0.253315,-2.199606,0.202733,0.082975,0.943850
2011-09-26T15:05:37.842908,4350,-2.367937,-0.138027,-2.200994,0.203401,0.081857,0.948528
2011-09-26T15:05:37.852908,4360,-2.487298,-0.021143,-2.202273,0.204058,0.080623,0.953244
2011-09-26T15:05:37.862908,4370,-2.606659,0.095742,-2.203552,0.204715,0.079389,0.957961
2011-09-26T15:05:37.872908,4380,-2.726020,0.212626,-2.204831,0.205372,0.078154,0.962677
2011-09-26T15:05:37.882908,4390,-2.845381,0.329511,-2.206110,0.206029,0.076920,0.967394
2011-09-26T15:05:37.892908,4400,-2.964742,0.446395,-2.207389,0.206686,0.075686,0.972110
2011-09-26T15:05:37.902908,4410,-3.084104,0.563280,-2.208668,0.207342,0.074452,0.976827
2011-09-26T15:05:37.912908,4420,-3.203465,0.680165,-2.209947,0.207999,0.073218,0.981543
2011-09-26T15:05:37.922908,4430,-3.322826,0.797049,-2.211226,0.208656,0.071983,0.986259
2011-09-26T15:05:37.932908,4440,-3.442187,0.913934,-2.212505,0.209313,0.070749,0.990976
2011-09-26T15:05:37.942908,4450,-3.561548,1.030818,-2.213784,0.209970,0.069515,0.995692
2011-09-26T15:05:37.952908,4460,-3.613871,1.155055,-2.170115,0.207681,0.064143,1.001799
2011-09-26T15:05:37.962908,4470,-3.664560,1.279471,-2.125351,0.205320,0.058670,1.007940
2011-09-26T15:05:37.972908,4480,-3.715248,1.403887,-2.080587,0.202960,0.053198,1.014080
2011-09-26T15:05:37.982908,4490,-3.765936,1.528303,-2.035823,0.200599,0.047725,1.020221
2011-09-26T15:05:37.992908,4500,-3.816625,1.652719,-1.991059,0.198238,0.042252,1.026362
2011-09-26T15:05:38.002908,4510,-3.867313,1.777135,-1.946295,0.195878,0.036779,1.032502
2011-09-26T15:05:38.012908,4520,-3.918002,1.901551,-1.901530,0.193517,0.031306,1.038643
2011-09-26T15:05:38.022908,4530,-3.968690,2.025967,-1.856766,0.191156,0.025834,1.044783
2011-09-26T15:05:38.032908,4540,-4.019379,2.150383,-1.812002,0.188795,0.020361,1.050924
2011-09-26T15:05:38.042908,4550,-4.070067,2.274799,-1.767238,0.186435,0.014888,1.057065
2011-09-26T15:05:38.052908,4560,-3.935202,2.389923,-1.744700,0.186983,0.015418,1.053053
2011-09-26T15:05:38.062908,4570,-3.795717,2.504816,-1.722715,0.187603,0.016097,1.048788
2011-09-26T15:05:38.072908,4580,-3.656232,2.619709,-1.700730,0.188223,0.016776,1.044524
2011-09-26T15:05:38.082908,4590,-3.516747,2.734602,-1.678746,0.188843,0.017455,1.040259
2011-09-26T15:05:38.092908,4600,-3.377262,2.849495,-1.656761,0.189464,0.018134,1.035995
2011-09-26T15:05:38.102908,4610,-3.237777,2.964388,-1.634776,0.190084,0.018813,1.031730
2011-09-26T15:05:38.112908,4620,-3.098292,3.079280,-1.612792,0.190704,0.019492,1.027465
2011-09-26T15:05:38.122908,4630,-2.958808,3.194173,-1.590807,0.191325,0.020171,1.023201
2011-09-26T15:05:38.132908,4640,-2.819323,3.309066,-1.568822,0.191945,0.020849,1.018936
2011-09-26T15:05:38.142908,4650,-2.679838,3.423959,-1.546838,0.192565,0.021528,1.014672
2011-09-26T15:05:38.152908,4660,-2.638369,3.386504,-1.564689,0.191231,0.026504,1.005397
2011-09-26T15:05:38.162908,4670,-2.600510,3.343438,-1.584007,0.189825,0.031638,0.995937
2011-09-26T15:05:38.172908,4680,-2.562652,3.300372,-1.603325,0.188419,0.036772,0.986477
2011-09-26T15:05:38.182908,4690,-2.524793,3.257305,-1.622643,0.187012,0.041906,0.977018
2011-09-26T15:05:38.192908,4700,-2.486934,3.214239,-1.641961,0.185606,0.047040,0.967558
2011-09-26T15:05:38.202908,4710,-2.449076,3.171173,-1.661279,0.184200,0.052174,0.958099
2011-09-26T15:05:38.212908,4720,-2.411217,3.128107,-1.680597,0.182794,0.057308,0.948639
2011-09-26T15:05:38.222908,4730,-2.373358,3.085040,-1.699916,0.181388,0.062442,0.939180
2011-09-26T15:05:38.232908,4740,-2.335500,3.041974,-1.719234,0.179982,0.067576,0.929720
2011-09-26T15:05:38.242908,4750,-2.297641,2.998908,-1.738552,0.178575,0.072710,0.920261
2011-09-26T15:05:38.252908,4760,-2.259782,2.955842,-1.757870,0.177169,0.077844,0.910801
2011-09-26T15:05:38.262908,4770,-2.344574,2.699507,-1.766283,0.176745,0.075546,0.907527
2011-09-26T15:05:38.272908,4780,-2.432277,2.438108,-1.774436,0.176343,0.073072,0.904400
2011-09-26T15:05:38.282908,4790,-2.519981,2.176709,-1.782590,0.175942,0.070598,0.901274
2011-09-26T15:05:38.292908,4800,-2.607685,1.915311,-1.790744,0.175541,0.068124,0.898147
2011-09-26T15:05:38.302908,4810,-2.695388,1.653912,-1.798897,0.175140,0.065649,0.895020
2011-09-26T15:05:38.312908,4820,-2.783092,1.392513,-1.807051,0.174738,0.063175,0.891893
2011-09-26T15:05:38.322908,4830,-2.870796,1.131115,-1.815204,0.174337,0.060701,0.888766
2011-09-26T15:05:38.332908,4840,-2.958499,0.869716,-1.823358,0.173936,0.058227,0.885639
2011-09-26T15:05:38.342908,4850,-3.046203,0.608317,-1.831512,0.173535,0.055752,0.882513
2011-09-26T15:05:38.352908,4860,-3.133907,0.346919,-1.839665,0.173133,0.053278,0.879386
2011-09-26T15:05:38.362908,4870,-2.906937,0.149308,-1.863750,0.173442,0.048571,0.888430
2011-09-26T15:05:38.372908,4880,-2.672295,-0.046748,-1.888223,0.173768,0.043809,0.897771
2011-09-26T15:05:38.382908,4890,-2.437652,-0.242803,-1.912696,0.174094,0.039047,0.907111
2011-09-26T15:05:38.392908,4900,-2.203010,-0.438858,-1.937169,0.174420,0.034285,0.916452
2011-09-26T15:05:38.402908,4910,-1.968368,-0.634914,-1.961642,0.174746,0.029523,0.925793
2011-09-26T15:05:38.412908,4920,-1.733725,-0.830969,-1.986115,0.175072,0.024761,0.935134
2011-09-26T15:05:38.422908,4930,-1.499083,-1.027025,-2.010588,0.175398,0.019999,0.944474
2011-09-26T15:05:38.432908,4940,-1.264440,-1.223080,-2.035061,0.175724,0.015238,0.953815
2011-09-26T15:05:38.442908,4950,-1.029798,-1.419135,-2.059534,0.176050,0.010476,0.963156
2011-09-26T15:05:38.452908,4960,-0.795155,-1.615191,-2.084007,0.176376,0.005714,0.972497
2011-09-26T15:05:38.462908,4970,-0.803387,-1.512847,-2.080512,0.177064,0.011691,0.977700
2011-09-26T15:05:38.472908,4980,-0.816779,-1.404165,-2.076423,0.177759,0.017897,0.982815
2011-09-26T15:05:38.482908,4990,-0.830170,-1.295483,-2.072334,0.178454,0.024102,0.987930
2011-09-26T15:05:38.492908,5000,-0.843561,-1.186801,-2.068245,0.179149,0.030308,0.993045
2011-09-26T15:05:38.502908,5010,-0.856952,-1.078119,-2.064156,0.179844,0.036514,0.998160
2011-09-26T15:05:38.512908,5020,-0.870344,-0.969436,-2.060067,0.180539,0.042719,1.003276
2011-09-26T15:05:38.522908,5030,-0.883735,-0.860754,-2.055978,0.181234,0.048925,1.008391
2011-09-26T15:05:38.532908,5040,-0.897126,-0.752072,-2.051889,0.181928,0.055130,1.013506
2011-09-26T15:05:38.542908,5050,-0.910518,-0.643390,-2.047800,0.182623,0.061336,1.018621
2011-09-26T15:05:38.552908,5060,-0.923909,-0.534708,-2.043711,0.183318,0.067541,1.023736
2011-09-26T15:05:38.562908,5070,-0.937300,-0.426025,-2.039623,0.184013,0.073747,1.028852
2011-09-26T15:05:38.572908,5080,-1.155055,-0.386297,-2.033442,0.183381,0.072815,1.025309
2011-09-26T15:05:38.582908,5090,-1.377988,-0.348315,-2.027209,0.182715,0.071701,1.021547
2011-09-26T15:05:38.592908,5100,-1.600920,-0.310334,-2.020976,0.182049,0.070588,1.017785
2011-09-26T15:05:38.602908,5110,-1.823852,-0.272352,-2.014743,0.181382,0.069475,1.014023
2011-09-26T15:05:38.612908,5120,-2.046785,-0.234370,-2.008509,0.180716,0.068362,1.010261
2011-09-26T15:05:38.622908,5130,-2.269717,-0.196389,-2.002276,0.180050,0.067249,1.006499
2011-09-26T15:05:38.632908,5140,-2.492649,-0.158407,-1.996043,0.179384,0.066136,1.002736
2011-09-26T15:05:38.642908,5150,-2.715582,-0.120426,-1.989810,0.178718,0.065023,0.998974
2011-09-26T15:05:38.652908,5160,-2.938514,-0.082444,-1.983577,0.178052,0.063909,0.995212
2011-09-26T15:05:38.662908,5170,-3.161446,-0.044462,-1.977343,0.177385,0.062796,0.991450
2011-09-26T15:05:38.672908,5180,-3.175487,-0.102825,-1.995860,0.176598,0.058525,0.992852
2011-09-26T15:05:38.682908,5190,-3.182974,-0.164210,-2.015152,0.175807,0.054154,0.994417
2011-09-26T15:05:38.692908,5200,-3.190461,-0.225595,-2.034445,0.175015,0.049783,0.995981
2011-09-26T15:05:38.702908,5210,-3.197948,-0.286980,-2.053738,0.174224,0.045412,0.997545
2011-09-26T15:05:38.712908,5220,-3.205435,-0.348365,-2.073030,0.173433,0.041042,0.999109
2011-09-26T15:05:38.722908,5230,-3.212922,-0.409751,-2.092323,0.172642,0.036671,1.000674
2011-09-26T15:05:38.732908,5240,-3.220409,-0.471136,-2.111616,0.171850,0.032300,1.002238
2011-09-26T15:05:38.742908,5250,-3.227896,-0.532521,-2.130909,0.171059,0.027929,1.003802
2011-09-26T15:05:38.752908,5260,-3.235383,-0.593906,-2.150201,0.170268,0.023559,1.005366
2011-09-26T15:05:38.762908,5270,-3.242870,-0.655291,-2.169494,0.169476,0.019188,1.006931
2011-09-26T15:05:38.772908,5280,-3.016022,-0.629626,-2.139454,0.169543,0.011761,1.006413
2011-09-26T15:05:38.782908,5290,-2.782150,-0.601351,-2.107934,0.169635,0.004242,1.005834
2011-09-26T15:05:38.792908,5300,-2.548278,-0.573076,-2.076415,0.169727,-0.003276,1.005254
2011-09-26T15:05:38.802908,5310,-2.314407,-0.544801,-2.044896,0.169819,-0.010795,1.004674
2011-09-26T15:05:38.812908,5320,-2.080535,-0.516527,-2.013377,0.169910,-0.018313,1.004095
2011-09-26T15:05:38.822908,5330,-1.846663,-0.488252,-1.981858,0.170002,-0.025832,1.003515
2011-09-26T15:05:38.832908,5340,-1.612791,-0.459977,-1.950339,0.170094,-0.033350,1.002935
2011-09-26T15:05:38.842908,5350,-1.378919,-0.431702,-1.918819,0.170186,-0.040869,1.002356
2011-09-26T15:05:38.852908,5360,-1.145047,-0.403427,-1.887300,0.170278,-0.048387,1.001776
2011-09-26T15:05:38.862908,5370,-0.911175,-0.375153,-1.855781,0.170370,-0.055906,1.001197
2011-09-26T15:05:38.872908,5380,-0.677303,-0.346878,-1.824262,0.170462,-0.063424,1.000617
2011-09-26T15:05:38.882908,5390,-0.423026,-0.283944,-1.791521,0.171660,-0.054937,0.999093
2011-09-26T15:05:38.892908,5400,-0.168129,-0.219956,-1.758743,0.172891,-0.045963,0.997541
2011-09-26T15:05:38.902908,5410,0.086768,-0.155968,-1.725966,0.174122,-0.036989,0.995989
2011-09-26T15:05:38.912908,5420,0.341664,-0.091980,-1.693188,0.175353,-0.028016,0.994437
2011-09-26T15:05:38.922908,5430,0.596561,-0.027992,-1.660410,0.176584,-0.019042,0.992884
2011-09-26T15:05:38.932908,5440,0.851458,0.035995,-1.627632,0.177815,-0.010068,0.991332
2011-09-26T15:05:38.942908,5450,1.106355,0.099983,-1.594854,0.179046,-0.001094,0.989780
2011-09-26T15:05:38.952908,5460,1.361252,0.163971,-1.562077,0.180277,0.007880,0.988227
2011-09-26T15:05:38.962908,5470,1.616149,0.227959,-1.529299,0.181508,0.016853,0.986675
2011-09-26T15:05:38.972908,5480,1.871046,0.291947,-1.496521,0.182739,0.025827,0.985123
2011-09-26T15:05:38.982908,5490,1.684975,0.412093,-1.551957,0.182538,0.031641,0.986318
2011-09-26T15:05:38.992908,5500,1.486335,0.533839,-1.609906,0.182296,0.037364,0.987592
2011-09-26T15:05:39.002908,5510,1.287696,0.655585,-1.667856,0.182054,0.043087,0.988866
2011-09-26T15:05:39.012908,5520,1.089057,0.777331,-1.725806,0.181812,0.048810,0.990139
2011-09-26T15:05:39.022908,5530,0.890417,0.899077,-1.783756,0.181570,0.054533,0.991413
2011-09-26T15:05:39.032908,5540,0.691778,1.020823,-1.841705,0.181328,0.060256,0.992686
2011-09-26T15:05:39.042908,5550,0.493139,1.142569,-1.899655,0.181086,0.065979,0.993960
2011-09-26T15:05:39.052908,5560,0.294500,1.264315,-1.957605,0.180845,0.071703,0.995234
2011-09-26T15:05:39.062908,5570,0.095860,1.386062,-2.015554,0.180603,0.077426,0.996507
2011-09-26T15:05:39.072908,5580,-0.102779,1.507808,-2.073504,0.180361,0.083149,0.997781
2011-09-26T15:05:39.082908,5590,-0.149315,1.665350,-2.078703,0.179364,0.076824,1.003193
2011-09-26T15:05:39.092908,5600,-0.190664,1.824114,-2.082102,0.178341,0.070088,1.008746
2011-09-26T15:05:39.102908,5610,-0.232012,1.982877,-2.085502,0.177319,0.063352,1.014299
2011-09-26T15:05:39.112908,5620,-0.273361,2.141641,-2.088901,0.176296,0.056615,1.019852
2011-09-26T15:05:39.122908,5630,-0.314709,2.300404,-2.092301,0.175273,0.049879,1.025405
2011-09-26T15:05:39.132908,5640,-0.356057,2.459168,-2.095700,0.174250,0.043143,1.030958
2011-09-26T15:05:39.142908,5650,-0.397406,2.617931,-2.099100,0.173228,0.036407,1.036510
2011-09-26T15:05:39.152908,5660,-0.438754,2.776695,-2.102499,0.172205,0.029671,1.042063
2011-09-26T15:05:39.162908,5670,-0.480103,2.935458,-2.105899,0.171182,0.022935,1.047616
2011-09-26T15:05:39.172908,5680,-0.521451,3.094222,-2.109298,0.170160,0.016199,1.053169
2011-09-26T15:05:39.182908,5690,-0.562799,3.252985,-2.112697,0.169137,0.009462,1.058722
2011-09-26T15:05:39.192908,5700,-0.497130,3.385602,-2.087378,0.166086,0.006891,1.048380
2011-09-26T15:05:39.202908,5710,-0.425221,3.516693,-2.060383,0.162916,0.004562,1.037111
2011-09-26T15:05:39.212908,5720,-0.353311,3.647785,-2.033388,0.159747,0.002234,1.025842
2011-09-26T15:05:39.222908,5730,-0.281401,3.778877,-2.006394,0.156578,-0.000095,1.014573
2011-09-26T15:05:39.232908,5740,-0.209492,3.909968,-1.979399,0.153408,-0.002423,1.003303
2011-09-26T15:05:39.242908,5750,-0.137582,4.041060,-1.952404,0.150239,-0.004752,0.992034
2011-09-26T15:05:39.252908,5760,-0.065672,4.172151,-1.925409,0.147069,-0.007080,0.980765
2011-09-26T15:05:39.262908,5770,0.006238,4.303243,-1.898415,0.143900,-0.009409,0.969496
2011-09-26T15:05:39.272908,5780,0.078147,4.434335,-1.871420,0.140730,-0.011738,0.958227
2011-09-26T15:05:39.282908,5790,0.150057,4.565426,-1.844425,0.137561,-0.014066,0.946958
2011-09-26T15:05:39.292908,5800,0.205808,4.347076,-1.806415,0.136488,-0.010922,0.940687
2011-09-26T15:05:39.302908,5810,0.261012,4.116907,-1.768032,0.135486,-0.007593,0.934585
2011-09-26T15:05:39.312908,5820,0.316216,3.886739,-1.729649,0.134483,-0.004264,0.928482
2011-09-26T15:05:39.322908,5830,0.371420,3.656570,-1.691265,0.133481,-0.000935,0.922380
2011-09-26T15:05:39.332908,5840,0.426625,3.426401,-1.652882,0.132479,0.002394,0.916278
2011-09-26T15:05:39.342908,5850,0.481829,3.196233,-1.614499,0.131477,0.005723,0.910176
2011-09-26T15:05:39.352908,5860,0.537033,2.966064,-1.576116,0.130475,0.009053,0.904074
2011-09-26T15:05:39.362908,5870,0.592237,2.735895,-1.537733,0.129472,0.012382,0.897972
2011-09-26T15:05:39.372908,5880,0.647441,2.505726,-1.499350,0.128470,0.015711,0.891870
2011-09-26T15:05:39.382908,5890,0.702646,2.275558,-1.460966,0.127468,0.019040,0.885768
2011-09-26T15:05:39.392908,5900,0.572718,2.027688,-1.474091,0.129250,0.022115,0.891822
2011-09-26T15:05:39.402908,5910,0.434250,1.779001,-1.489591,0.131161,0.025178,0.898436
2011-09-26T15:05:39.412908,5920,0.295783,1.530314,-1.505091,0.133072,0.028241,0.905051
2011-09-26T15:05:39.422908,5930,0.157315,1.281628,-1.520591,0.134982,0.031304,0.911665
2011-09-26T15:05:39.432908,5940,0.018848,1.032941,-1.536091,0.136893,0.034367,0.918280
2011-09-26T15:05:39.442908,5950,-0.119619,0.784255,-1.551591,0.138804,0.037430,0.924895
2011-09-26T15:05:39.452908,5960,-0.258087,0.535568,-1.567091,0.140714,0.040493,0.931509
2011-09-26T15:05:39.462908,5970,-0.396554,0.286882,-1.582591,0.142625,0.043556,0.938124
2011-09-26T15:05:39.472908,5980,-0.535021,0.038195,-1.598091,0.144536,0.046619,0.944739
2011-09-26T15:05:39.482908,5990,-0.673489,-0.210492,-1.613591,0.146446,0.049682,0.951353
2011-09-26T15:05:39.492908,6000,-0.811956,-0.459178,-1.629091,0.148357,0.052745,0.957968
2011-09-26T15:05:39.502908,6010,-0.758553,-0.529141,-1.624417,0.146744,0.046702,0.960663
2011-09-26T15:05:39.512908,6020,-0.699294,-0.593649,-1.619128,0.145023,0.040381,0.963237
2011-09-26T15:05:39.522908,6030,-0.640035,-0.658158,-1.613838,0.143302,0.034061,0.965812
2011-09-26T15:05:39.532908,6040,-0.580776,-0.722666,-1.608548,0.141581,0.027740,0.968387
2011-09-26T15:05:39.542908,6050,-0.521516,-0.787174,-1.603259,0.139860,0.021419,0.970962
2011-09-26T15:05:39.552908,6060,-0.462257,-0.851683,-1.597969,0.138139,0.015099,0.973537
2011-09-26T15:05:39.562908,6070,-0.402998,-0.916191,-1.592680,0.136418,0.008778,0.976112
2011-09-26T15:05:39.572908,6080,-0.343739,-0.980700,-1.587390,0.134698,0.002457,0.978687
2011-09-26T15:05:39.582908,6090,-0.284480,-1.045208,-1.582100,0.132977,-0.003863,0.981262
2011-09-26T15:05:39.592908,6100,-0.225221,-1.109716,-1.576811,0.131256,-0.010184,0.983836
2011-09-26T15:05:39.602908,6110,-0.036293,-1.121510,-1.541663,0.131787,-0.008834,0.987880
2011-09-26T15:05:39.612908,6120,0.159562,-1.130488,-1.504920,0.132438,-0.007075,0.992003
2011-09-26T15:05:39.622908,6130,0.355417,-1.139466,-1.468177,0.133089,-0.005315,0.996125
2011-09-26T15:05:39.632908,6140,0.551271,-1.148444,-1.431434,0.133740,-0.003556,1.000247
2011-09-26T15:05:39.642908,6150,0.747126,-1.157421,-1.394690,0.134391,-0.001796,1.004370
2011-09-26T15:05:39.652908,6160,0.942981,-1.166399,-1.357947,0.135042,-0.000037,1.008492
2011-09-26T15:05:39.662908,6170,1.138836,-1.175377,-1.321204,0.135693,0.001723,1.012614
2011-09-26T15:05:39.672908,6180,1.334690,-1.184355,-1.284461,0.136344,0.003482,1.016737
2011-09-26T15:05:39.682908,6190,1.530545,-1.193333,-1.247718,0.136995,0.005242,1.020859
2011-09-26T15:05:39.692908,6200,1.726400,-1.202311,-1.210975,0.137646,0.007001,1.024981
2011-09-26T15:05:39.702908,6210,1.729923,-0.974396,-1.207596,0.138737,0.010847,1.027386
2011-09-26T15:05:39.712908,6220,1.727172,-0.738754,-1.205306,0.139842,0.014761,1.029734
2011-09-26T15:05:39.722908,6230,1.724421,-0.503112,-1.203015,0.140948,0.018674,1.032082
2011-09-26T15:05:39.732908,6240,1.721670,-0.267470,-1.200725,0.142053,0.022588,1.034430
2011-09-26T15:05:39.742908,6250,1.718919,-0.031827,-1.198434,0.143159,0.026502,1.036779
2011-09-26T15:05:39.752908,6260,1.716167,0.203815,-1.196144,0.144264,0.030416,1.039127
2011-09-26T15:05:39.762908,6270,1.713416,0.439457,-1.193853,0.145370,0.034330,1.041475
2011-09-26T15:05:39.772908,6280,1.710665,0.675099,-1.191563,0.146475,0.038243,1.043823
2011-09-26T15:05:39.782908,6290,1.707914,0.910742,-1.189272,0.147581,0.042157,1.046172
2011-09-26T15:05:39.792908,6300,1.705163,1.146384,-1.186982,0.148687,0.046071,1.048520
2011-09-26T15:05:39.802908,6310,1.702412,1.382026,-1.184691,0.149792,0.049985,1.050868
2011-09-26T15:05:39.812908,6320,1.622251,1.561531,-1.195797,0.143254,0.053699,1.043583
2011-09-26T15:05:39.822908,6330,1.539359,1.739054,-1.207375,0.136446,0.057407,1.035959
2011-09-26T15:05:39.832908,6340,1.456467,1.916578,-1.218953,0.129638,0.061114,1.028334
2011-09-26T15:05:39.842908,6350,1.373574,2.094102,-1.230531,0.122830,0.064822,1.020709
2011-09-26T15:05:39.852908,6360,1.290682,2.271626,-1.242109,0.116022,0.068529,1.013084
2011-09-26T15:05:39.862908,6370,1.207790,2.449149,-1.253687,0.109214,0.072237,1.005460
2011-09-26T15:05:39.872908,6380,1.124898,2.626673,-1.265265,0.102406,0.075944,0.997835
2011-09-26T15:05:39.882908,6390,1.042006,2.804197,-1.276844,0.095598,0.079652,0.990210
2011-09-26T15:05:39.892908,6400,0.959114,2.981721,-1.288422,0.088790,0.083359,0.982586
2011-09-26T15:05:39.902908,6410,0.876222,3.159244,-1.300000,0.081982,0.087067,0.974961
2011-09-26T15:05:39.912908,6420,0.736191,3.016437,-1.273842,0.080296,0.084747,0.977134
2011-09-26T15:05:39.922908,6430,0.594427,2.863919,-1.246540,0.078765,0.082245,0.979604
2011-09-26T15:05:39.932908,6440,0.452664,2.711402,-1.219239,0.077233,0.079743,0.982074
2011-09-26T15:05:39.942908,6450,0.310901,2.558885,-1.191937,0.075702,0.077241,0.984543
2011-09-26T15:05:39.952908,6460,0.169138,2.406368,-1.164635,0.074171,0.074738,0.987013
2011-09-26T15:05:39.962908,6470,0.027375,2.253851,-1.137334,0.072640,0.072236,0.989483
2011-09-26T15:05:39.972908,6480,-0.114388,2.101334,-1.110032,0.071108,0.069734,0.991953
2011-09-26T15:05:39.982908,6490,-0.256152,1.948817,-1.082730,0.069577,0.067232,0.994423
2011-09-26T15:05:39.992908,6500,-0.397915,1.796299,-1.055429,0.068046,0.064730,0.996893
2011-09-26T15:05:40.002908,6510,-0.539678,1.643782,-1.028127,0.066514,0.062227,0.999363
2011-09-26T15:05:40.012908,6520,-0.681441,1.491265,-1.000825,0.064983,0.059725,1.001833
2011-09-26T15:05:40.022908,6530,-0.735868,1.429779,-0.991454,0.065695,0.058874,0.997863
2011-09-26T15:05:40.032908,6540,-0.787454,1.371253,-0.982665,0.066481,0.058076,0.993684
2011-09-26T15:05:40.042908,6550,-0.839040,1.312728,-0.973877,0.067266,0.057278,0.989505
2011-09-26T15:05:40.052908,6560,-0.890626,1.254202,-0.965089,0.068051,0.056480,0.985325
2011-09-26T15:05:40.062908,6570,-0.942213,1.195676,-0.956300,0.068836,0.055682,0.981146
2011-09-26T15:05:40.072908,6580,-0.993799,1.137151,-0.947512,0.069621,0.054884,0.976967
2011-09-26T15:05:40.082908,6590,-1.045385,1.078625,-0.938723,0.070406,0.054086,0.972788
2011-09-26T15:05:40.092908,6600,-1.096972,1.020099,-0.929935,0.071192,0.053288,0.968608
2011-09-26T15:05:40.102908,6610,-1.148558,0.961573,-0.921146,0.071977,0.052490,0.964429
2011-09-26T15:05:40.112908,6620,-1.200144,0.903048,-0.912358,0.072762,0.051692,0.960250
2011-09-26T15:05:40.122908,6630,-1.189426,0.830200,-0.902188,0.072538,0.047861,0.956895
2011-09-26T15:05:40.132908,6640,-1.175887,0.756704,-0.891955,0.072267,0.043894,0.953577
2011-09-26T15:05:40.142908,6650,-1.162348,0.683207,-0.881722,0.071997,0.039926,0.950260
2011-09-26T15:05:40.152908,6660,-1.148809,0.609711,-0.871490,0.071727,0.035958,0.946942
2011-09-26T15:05:40.162908,6670,-1.135271,0.536215,-0.861257,0.071457,0.031990,0.943625
2011-09-26T15:05:40.172908,6680,-1.121732,0.462719,-0.851024,0.071187,0.028022,0.940307
2011-09-26T15:05:40.182908,6690,-1.108193,0.389222,-0.840792,0.070917,0.024054,0.936989
2011-09-26T15:05:40.192908,6700,-1.094654,0.315726,-0.830559,0.070647,0.020086,0.933672
2011-09-26T15:05:40.202908,6710,-1.081115,0.242230,-0.820326,0.070377,0.016118,0.930354
2011-09-26T15:05:40.212908,6720,-1.067577,0.168734,-0.810094,0.070107,0.012150,0.927036
2011-09-26T15:05:40.222908,6730,-1.069731,0.296101,-0.812256,0.071119,0.018130,0.936203
2011-09-26T15:05:40.232908,6740,-1.072380,0.429808,-0.814809,0.072171,0.024423,0.945764
2011-09-26T15:05:40.242908,6750,-1.075029,0.563514,-0.817362,0.073223,0.030717,0.955325
2011-09-26T15:05:40.252908,6760,-1.077679,0.697220,-0.819916,0.074276,0.037010,0.964886
2011-09-26T15:05:40.262908,6770,-1.080328,0.830927,-0.822469,0.075328,0.043304,0.974447
2011-09-26T15:05:40.272908,6780,-1.082978,0.964633,-0.825022,0.076380,0.049598,0.984008
2011-09-26T15:05:40.282908,6790,-1.085627,1.098339,-0.827576,0.077432,0.055891,0.993569
2011-09-26T15:05:40.292908,6800,-1.088276,1.232046,-0.830129,0.078485,0.062185,1.003130
2011-09-26T15:05:40.302908,6810,-1.090926,1.365752,-0.832682,0.079537,0.068478,1.012691
2011-09-26T15:05:40.312908,6820,-1.093575,1.499458,-0.835235,0.080589,0.074772,1.022252
2011-09-26T15:05:40.322908,6830,-1.096224,1.633165,-0.837789,0.081642,0.081066,1.031813
2011-09-26T15:05:40.332908,6840,-1.384827,1.879957,-0.851945,0.081520,0.080028,1.032802
2011-09-26T15:05:40.342908,6850,-1.683101,2.130575,-0.866495,0.081358,0.078743,1.033501
2011-09-26T15:05:40.352908,6860,-1.981374,2.381192,-0.881044,0.081196,0.077458,1.034200
2011-09-26T15:05:40.362908,6870,-2.279648,2.631810,-0.895593,0.081034,0.076173,1.034899
2011-09-26T15:05:40.372908,6880,-2.577922,2.882427,-0.910142,0.080872,0.074888,1.035598
2011-09-26T15:05:40.382908,6890,-2.876196,3.133045,-0.924691,0.080710,0.073603,1.036297
2011-09-26T15:05:40.392908,6900,-3.174469,3.383662,-0.939240,0.080548,0.072317,1.036996
2011-09-26T15:05:40.402908,6910,-3.472743,3.634280,-0.953789,0.080387,0.071032,1.037695
2011-09-26T15:05:40.412908,6920,-3.771017,3.884898,-0.968339,0.080225,0.069747,1.038395
2011-09-26T15:05:40.422908,6930,-4.069291,4.135515,-0.982888,0.080063,0.068462,1.039094
2011-09-26T15:05:40.432908,6940,-4.014557,4.147923,-0.986036,0.078990,0.061479,1.027734
2011-09-26T15:05:40.442908,6950,-3.949023,4.153042,-0.988835,0.077889,0.054321,1.016006
2011-09-26T15:05:40.452908,6960,-3.883489,4.158161,-0.991635,0.076789,0.047164,1.004278
2011-09-26T15:05:40.462908,6970,-3.817955,4.163280,-0.994434,0.075688,0.040006,0.992550
2011-09-26T15:05:40.472908,6980,-3.752421,4.168400,-0.997233,0.074588,0.032848,0.980822
2011-09-26T15:05:40.482908,6990,-3.686887,4.173519,-1.000032,0.073487,0.025691,0.969094
2011-09-26T15:05:40.492908,7000,-3.621353,4.178638,-1.002832,0.072386,0.018533,0.957366
2011-09-26T15:05:40.502908,7010,-3.555819,4.183758,-1.005631,0.071286,0.011376,0.945638
2011-09-26T15:05:40.512908,7020,-3.490285,4.188877,-1.008430,0.070185,0.004218,0.933910
2011-09-26T15:05:40.522908,7030,-3.424750,4.193996,-1.011230,0.069084,-0.002940,0.922182
2011-09-26T15:05:40.532908,7040,-3.297954,3.945038,-0.978248,0.066726,-0.002507,0.922288
2011-09-26T15:05:40.542908,7050,-3.169079,3.687460,-0.944052,0.064325,-0.001817,0.922795
2011-09-26T15:05:40.552908,7060,-3.040204,3.429882,-0.909856,0.061924,-0.001127,0.923303
2011-09-26T15:05:40.562908,7070,-2.911330,3.172303,-0.875660,0.059523,-0.000437,0.923810
2011-09-26T15:05:40.572908,7080,-2.782455,2.914725,-0.841464,0.057122,0.000253,0.924318
2011-09-26T15:05:40.582908,7090,-2.653580,2.657147,-0.807268,0.054721,0.000943,0.924825
2011-09-26T15:05:40.592908,7100,-2.524705,2.399569,-0.773072,0.052320,0.001633,0.925332
2011-09-26T15:05:40.602908,7110,-2.395830,2.141991,-0.738876,0.049919,0.002323,0.925840
2011-09-26T15:05:40.612908,7120,-2.266956,1.884413,-0.704681,0.047518,0.003014,0.926347
2011-09-26T15:05:40.622908,7130,-2.138081,1.626834,-0.670485,0.045117,0.003704,0.926855
2011-09-26T15:05:40.632908,7140,-2.009206,1.369256,-0.636289,0.042716,0.004394,0.927362
2011-09-26T15:05:40.642908,7150,-1.727382,1.116683,-0.605681,0.044810,0.009146,0.926019
2011-09-26T15:05:40.652908,7160,-1.438785,0.864331,-0.575232,0.047102,0.014078,0.924594
2011-09-26T15:05:40.662908,7170,-1.150187,0.611979,-0.544783,0.049395,0.019011,0.923169
2011-09-26T15:05:40.672908,7180,-0.861590,0.359627,-0.514335,0.051688,0.023943,0.921744
2011-09-26T15:05:40.682908,7190,-0.572992,0.107276,-0.483886,0.053980,0.028875,0.920318
2011-09-26T15:05:40.692908,7200,-0.284395,-0.145076,-0.453437,0.056273,0.033807,0.918893
2011-09-26T15:05:40.702908,7210,0.004202,-0.397428,-0.422988,0.058566,0.038740,0.917468
2011-09-26T15:05:40.712908,7220,0.292800,-0.649780,-0.392539,0.060858,0.043672,0.916043
2011-09-26T15:05:40.722908,7230,0.581397,-0.902132,-0.362090,0.063151,0.048604,0.914618
2011-09-26T15:05:40.732908,7240,0.869995,-1.154483,-0.331642,0.065444,0.053536,0.913193
2011-09-26T15:05:40.742908,7250,0.750975,-1.322901,-0.305205,0.066887,0.052826,0.920432
2011-09-26T15:05:40.752908,7260,0.616289,-1.488093,-0.278922,0.068298,0.051898,0.928005
2011-09-26T15:05:40.762908,7270,0.481604,-1.653286,-0.252639,0.069709,0.050970,0.935578
2011-09-26T15:05:40.772908,7280,0.346918,-1.818478,-0.226357,0.071120,0.050043,0.943151
2011-09-26T15:05:40.782908,7290,0.212232,-1.983670,-0.200074,0.072532,0.049115,0.950723
2011-09-26T15:05:40.792908,7300,0.077546,-2.148862,-0.173791,0.073943,0.048187,0.958296
2011-09-26T15:05:40.802908,7310,-0.057140,-2.314054,-0.147509,0.075354,0.047260,0.965869
2011-09-26T15:05:40.812908,7320,-0.191825,-2.479246,-0.121226,0.076765,0.046332,0.973442
2011-09-26T15:05:40.822908,7330,-0.326511,-2.644438,-0.094943,0.078176,0.045404,0.981015
2011-09-26T15:05:40.832908,7340,-0.461197,-2.809630,-0.068661,0.079587,0.044477,0.988587
2011-09-26T15:05:40.842908,7350,-0.442981,-2.763365,-0.002331,0.079282,0.040973,0.994156
2011-09-26T15:05:40.852908,7360,-0.418921,-2.709016,0.065530,0.078912,0.037370,0.999648
2011-09-26T15:05:40.862908,7370,-0.394861,-2.654668,0.133390,0.078542,0.033768,1.005140
2011-09-26T15:05:40.872908,7380,-0.370801,-2.600320,0.201251,0.078172,0.030166,1.010633
2011-09-26T15:05:40.882908,7390,-0.346741,-2.545971,0.269111,0.077802,0.026563,1.016125
2011-09-26T15:05:40.892908,7400,-0.322681,-2.491623,0.336972,0.077432,0.022961,1.021617
2011-09-26T15:05:40.902908,7410,-0.298621,-2.437275,0.404833,0.077062,0.019359,1.027109
2011-09-26T15:05:40.912908,7420,-0.274561,-2.382926,0.472693,0.076692,0.015756,1.032601
2011-09-26T15:05:40.922908,7430,-0.250501,-2.328578,0.540554,0.076322,0.012154,1.038093
2011-09-26T15:05:40.932908,7440,-0.226441,-2.274230,0.608414,0.075952,0.008551,1.043585
2011-09-26T15:05:40.942908,7450,-0.202381,-2.219882,0.676275,0.075582,0.004949,1.049078
2011-09-26T15:05:40.952908,7460,-0.247472,-2.109198,0.733705,0.075828,0.008595,1.053637
2011-09-26T15:05:40.962908,7470,-0.295130,-1.996424,0.790747,0.076097,0.012510,1.058162
2011-09-26T15:05:40.972908,7480,-0.342788,-1.883650,0.847790,0.076366,0.016425,1.062687
2011-09-26T15:05:40.982908,7490,-0.390446,-1.770875,0.904833,0.076635,0.020340,1.067212
2011-09-26T15:05:40.992908,7500,-0.438104,-1.658101,0.961875,0.076904,0.024256,1.071737
2011-09-26T15:05:41.002908,7510,-0.485763,-1.545326,1.018918,0.077173,0.028171,1.076262
2011-09-26T15:05:41.012908,7520,-0.533421,-1.432552,1.075961,0.077442,0.032086,1.080786
2011-09-26T15:05:41.022908,7530,-0.581079,-1.319778,1.133003,0.077711,0.036001,1.085311
2011-09-26T15:05:41.032908,7540,-0.628737,-1.207003,1.190046,0.077980,0.039916,1.089836
2011-09-26T15:05:41.042908,7550,-0.676395,-1.094229,1.247089,0.078249,0.043831,1.094361
2011-09-26T15:05:41.052908,7560,-0.531665,-1.059783,1.228951,0.079670,0.046688,1.082275
2011-09-26T15:05:41.062908,7570,-0.378103,-1.028934,1.207362,0.081144,0.049497,1.069426
2011-09-26T15:05:41.072908,7580,-0.224540,-0.998084,1.185772,0.082618,0.052306,1.056578
2011-09-26T15:05:41.082908,7590,-0.070978,-0.967235,1.164183,0.084092,0.055115,1.043729
2011-09-26T15:05:41.092908,7600,0.082585,-0.936385,1.142594,0.085566,0.057924,1.030880
2011-09-26T15:05:41.102908,7610,0.236147,-0.905536,1.121004,0.087040,0.060732,1.018031
2011-09-26T15:05:41.112908,7620,0.389709,-0.874686,1.099415,0.088513,0.063541,1.005182
2011-09-26T15:05:41.122908,7630,0.543272,-0.843837,1.077826,0.089987,0.066350,0.992334
2011-09-26T15:05:41.132908,7640,0.696834,-0.812987,1.056237,0.091461,0.069159,0.979485
2011-09-26T15:05:41.142908,7650,0.850397,-0.782138,1.034647,0.092935,0.071967,0.966636
2011-09-26T15:05:41.152908,7660,0.733544,-0.861765,1.048452,0.094073,0.074995,0.967702
2011-09-26T15:05:41.162908,7670,0.599644,-0.948357,1.064488,0.095189,0.078037,0.969645
2011-09-26T15:05:41.172908,7680,0.465744,-1.034949,1.080523,0.096305,0.081078,0.971587
2011-09-26T15:05:41.182908,7690,0.331844,-1.121541,1.096559,0.097422,0.084120,0.973530
2011-09-26T15:05:41.192908,7700,0.197944,-1.208133,1.112595,0.098538,0.087161,0.975473
2011-09-26T15:05:41.202908,7710,0.064044,-1.294724,1.128630,0.099655,0.090203,0.977416
2011-09-26T15:05:41.212908,7720,-0.069856,-1.381316,1.144666,0.100771,0.093244,0.979359
2011-09-26T15:05:41.222908,7730,-0.203756,-1.467908,1.160702,0.101887,0.096286,0.981301
2011-09-26T15:05:41.232908,7740,-0.337656,-1.554500,1.176738,0.103004,0.099327,0.983244
2011-09-26T15:05:41.242908,7750,-0.471556,-1.641092,1.192773,0.104120,0.102369,0.985187
2011-09-26T15:05:41.252908,7760,-0.605457,-1.727684,1.208809,0.105237,0.105410,0.987130
2011-09-26T15:05:41.262908,7770,-0.566828,-1.609238,1.204284,0.105756,0.098269,0.991931
2011-09-26T15:05:41.272908,7780,-0.521103,-1.482359,1.198913,0.106250,0.090710,0.996849
2011-09-26T15:05:41.282908,7790,-0.475379,-1.355481,1.193542,0.106744,0.083150,1.001768
2011-09-26T15:05:41.292908,7800,-0.429655,-1.228602,1.188171,0.107239,0.075590,1.006686
2011-09-26T15:05:41.302908,7810,-0.383930,-1.101724,1.182800,0.107733,0.068031,1.011605
2011-09-26T15:05:41.312908,7820,-0.338206,-0.974845,1.177429,0.108227,0.060471,1.016523
2011-09-26T15:05:41.322908,7830,-0.292481,-0.847967,1.172059,0.108722,0.052911,1.021442
2011-09-26T15:05:41.332908,7840,-0.246757,-0.721088,1.166688,0.109216,0.045352,1.026360
2011-09-26T15:05:41.342908,7850,-0.201033,-0.594210,1.161317,0.109710,0.037792,1.031279
2011-09-26T15:05:41.352908,7860,-0.155308,-0.467331,1.155946,0.110205,0.030232,1.036197
2011-09-26T15:05:41.362908,7870,-0.279288,-0.320817,1.163346,0.108356,0.033915,1.040600
2011-09-26T15:05:41.372908,7880,-0.410818,-0.173428,1.171314,0.106403,0.038098,1.044980
2011-09-26T15:05:41.382908,7890,-0.542349,-0.026040,1.179283,0.104449,0.042280,1.049361
2011-09-26T15:05:41.392908,7900,-0.673880,0.121348,1.187251,0.102496,0.046463,1.053741
2011-09-26T15:05:41.402908,7910,-0.805411,0.268736,1.195219,0.100543,0.050646,1.058121
2011-09-26T15:05:41.412908,7920,-0.936942,0.416125,1.203188,0.098590,0.054828,1.062501
2011-09-26T15:05:41.422908,7930,-1.068473,0.563513,1.211156,0.096637,0.059011,1.066881
2011-09-26T15:05:41.432908,7940,-1.200003,0.710901,1.219124,0.094683,0.063194,1.071261
2011-09-26T15:05:41.442908,7950,-1.331534,0.858289,1.227093,0.092730,0.067376,1.075641
2011-09-26T15:05:41.452908,7960,-1.463065,1.005678,1.235061,0.090777,0.071559,1.080021
2011-09-26T15:05:41.462908,7970,-1.530255,1.092958,1.230470,0.090654,0.066152,1.074196
2011-09-26T15:05:41.472908,7980,-1.594773,1.177741,1.225356,0.090608,0.060346,1.067947
2011-09-26T15:05:41.482908,7990,-1.659290,1.262524,1.220243,0.090561,0.054541,1.061697
2011-09-26T15:05:41.492908,8000,-1.723807,1.347307,1.215129,0.090514,0.048735,1.055448
2011-09-26T15:05:41.502908,8010,-1.788324,1.432090,1.210016,0.090467,0.042929,1.049199
2011-09-26T15:05:41.512908,8020,-1.852841,1.516873,1.204903,0.090421,0.037124,1.042950
2011-09-26T15:05:41.522908,8030,-1.917358,1.601656,1.199789,0.090374,0.031318,1.036701
2011-09-26T15:05:41.532908,8040,-1.981875,1.686439,1.194676,0.090327,0.025512,1.030451
2011-09-26T15:05:41.542908,8050,-2.046392,1.771222,1.189562,0.090281,0.019707,1.024202
2011-09-26T15:05:41.552908,8060,-2.110909,1.856005,1.184449,0.090234,0.013901,1.017953
2011-09-26T15:05:41.562908,8070,-2.175426,1.940788,1.179336,0.090187,0.008095,1.011704
2011-09-26T15:05:41.572908,8080,-1.996721,1.920758,1.147884,0.090476,0.009454,1.006376
2011-09-26T15:05:41.582908,8090,-1.807859,1.896350,1.115333,0.090778,0.011113,1.001087
2011-09-26T15:05:41.592908,8100,-1.618996,1.871942,1.082782,0.091081,0.012771,0.995799
2011-09-26T15:05:41.602908,8110,-1.430133,1.847535,1.050231,0.091383,0.014429,0.990510
2011-09-26T15:05:41.612908,8120,-1.241271,1.823127,1.017679,0.091686,0.016087,0.985221
2011-09-26T15:05:41.622908,8130,-1.052408,1.798719,0.985128,0.091988,0.017745,0.979932
2011-09-26T15:05:41.632908,8140,-0.863546,1.774312,0.952577,0.092290,0.019403,0.974643
2011-09-26T15:05:41.642908,8150,-0.674683,1.749904,0.920026,0.092593,0.021062,0.969354
2011-09-26T15:05:41.652908,8160,-0.485820,1.725497,0.887474,0.092895,0.022720,0.964065
2011-09-26T15:05:41.662908,8170,-0.296958,1.701089,0.854923,0.093198,0.024378,0.958776
2011-09-26T15:05:41.672908,8180,-0.266536,1.682468,0.866909,0.092128,0.026377,0.957889
2011-09-26T15:05:41.682908,8190,-0.243561,1.664119,0.880988,0.090994,0.028391,0.957209
2011-09-26T15:05:41.692908,8200,-0.220587,1.645769,0.895068,0.089860,0.030406,0.956529
2011-09-26T15:05:41.702908,8210,-0.197613,1.627420,0.909147,0.088726,0.032420,0.955848
2011-09-26T15:05:41.712908,8220,-0.174638,1.609071,0.923227,0.087592,0.034435,0.955168
2011-09-26T15:05:41.722908,8230,-0.151664,1.590722,0.937306,0.086458,0.036450,0.954488
2011-09-26T15:05:41.732908,8240,-0.128690,1.572372,0.951386,0.085324,0.038464,0.953808
2011-09-26T15:05:41.742908,8250,-0.105716,1.554023,0.965465,0.084190,0.040479,0.953128
2011-09-26T15:05:41.752908,8260,-0.082741,1.535674,0.979544,0.083056,0.042494,0.952448
2011-09-26T15:05:41.762908,8270,-0.059767,1.517325,0.993624,0.081923,0.044508,0.951768
2011-09-26T15:05:41.772908,8280,-0.036793,1.498975,1.007703,0.080789,0.046523,0.951088
2011-09-26T15:05:41.782908,8290,-0.003343,1.382261,0.996469,0.081516,0.046529,0.955439
2011-09-26T15:05:41.792908,8300,0.030543,1.261447,0.984179,0.082321,0.046452,0.960000
2011-09-26T15:05:41.802908,8310,0.064430,1.140632,0.971889,0.083127,0.046375,0.964561
2011-09-26T15:05:41.812908,8320,0.098316,1.019818,0.959599,0.083932,0.046298,0.969122
2011-09-26T15:05:41.822908,8330,0.132203,0.899004,0.947309,0.084737,0.046221,0.973684
2011-09-26T15:05:41.832908,8340,0.166089,0.778189,0.935020,0.085542,0.046144,0.978245
2011-09-26T15:05:41.842908,8350,0.199976,0.657375,0.922730,0.086348,0.046067,0.982806
2011-09-26T15:05:41.852908,8360,0.233862,0.536560,0.910440,0.087153,0.045989,0.987367
2011-09-26T15:05:41.862908,8370,0.267749,0.415746,0.898150,0.087958,0.045912,0.991928
2011-09-26T15:05:41.872908,8380,0.301635,0.294932,0.885860,0.088763,0.045835,0.996489
2011-09-26T15:05:41.882908,8390,0.168056,0.229519,0.857472,0.090434,0.043751,0.993616
2011-09-26T15:05:41.892908,8400,0.026954,0.166596,0.828360,0.092144,0.041576,0.990409
2011-09-26T15:05:41.902908,8410,-0.114148,0.103673,0.799248,0.093853,0.039402,0.987202
2011-09-26T15:05:41.912908,8420,-0.255251,0.040749,0.770136,0.095563,0.037227,0.983995
2011-09-26T15:05:41.922908,8430,-0.396353,-0.022174,0.741025,0.097272,0.035053,0.980788
2011-09-26T15:05:41.932908,8440,-0.537455,-0.085097,0.711913,0.098982,0.032878,0.977580
2011-09-26T15:05:41.942908,8450,-0.678557,-0.148021,0.682801,0.100692,0.030703,0.974373
2011-09-26T15:05:41.952908,8460,-0.819660,-0.210944,0.653689,0.102401,0.028529,0.971166
2011-09-26T15:05:41.962908,8470,-0.960762,-0.273867,0.624578,0.104111,0.026354,0.967959
2011-09-26T15:05:41.972908,8480,-1.101864,-0.336791,0.595466,0.105821,0.024180,0.964752
2011-09-26T15:05:41.982908,8490,-1.052898,-0.453674,0.583798,0.105527,0.024971,0.965869
2011-09-26T15:05:41.992908,8500,-0.995434,-0.572969,0.572910,0.105145,0.025895,0.967180
2011-09-26T15:05:42.002908,8510,-0.937969,-0.692265,0.562022,0.104762,0.026818,0.968490
2011-09-26T15:05:42.012908,8520,-0.880505,-0.811560,0.551134,0.104380,0.027742,0.969801
2011-09-26T15:05:42.022908,8530,-0.823040,-0.930856,0.540246,0.103997,0.028666,0.971111
2011-09-26T15:05:42.032908,8540,-0.765576,-1.050151,0.529358,0.103615,0.029589,0.972422
2011-09-26T15:05:42.042908,8550,-0.708112,-1.169447,0.518470,0.103232,0.030513,0.973733
2011-09-26T15:05:42.052908,8560,-0.650647,-1.288742,0.507583,0.102849,0.031437,0.975043
2011-09-26T15:05:42.062908,8570,-0.593183,-1.408038,0.496695,0.102467,0.032360,0.976354
2011-09-26T15:05:42.072908,8580,-0.535718,-1.527334,0.485807,0.102084,0.033284,0.977664
2011-09-26T15:05:42.082908,8590,-0.478254,-1.646629,0.474919,0.101702,0.034208,0.978975
2011-09-26T15:05:42.092908,8600,-0.453419,-1.604315,0.438475,0.102867,0.033540,0.981509
2011-09-26T15:05:42.102908,8610,-0.430664,-1.551702,0.400402,0.104130,0.032770,0.984122
2011-09-26T15:05:42.112908,8620,-0.407909,-1.499089,0.362330,0.105394,0.032001,0.986735
2011-09-26T15:05:42.122908,8630,-0.385154,-1.446476,0.324257,0.106658,0.031231,0.989347
2011-09-26T15:05:42.132908,8640,-0.362398,-1.393863,0.286184,0.107922,0.030462,0.991960
2011-09-26T15:05:42.142908,8650,-0.339643,-1.341250,0.248112,0.109185,0.029693,0.994573
2011-09-26T15:05:42.152908,8660,-0.316888,-1.288637,0.210039,0.110449,0.028923,0.997185
2011-09-26T15:05:42.162908,8670,-0.294133,-1.236023,0.171967,0.111713,0.028154,0.999798
2011-09-26T15:05:42.172908,8680,-0.271377,-1.183410,0.133894,0.112976,0.027384,1.002411
2011-09-26T15:05:42.182908,8690,-0.248622,-1.130797,0.095821,0.114240,0.026615,1.005023
2011-09-26T15:05:42.192908,8700,-0.239674,-0.969094,0.107337,0.114535,0.026608,1.008561
2011-09-26T15:05:42.202908,8710,-0.231404,-0.802035,0.121288,0.114781,0.026639,1.012144
2011-09-26T15:05:42.212908,8720,-0.223134,-0.634976,0.135239,0.115028,0.026670,1.015727
2011-09-26T15:05:42.222908,8730,-0.214864,-0.467917,0.149190,0.115275,0.026700,1.019310
2011-09-26T15:05:42.232908,8740,-0.206594,-0.300858,0.163141,0.115522,0.026731,1.022893
2011-09-26T15:05:42.242908,8750,-0.198324,-0.133799,0.177092,0.115768,0.026762,1.026476
2011-09-26T15:05:42.252908,8760,-0.190054,0.033261,0.191043,0.116015,0.026793,1.030059
2011-09-26T15:05:42.262908,8770,-0.181784,0.200320,0.204994,0.116262,0.026823,1.033641
2011-09-26T15:05:42.272908,8780,-0.173515,0.367379,0.218945,0.116509,0.026854,1.037224
2011-09-26T15:05:42.282908,8790,-0.165245,0.534438,0.232896,0.116755,0.026885,1.040807
2011-09-26T15:05:42.292908,8800,-0.042337,0.626929,0.219929,0.114997,0.026327,1.041324
2011-09-26T15:05:42.302908,8810,0.085485,0.716223,0.205808,0.113153,0.025745,1.041709
2011-09-26T15:05:42.312908,8820,0.213308,0.805518,0.191688,0.111310,0.025162,1.042093
2011-09-26T15:05:42.322908,8830,0.341131,0.894812,0.177567,0.109466,0.024579,1.042478
2011-09-26T15:05:42.332908,8840,0.468953,0.984106,0.163446,0.107622,0.023997,1.042863
2011-09-26T15:05:42.342908,8850,0.596776,1.073400,0.149325,0.105778,0.023414,1.043248
2011-09-26T15:05:42.352908,8860,0.724598,1.162694,0.135204,0.103934,0.022831,1.043633
2011-09-26T15:05:42.362908,8870,0.852421,1.251988,0.121083,0.102090,0.022249,1.044018
2011-09-26T15:05:42.372908,8880,0.980244,1.341282,0.106962,0.100246,0.021666,1.044403
2011-09-26T15:05:42.382908,8890,1.108066,1.430576,0.092841,0.098402,0.021084,1.044787
2011-09-26T15:05:42.392908,8900,1.235889,1.519870,0.078720,0.096559,0.020501,1.045172
2011-09-26T15:05:42.402908,8910,1.186817,1.449806,0.107480,0.095308,0.018882,1.033425
2011-09-26T15:05:42.412908,8920,1.129429,1.372251,0.138256,0.094085,0.017215,1.021108
2011-09-26T15:05:42.422908,8930,1.072042,1.294695,0.169032,0.092863,0.015548,1.008791
2011-09-26T15:05:42.432908,8940,1.014655,1.217140,0.199808,0.091640,0.013881,0.996474
2011-09-26T15:05:42.442908,8950,0.957267,1.139584,0.230583,0.090418,0.012214,0.984157
2011-09-26T15:05:42.452908,8960,0.899880,1.062029,0.261359,0.089195,0.010547,0.971839
2011-09-26T15:05:42.462908,8970,0.842493,0.984474,0.292135,0.087972,0.008880,0.959522
2011-09-26T15:05:42.472908,8980,0.785105,0.906918,0.322911,0.086750,0.007212,0.947205
2011-09-26T15:05:42.482908,8990,0.727718,0.829363,0.353687,0.085527,0.005545,0.934888
2011-09-26T15:05:42.492908,9000,0.670331,0.751807,0.384463,0.084305,0.003878,0.922570
2011-09-26T15:05:42.502908,9010,0.831421,0.663310,0.385737,0.082826,0.007311,0.926020
2011-09-26T15:05:42.512908,9020,1.002042,0.574336,0.385724,0.081337,0.010966,0.930157
2011-09-26T15:05:42.522908,9030,1.172662,0.485362,0.385711,0.079848,0.014622,0.934294
2011-09-26T15:05:42.532908,9040,1.343283,0.396388,0.385698,0.078359,0.018277,0.938431
2011-09-26T15:05:42.542908,9050,1.513903,0.307414,0.385685,0.076870,0.021933,0.942567
2011-09-26T15:05:42.552908,9060,1.684523,0.218440,0.385672,0.075380,0.025588,0.946704
2011-09-26T15:05:42.562908,9070,1.855144,0.129466,0.385659,0.073891,0.029243,0.950841
2011-09-26T15:05:42.572908,9080,2.025764,0.040491,0.385646,0.072402,0.032899,0.954978
2011-09-26T15:05:42.582908,9090,2.196385,-0.048483,0.385633,0.070913,0.036554,0.959115
2011-09-26T15:05:42.592908,9100,2.367005,-0.137457,0.385620,0.069423,0.040210,0.963252
2011-09-26T15:05:42.602908,9110,2.099708,-0.216611,0.408211,0.069053,0.040920,0.968678
2011-09-26T15:05:42.612908,9120,1.808971,-0.295240,0.432012,0.068743,0.041474,0.974172
2011-09-26T15:05:42.622908,9130,1.518234,-0.373869,0.455812,0.068434,0.042027,0.979667
2011-09-26T15:05:42.632908,9140,1.227497,-0.452497,0.479613,0.068124,0.042580,0.985162
2011-09-26T15:05:42.642908,9150,0.936760,-0.531126,0.503414,0.067814,0.043133,0.990656
2011-09-26T15:05:42.652908,9160,0.646023,-0.609755,0.527214,0.067504,0.043686,0.996151
2011-09-26T15:05:42.662908,9170,0.355286,-0.688383,0.551015,0.067194,0.044239,1.001646
2011-09-26T15:05:42.672908,9180,0.064549,-0.767012,0.574815,0.066884,0.044792,1.007140
2011-09-26T15:05:42.682908,9190,-0.226188,-0.845641,0.598616,0.066574,0.045346,1.012635
2011-09-26T15:05:42.692908,9200,-0.516925,-0.924269,0.622417,0.066264,0.045899,1.018129
2011-09-26T15:05:42.702908,9210,-0.807662,-1.002898,0.646217,0.065954,0.046452,1.023624
2011-09-26T15:05:42.712908,9220,-0.697987,-0.898067,0.624254,0.064720,0.043055,1.025264
2011-09-26T15:05:42.722908,9230,-0.567238,-0.783581,0.599882,0.063437,0.039450,1.026702
2011-09-26T15:05:42.732908,9240,-0.436488,-0.669094,0.575510,0.062155,0.035845,1.028139
2011-09-26T15:05:42.742908,9250,-0.305739,-0.554608,0.551138,0.060872,0.032240,1.029577
2011-09-26T15:05:42.752908,9260,-0.174990,-0.440121,0.526766,0.059589,0.028635,1.031014
2011-09-26T15:05:42.762908,9270,-0.044240,-0.325634,0.502394,0.058307,0.025030,1.032452
2011-09-26T15:05:42.772908,9280,0.086509,-0.211148,0.478022,0.057024,0.021425,1.033889
2011-09-26T15:05:42.782908,9290,0.217259,-0.096661,0.453650,0.055742,0.017821,1.035326
2011-09-26T15:05:42.792908,9300,0.348008,0.017825,0.429278,0.054459,0.014216,1.036764
2011-09-26T15:05:42.802908,9310,0.478757,0.132312,0.404906,0.053176,0.010611,1.038201
2011-09-26T15:05:42.812908,9320,0.504931,0.288774,0.384461,0.053670,0.014682,1.034709
2011-09-26T15:05:42.822908,9330,0.526245,0.447187,0.364199,0.054245,0.019110,1.030987
2011-09-26T15:05:42.832908,9340,0.547559,0.605600,0.343936,0.054821,0.023538,1.027265
2011-09-26T15:05:42.842908,9350,0.568873,0.764014,0.323674,0.055397,0.027966,1.023544
2011-09-26T15:05:42.852908,9360,0.590187,0.922427,0.303411,0.055972,0.032395,1.019822
2011-09-26T15:05:42.862908,9370,0.611501,1.080840,0.283149,0.056548,0.036823,1.016100
2011-09-26T15:05:42.872908,9380,0.632815,1.239253,0.262887,0.057124,0.041251,1.012378
2011-09-26T15:05:42.882908,9390,0.654129,1.397666,0.242624,0.057700,0.045679,1.008657
2011-09-26T15:05:42.892908,9400,0.675443,1.556080,0.222362,0.058275,0.050107,1.004935
2011-09-26T15:05:42.902908,9410,0.696757,1.714493,0.202099,0.058851,0.054535,1.001213
2011-09-26T15:05:42.912908,9420,0.672449,1.676320,0.186047,0.055886,0.052694,0.994364
2011-09-26T15:05:42.922908,9430,0.646080,1.629268,0.170185,0.052760,0.050570,0.987374
2011-09-26T15:05:42.932908,9440,0.619712,1.582217,0.154323,0.049635,0.048447,0.980383
2011-09-26T15:05:42.942908,9450,0.593343,1.535165,0.138461,0.046510,0.046323,0.973393
2011-09-26T15:05:42.952908,9460,0.566975,1.488114,0.122599,0.043385,0.044199,0.966403
2011-09-26T15:05:42.962908,9470,0.540607,1.441062,0.106737,0.040259,0.042075,0.959412
2011-09-26T15:05:42.972908,9480,0.514238,1.394011,0.090874,0.037134,0.039951,0.952422
2011-09-26T15:05:42.982908,9490,0.487870,1.346959,0.075012,0.034009,0.037827,0.945432
2011-09-26T15:05:42.992908,9500,0.461501,1.299908,0.059150,0.030883,0.035703,0.938441
2011-09-26T15:05:43.002908,9510,0.435133,1.252856,0.043288,0.027758,0.033579,0.931451
2011-09-26T15:05:43.012908,9520,0.408765,1.205805,0.027426,0.024633,0.031455,0.924461
2011-09-26T15:05:43.022908,9530,0.217371,1.233335,0.003161,0.023026,0.032456,0.936341
2011-09-26T15:05:43.032908,9540,0.018074,1.264436,-0.021506,0.021491,0.033606,0.949125
2011-09-26T15:05:43.042908,9550,-0.181223,1.295538,-0.046173,0.019957,0.034756,0.961908
2011-09-26T15:05:43.052908,9560,-0.380520,1.326639,-0.070840,0.018422,0.035906,0.974692
2011-09-26T15:05:43.062908,9570,-0.579817,1.357741,-0.095507,0.016888,0.037056,0.987476
2011-09-26T15:05:43.072908,9580,-0.779114,1.388842,-0.120174,0.015353,0.038206,1.000260
2011-09-26T15:05:43.082908,9590,-0.978411,1.419944,-0.144841,0.013819,0.039356,1.013044
2011-09-26T15:05:43.092908,9600,-1.177709,1.451045,-0.169508,0.012284,0.040506,1.025827
2011-09-26T15:05:43.102908,9610,-1.377006,1.482147,-0.194175,0.010749,0.041656,1.038611
2011-09-26T15:05:43.112908,9620,-1.576303,1.513248,-0.218843,0.009215,0.042806,1.051395
2011-09-26T15:05:43.122908,9630,-1.489099,1.582994,-0.195178,0.008361,0.038529,1.042411
2011-09-26T15:05:43.132908,9640,-1.382563,1.655347,-0.168252,0.007553,0.033886,1.031958
2011-09-26T15:05:43.142908,9650,-1.276028,1.727700,-0.141326,0.006745,0.029243,1.021505
2011-09-26T15:05:43.152908,9660,-1.169493,1.800053,-0.114401,0.005937,0.024600,1.011052
2011-09-26T15:05:43.162908,9670,-1.062958,1.872406,-0.087475,0.005129,0.019956,1.000599
2011-09-26T15:05:43.172908,9680,-0.956423,1.944759,-0.060549,0.004321,0.015313,0.990145
2011-09-26T15:05:43.182908,9690,-0.849887,2.017112,-0.033624,0.003513,0.010670,0.979692
2011-09-26T15:05:43.192908,9700,-0.743352,2.089465,-0.006698,0.002705,0.006027,0.969239
2011-09-26T15:05:43.202908,9710,-0.636817,2.161819,0.020228,0.001897,0.001384,0.958786
2011-09-26T15:05:43.212908,9720,-0.530282,2.234172,0.047154,0.001089,-0.003260,0.948333
2011-09-26T15:05:43.222908,9730,-0.405281,2.027995,0.072016,0.000519,-0.003722,0.948222
2011-09-26T15:05:43.232908,9740,-0.279201,1.805544,0.096757,-0.000038,-0.003941,0.948715
2011-09-26T15:05:43.242908,9750,-0.153121,1.583094,0.121498,-0.000595,-0.004160,0.949208
2011-09-26T15:05:43.252908,9760,-0.027041,1.360644,0.146240,-0.001152,-0.004379,0.949701
2011-09-26T15:05:43.262908,9770,0.099039,1.138194,0.170981,-0.001709,-0.004597,0.950194
2011-09-26T15:05:43.272908,9780,0.225119,0.915744,0.195722,-0.002266,-0.004816,0.950686
2011-09-26T15:05:43.282908,9790,0.351199,0.693293,0.220463,-0.002823,-0.005035,0.951179
2011-09-26T15:05:43.292908,9800,0.477279,0.470843,0.245205,-0.003380,-0.005254,0.951672
2011-09-26T15:05:43.302908,9810,0.603359,0.248393,0.269946,-0.003937,-0.005472,0.952165
2011-09-26T15:05:43.312908,9820,0.729439,0.025943,0.294687,-0.004494,-0.005691,0.952658
2011-09-26T15:05:43.322908,9830,0.855519,-0.196508,0.319429,-0.005051,-0.005910,0.953151
2011-09-26T15:05:43.332908,9840,0.882138,-0.326765,0.311795,-0.003847,-0.000807,0.958398
2011-09-26T15:05:43.342908,9850,0.903653,-0.452292,0.302499,-0.002552,0.004569,0.963889
2011-09-26T15:05:43.352908,9860,0.925168,-0.577819,0.293204,-0.001257,0.009944,0.969379
2011-09-26T15:05:43.362908,9870,0.946683,-0.703346,0.283909,0.000037,0.015320,0.974870
2011-09-26T15:05:43.372908,9880,0.968198,-0.828873,0.274614,0.001332,0.020695,0.980361
2011-09-26T15:05:43.382908,9890,0.989713,-0.954400,0.265318,0.002627,0.026071,0.985852
2011-09-26T15:05:43.392908,9900,1.011228,-1.079928,0.256023,0.003922,0.031447,0.991342
2011-09-26T15:05:43.402908,9910,1.032743,-1.205455,0.246728,0.005216,0.036822,0.996833
2011-09-26T15:05:43.412908,9920,1.054258,-1.330982,0.237433,0.006511,0.042198,1.002324
2011-09-26T15:05:43.422908,9930,1.075773,-1.456509,0.228137,0.007806,0.047574,1.007815
2011-09-26T15:05:43.432908,9940,1.095512,-1.516603,0.223696,0.008845,0.045185,1.007877
2011-09-26T15:05:43.442908,9950,1.115166,-1.573550,0.219489,0.009871,0.042423,1.007678
2011-09-26T15:05:43.452908,9960,1.134819,-1.630496,0.215282,0.010898,0.039661,1.007479
2011-09-26T15:05:43.462908,9970,1.154473,-1.687443,0.211074,0.011924,0.036898,1.007280
2011-09-26T15:05:43.472908,9980,1.174126,-1.744389,0.206867,0.012951,0.034136,1.007081
2011-09-26T15:05:43.482908,9990,1.193780,-1.801335,0.202659,0.013977,0.031374,1.006882
2011-09-26T15:05:43.492908,10000,1.213433,-1.858282,0.198452,0.015004,0.028612,1.006683
2011-09-26T15:05:43.502908,10010,1.233086,-1.915228,0.194245,0.016030,0.025850,1.006484
2011-09-26T15:05:43.512908,10020,1.252740,-1.972175,0.190037,0.017057,0.023088,1.006285
2011-09-26T15:05:43.522908,10030,1.272393,-2.029121,0.185830,0.018083,0.020325,1.006086
2011-09-26T15:05:43.532908,10040,1.292047,-2.086068,0.181622,0.019110,0.017563,1.005887
2011-09-26T15:05:43.542908,10050,1.262441,-2.016227,0.189796,0.018526,0.020923,1.005451
2011-09-26T15:05:43.552908,10060,1.230314,-1.939895,0.198603,0.017859,0.024597,1.005002
2011-09-26T15:05:43.562908,10070,1.198186,-1.863563,0.207410,0.017192,0.028271,1.004553
2011-09-26T15:05:43.572908,10080,1.166059,-1.787230,0.216217,0.016526,0.031944,1.004104
2011-09-26T15:05:43.582908,10090,1.133931,-1.710898,0.225024,0.015859,0.035618,1.003655
2011-09-26T15:05:43.592908,10100,1.101804,-1.634566,0.233831,0.015192,0.039292,1.003206
2011-09-26T15:05:43.602908,10110,1.069676,-1.558234,0.242638,0.014526,0.042965,1.002757
2011-09-26T15:05:43.612908,10120,1.037549,-1.481901,0.251445,0.013859,0.046639,1.002308
2011-09-26T15:05:43.622908,10130,1.005421,-1.405569,0.260253,0.013193,0.050312,1.001860
2011-09-26T15:05:43.632908,10140,0.973294,-1.329237,0.269060,0.012526,0.053986,1.001411
2011-09-26T15:05:43.642908,10150,0.839690,-1.089003,0.249232,0.012954,0.057447,1.001679
2011-09-26T15:05:43.652908,10160,0.698808,-0.837014,0.227351,0.013461,0.060892,1.001998
2011-09-26T15:05:43.662908,10170,0.557927,-0.585026,0.205470,0.013967,0.064337,1.002318
2011-09-26T15:05:43.672908,10180,0.417045,-0.333037,0.183589,0.014474,0.067783,1.002638
2011-09-26T15:05:43.682908,10190,0.276164,-0.081048,0.161708,0.014980,0.071228,1.002957
2011-09-26T15:05:43.692908,10200,0.135282,0.170941,0.139827,0.015487,0.074673,1.003277
2011-09-26T15:05:43.702908,10210,-0.005599,0.422929,0.117946,0.015993,0.078118,1.003597
2011-09-26T15:05:43.712908,10220,-0.146481,0.674918,0.096064,0.016500,0.081564,1.003916
2011-09-26T15:05:43.722908,10230,-0.287362,0.926907,0.074183,0.017006,0.085009,1.004236
2011-09-26T15:05:43.732908,10240,-0.428244,1.178896,0.052302,0.017513,0.088454,1.004556
2011-09-26T15:05:43.742908,10250,-0.394176,1.218996,0.041155,0.016911,0.083492,1.007181
2011-09-26T15:05:43.752908,10260,-0.351095,1.248179,0.030560,0.016253,0.078097,1.009924
2011-09-26T15:05:43.762908,10270,-0.308013,1.277362,0.019966,0.015595,0.072702,1.012668
2011-09-26T15:05:43.772908,10280,-0.264932,1.306545,0.009371,0.014937,0.067307,1.015412
2011-09-26T15:05:43.782908,10290,-0.221851,1.335728,-0.001223,0.014278,0.061912,1.018156
2011-09-26T15:05:43.792908,10300,-0.178769,1.364912,-0.011817,0.013620,0.056517,1.020899
2011-09-26T15:05:43.802908,10310,-0.135688,1.394095,-0.022412,0.012962,0.051121,1.023643
2011-09-26T15:05:43.812908,10320,-0.092606,1.423278,-0.033006,0.012304,0.045726,1.026387
2011-09-26T15:05:43.822908,10330,-0.049525,1.452461,-0.043601,0.011646,0.040331,1.029131
2011-09-26T15:05:43.832908,10340,-0.006443,1.481644,-0.054195,0.010987,0.034936,1.031874
2011-09-26T15:05:43.842908,10350,0.036638,1.510827,-0.064790,0.010329,0.029541,1.034618
2011-09-26T15:05:43.852908,10360,0.064427,1.508906,-0.048439,0.010906,0.026934,1.028278
2011-09-26T15:05:43.862908,10370,0.091375,1.505275,-0.030607,0.011551,0.024482,1.021438
2011-09-26T15:05:43.872908,10380,0.118322,1.501644,-0.012775,0.012196,0.022029,1.014599
2011-09-26T15:05:43.882908,10390,0.145270,1.498013,0.005057,0.012841,0.019576,1.007759
2011-09-26T15:05:43.892908,10400,0.172218,1.494381,0.022889,0.013486,0.017123,1.000920
2011-09-26T15:05:43.902908,10410,0.199166,1.490750,0.040721,0.014131,0.014670,0.994080
2011-09-26T15:05:43.912908,10420,0.226113,1.487119,0.058552,0.014775,0.012217,0.987241
2011-09-26T15:05:43.922908,10430,0.253061,1.483488,0.076384,0.015420,0.009764,0.980401
2011-09-26T15:05:43.932908,10440,0.280009,1.479856,0.094216,0.016065,0.007311,0.973562
2011-09-26T15:05:43.942908,10450,0.306956,1.476225,0.112048,0.016710,0.004858,0.966722
2011-09-26T15:05:43.952908,10460,0.513171,1.399003,0.108981,0.016407,0.010606,0.959719
2011-09-26T15:05:43.962908,10470,0.728425,1.318070,0.104859,0.016056,0.016768,0.952707
2011-09-26T15:05:43.972908,10480,0.943678,1.237137,0.100737,0.015705,0.022930,0.945695
2011-09-26T15:05:43.982908,10490,1.158932,1.156204,0.096616,0.015354,0.029091,0.938684
2011-09-26T15:05:43.992908,10500,1.374185,1.075271,0.092494,0.015003,0.035253,0.931672
2011-09-26T15:05:44.002908,10510,1.589438,0.994338,0.088373,0.014652,0.041415,0.924660
2011-09-26T15:05:44.012908,10520,1.804692,0.913406,0.084251,0.014302,0.047576,0.917649
2011-09-26T15:05:44.022908,10530,2.019945,0.832473,0.080130,0.013951,0.053738,0.910637
2011-09-26T15:05:44.032908,10540,2.235198,0.751540,0.076008,0.013600,0.059900,0.903625
2011-09-26T15:05:44.042908,10550,2.450452,0.670607,0.071886,0.013249,0.066062,0.896614
2011-09-26T15:05:44.052908,10560,2.313750,0.462217,0.060063,0.016203,0.065593,0.906919
2011-09-26T15:05:44.062908,10570,2.158600,0.247145,0.047835,0.019331,0.064777,0.918133
2011-09-26T15:05:44.072908,10580,2.003451,0.032074,0.035608,0.022458,0.063961,0.929347
2011-09-26T15:05:44.082908,10590,1.848301,-0.182997,0.023381,0.025586,0.063145,0.940560
2011-09-26T15:05:44.092908,10600,1.693152,-0.398068,0.011153,0.028713,0.062329,0.951774
2011-09-26T15:05:44.102908,10610,1.538002,-0.613139,-0.001074,0.031841,0.061513,0.962988
2011-09-26T15:05:44.112908,10620,1.382852,-0.828211,-0.013302,0.034968,0.060697,0.974201
2011-09-26T15:05:44.122908,10630,1.227703,-1.043282,-0.025529,0.038095,0.059881,0.985415
2011-09-26T15:05:44.132908,10640,1.072553,-1.258353,-0.037756,0.041223,0.059065,0.996629
2011-09-26T15:05:44.142908,10650,0.917404,-1.473424,-0.049984,0.044350,0.058249,1.007842
2011-09-26T15:05:44.152908,10660,0.762254,-1.688496,-0.062211,0.047478,0.057433,1.019056
2011-09-26T15:05:44.162908,10670,0.962541,-1.568075,-0.085235,0.048252,0.053682,1.021921
2011-09-26T15:05:44.172908,10680,1.184032,-1.427640,-0.108903,0.048885,0.049756,1.024288
2011-09-26T15:05:44.182908,10690,1.405523,-1.287205,-0.132571,0.049519,0.045829,1.026655
2011-09-26T15:05:44.192908,10700,1.627014,-1.146770,-0.156239,0.050153,0.041903,1.029022
2011-09-26T15:05:44.202908,10710,1.848505,-1.006335,-0.179907,0.050786,0.037977,1.031390
2011-09-26T15:05:44.212908,10720,2.069996,-0.865900,-0.203575,0.051420,0.034051,1.033757
2011-09-26T15:05:44.222908,10730,2.291487,-0.725465,-0.227243,0.052053,0.030124,1.036124
2011-09-26T15:05:44.232908,10740,2.512978,-0.585030,-0.250911,0.052687,0.026198,1.038491
2011-09-26T15:05:44.242908,10750,2.734469,-0.444595,-0.274579,0.053321,0.022272,1.040858
2011-09-26T15:05:44.252908,10760,2.955960,-0.304160,-0.298247,0.053954,0.018345,1.043225
2011-09-26T15:05:44.262908,10770,2.641161,-0.267068,-0.302358,0.052990,0.023478,1.040365
2011-09-26T15:05:44.272908,10780,2.297294,-0.235579,-0.305410,0.051938,0.029101,1.037223
2011-09-26T15:05:44.282908,10790,1.953428,-0.204089,-0.308461,0.050887,0.034724,1.034080
2011-09-26T15:05:44.292908,10800,1.609561,-0.172600,-0.311512,0.049836,0.040347,1.030937
2011-09-26T15:05:44.302908,10810,1.265694,-0.141110,-0.314564,0.048785,0.045970,1.027795
2011-09-26T15:05:44.312908,10820,0.921827,-0.109620,-0.317615,0.047733,0.051593,1.024652
2011-09-26T15:05:44.322908,10830,0.577960,-0.078131,-0.320666,0.046682,0.057217,1.021509
2011-09-26T15:05:44.332908,10840,0.234093,-0.046641,-0.323718,0.045631,0.062840,1.018366
2011-09-26T15:05:44.342908,10850,-0.109774,-0.015152,-0.326769,0.044579,0.068463,1.015224
2011-09-26T15:05:44.352908,10860,-0.453640,0.016338,-0.329820,0.043528,0.074086,1.012081
2011-09-26T15:05:44.362908,10870,-0.402953,-0.092198,-0.422270,0.043185,0.073276,1.010244
2011-09-26T15:05:44.372908,10880,-0.329612,-0.208773,-0.519853,0.042882,0.072096,1.008483
2011-09-26T15:05:44.382908,10890,-0.256271,-0.325348,-0.617436,0.042580,0.070917,1.006722
2011-09-26T15:05:44.392908,10900,-0.182930,-0.441923,-0.715019,0.042277,0.069737,1.004960
2011-09-26T15:05:44.402908,10910,-0.109589,-0.558498,-0.812602,0.041974,0.068557,1.003199
2011-09-26T15:05:44.412908,10920,-0.036248,-0.675073,-0.910184,0.041672,0.067378,1.001437
2011-09-26T15:05:44.422908,10930,0.037092,-0.791648,-1.007767,0.041369,0.066198,0.999676
2011-09-26T15:05:44.432908,10940,0.110433,-0.908223,-1.105350,0.041066,0.065019,0.997915
2011-09-26T15:05:44.442908,10950,0.183774,-1.024798,-1.202933,0.040764,0.063839,0.996153
2011-09-26T15:05:44.452908,10960,0.257115,-1.141373,-1.300516,0.040461,0.062660,0.994392
2011-09-26T15:05:44.462908,10970,0.330456,-1.257948,-1.398099,0.040158,0.061480,0.992630
2011-09-26T15:05:44.472908,10980,0.336198,-1.204596,-1.416229,0.041570,0.050870,0.994696
2011-09-26T15:05:44.482908,10990,0.338118,-1.141635,-1.429866,0.043079,0.039727,0.996978
2011-09-26T15:05:44.492908,11000,0.340037,-1.078674,-1.443504,0.044588,0.028583,0.999260
2011-09-26T15:05:44.502908,11010,0.341957,-1.015714,-1.457141,0.046096,0.017440,1.001542
2011-09-26T15:05:44.512908,11020,0.343877,-0.952753,-1.470779,0.047605,0.006297,1.003824
2011-09-26T15:05:44.522908,11030,0.345797,-0.889793,-1.484416,0.049114,-0.004846,1.006107
2011-09-26T15:05:44.532908,11040,0.347716,-0.826832,-1.498054,0.050623,-0.015990,1.008389
2011-09-26T15:05:44.542908,11050,0.349636,-0.763872,-1.511692,0.052131,-0.027133,1.010671
2011-09-26T15:05:44.552908,11060,0.351556,-0.700911,-1.525329,0.053640,-0.038276,1.012953
2011-09-26T15:05:44.562908,11070,0.353476,-0.637951,-1.538967,0.055149,-0.049420,1.015235
2011-09-26T15:05:44.572908,11080,0.454324,-0.667236,-1.516660,0.053672,-0.045609,1.010531
2011-09-26T15:05:44.582908,11090,0.560447,-0.701439,-1.492437,0.052036,-0.041001,1.005456
2011-09-26T15:05:44.592908,11100,0.666569,-0.735641,-1.468215,0.050400,-0.036393,1.000380
2011-09-26T15:05:44.602908,11110,0.772691,-0.769844,-1.443992,0.048764,-0.031785,0.995304
2011-09-26T15:05:44.612908,11120,0.878814,-0.804047,-1.419769,0.047128,-0.027177,0.990228
2011-09-26T15:05:44.622908,11130,0.984936,-0.838249,-1.395547,0.045492,-0.022569,0.985152
2011-09-26T15:05:44.632908,11140,1.091058,-0.872452,-1.371324,0.043856,-0.017961,0.980077
2011-09-26T15:05:44.642908,11150,1.197181,-0.906655,-1.347101,0.042220,-0.013353,0.975001
2011-09-26T15:05:44.652908,11160,1.303303,-0.940858,-1.322879,0.040583,-0.008745,0.969925
2011-09-26T15:05:44.662908,11170,1.409425,-0.975060,-1.298656,0.038947,-0.004138,0.964849
2011-09-26T15:05:44.672908,11180,1.515547,-1.009263,-1.274433,0.037311,0.000470,0.959773
2011-09-26T15:05:44.682908,11190,1.340854,-0.969174,-1.333875,0.040645,0.011454,0.966450
2011-09-26T15:05:44.692908,11200,1.147977,-0.924274,-1.398734,0.044300,0.022851,0.973888
2011-09-26T15:05:44.702908,11210,0.955100,-0.879375,-1.463593,0.047955,0.034248,0.981326
2011-09-26T15:05:44.712908,11220,0.762223,-0.834475,-1.528452,0.051610,0.045645,0.988764
2011-09-26T15:05:44.722908,11230,0.569346,-0.789575,-1.593311,0.055266,0.057041,0.996202
2011-09-26T15:05:44.732908,11240,0.376469,-0.744676,-1.658170,0.058921,0.068438,1.003640
2011-09-26T15:05:44.742908,11250,0.183592,-0.699776,-1.723029,0.062576,0.079835,1.011078
2011-09-26T15:05:44.752908,11260,-0.009285,-0.654876,-1.787888,0.066231,0.091231,1.018516
2011-09-26T15:05:44.762908,11270,-0.202163,-0.609977,-1.852748,0.069887,0.102628,1.025954
2011-09-26T15:05:44.772908,11280,-0.395040,-0.565077,-1.917607,0.073542,0.114025,1.033392
2011-09-26T15:05:44.782908,11290,-0.492103,-0.502288,-1.900907,0.072321,0.108424,1.034304
2011-09-26T15:05:44.792908,11300,-0.583848,-0.438505,-1.879680,0.070830,0.101879,1.034855
2011-09-26T15:05:44.802908,11310,-0.675592,-0.374723,-1.858454,0.069339,0.095334,1.035405
2011-09-26T15:05:44.812908,11320,-0.767337,-0.310940,-1.837227,0.067847,0.088789,1.035956
2011-09-26T15:05:44.822908,11330,-0.859082,-0.247158,-1.816001,0.066356,0.082245,1.036506
2011-09-26T15:05:44.832908,11340,-0.950827,-0.183375,-1.794774,0.064865,0.075700,1.037056
2011-09-26T15:05:44.842908,11350,-1.042572,-0.119593,-1.773547,0.063374,0.069155,1.037607
2011-09-26T15:05:44.852908,11360,-1.134317,-0.055811,-1.752321,0.061882,0.062610,1.038157
2011-09-26T15:05:44.862908,11370,-1.226061,0.007972,-1.731094,0.060391,0.056065,1.038707
2011-09-26T15:05:44.872908,11380,-1.317806,0.071754,-1.709867,0.058900,0.049521,1.039258
2011-09-26T15:05:44.882908,11390,-1.193780,0.024171,-1.712179,0.058517,0.042793,1.033994
2011-09-26T15:05:44.892908,11400,-1.057412,-0.029782,-1.715837,0.058197,0.036054,1.028397
2011-09-26T15:05:44.902908,11410,-0.921044,-0.083735,-1.719495,0.057877,0.029316,1.022800
2011-09-26T15:05:44.912908,11420,-0.784676,-0.137688,-1.723154,0.057557,0.022577,1.017203
2011-09-26T15:05:44.922908,11430,-0.648308,-0.191641,-1.726812,0.057237,0.015839,1.011606
2011-09-26T15:05:44.932908,11440,-0.511940,-0.245594,-1.730470,0.056917,0.009100,1.006009
2011-09-26T15:05:44.942908,11450,-0.375572,-0.299547,-1.734128,0.056597,0.002362,1.000412
2011-09-26T15:05:44.952908,11460,-0.239204,-0.353500,-1.737786,0.056277,-0.004377,0.994815
2011-09-26T15:05:44.962908,11470,-0.102836,-0.407453,-1.741444,0.055957,-0.011115,0.989218
2011-09-26T15:05:44.972908,11480,0.033532,-0.461406,-1.745102,0.055637,-0.017854,0.983621
2011-09-26T15:05:44.982908,11490,0.105781,-0.394337,-1.755174,0.055301,-0.013590,0.985530
2011-09-26T15:05:44.992908,11500,0.174097,-0.319846,-1.765640,0.054963,-0.008652,0.987899
2011-09-26T15:05:45.002908,11510,0.242413,-0.245355,-1.776105,0.054626,-0.003714,0.990268
2011-09-26T15:05:45.012908,11520,0.310729,-0.170863,-1.786571,0.054288,0.001223,0.992637
2011-09-26T15:05:45.022908,11530,0.379045,-0.096372,-1.797036,0.053950,0.006161,0.995006
2011-09-26T15:05:45.032908,11540,0.447362,-0.021881,-1.807502,0.053613,0.011099,0.997376
2011-09-26T15:05:45.042908,11550,0.515678,0.052611,-1.817967,0.053275,0.016037,0.999745
2011-09-26T15:05:45.052908,11560,0.583994,0.127102,-1.828433,0.052937,0.020975,1.002114
2011-09-26T15:05:45.062908,11570,0.652310,0.201593,-1.838898,0.052600,0.025913,1.004483
2011-09-26T15:05:45.072908,11580,0.720626,0.276084,-1.849364,0.052262,0.030851,1.006852
2011-09-26T15:05:45.082908,11590,0.788942,0.350576,-1.859829,0.051925,0.035789,1.009221
2011-09-26T15:05:45.092908,11600,1.009180,0.338367,-1.861677,0.052331,0.033215,1.009967
2011-09-26T15:05:45.102908,11610,1.239824,0.320220,-1.862934,0.052789,0.030126,1.010601
2011-09-26T15:05:45.112908,11620,1.470468,0.302072,-1.864191,0.053247,0.027037,1.011235
2011-09-26T15:05:45.122908,11630,1.701112,0.283924,-1.865448,0.053705,0.023949,1.011869
2011-09-26T15:05:45.132908,11640,1.931756,0.265777,-1.866706,0.054163,0.020860,1.012503
2011-09-26T15:05:45.142908,11650,2.162400,0.247629,-1.867963,0.054621,0.017771,1.013138
2011-09-26T15:05:45.152908,11660,2.393045,0.229482,-1.869220,0.055079,0.014683,1.013772
2011-09-26T15:05:45.162908,11670,2.623689,0.211334,-1.870477,0.055537,0.011594,1.014406
2011-09-26T15:05:45.172908,11680,2.854333,0.193186,-1.871734,0.055995,0.008505,1.015040
2011-09-26T15:05:45.182908,11690,3.084977,0.175039,-1.872992,0.056453,0.005416,1.015674
2011-09-26T15:05:45.192908,11700,2.884660,0.212569,-1.826978,0.056330,0.011854,1.011997
2011-09-26T15:05:45.202908,11710,2.657864,0.253520,-1.778059,0.056171,0.018876,1.008056
2011-09-26T15:05:45.212908,11720,2.431068,0.294471,-1.729141,0.056011,0.025899,1.004114
2011-09-26T15:05:45.222908,11730,2.204271,0.335423,-1.680222,0.055852,0.032921,1.000172
2011-09-26T15:05:45.232908,11740,1.977475,0.376374,-1.631304,0.055693,0.039944,0.996231
2011-09-26T15:05:45.242908,11750,1.750679,0.417325,-1.582385,0.055534,0.046966,0.992289
2011-09-26T15:05:45.252908,11760,1.523883,0.458276,-1.533467,0.055375,0.053989,0.988347
2011-09-26T15:05:45.262908,11770,1.297086,0.499227,-1.484548,0.055216,0.061011,0.984406
2011-09-26T15:05:45.272908,11780,1.070290,0.540179,-1.435630,0.055057,0.068034,0.980464
2011-09-26T15:05:45.282908,11790,0.843494,0.581130,-1.386711,0.054897,0.075056,0.976522
2011-09-26T15:05:45.292908,11800,0.616698,0.622081,-1.337793,0.054738,0.082079,0.972580
2011-09-26T15:05:45.302908,11810,0.494712,0.687960,-1.345477,0.054794,0.079447,0.971656
2011-09-26T15:05:45.312908,11820,0.378885,0.755304,-1.356488,0.054862,0.076248,0.970909
2011-09-26T15:05:45.322908,11830,0.263058,0.822648,-1.367498,0.054929,0.073049,0.970162
2011-09-26T15:05:45.332908,11840,0.147231,0.889992,-1.378509,0.054997,0.069850,0.969415
2011-09-26T15:05:45.342908,11850,0.031404,0.957336,-1.389519,0.055065,0.066651,0.968669
2011-09-26T15:05:45.352908,11860,-0.084423,1.024680,-1.400529,0.055133,0.063452,0.967922
2011-09-26T15:05:45.362908,11870,-0.200250,1.092024,-1.411540,0.055201,0.060253,0.967175
2011-09-26T15:05:45.372908,11880,-0.316077,1.159368,-1.422550,0.055269,0.057054,0.966428
2011-09-26T15:05:45.382908,11890,-0.431904,1.226712,-1.433561,0.055337,0.053855,0.965681
2011-09-26T15:05:45.392908,11900,-0.547731,1.294056,-1.444571,0.055405,0.050656,0.964934
2011-09-26T15:05:45.402908,11910,-0.564530,1.323229,-1.420299,0.054216,0.048917,0.969038
2011-09-26T15:05:45.412908,11920,-0.575298,1.350078,-1.393879,0.052950,0.047266,0.973437
2011-09-26T15:05:45.422908,11930,-0.586066,1.376926,-1.367459,0.051685,0.045616,0.977836
2011-09-26T15:05:45.432908,11940,-0.596835,1.403775,-1.341039,0.050419,0.043965,0.982236
2011-09-26T15:05:45.442908,11950,-0.607603,1.430623,-1.314619,0.049153,0.042314,0.986635
2011-09-26T15:05:45.452908,11960,-0.618371,1.457472,-1.288199,0.047888,0.040664,0.991034
2011-09-26T15:05:45.462908,11970,-0.629140,1.484320,-1.261779,0.046622,0.039013,0.995433
2011-09-26T15:05:45.472908,11980,-0.639908,1.511169,-1.235359,0.045356,0.037362,0.999833
2011-09-26T15:05:45.482908,11990,-0.650676,1.538018,-1.208939,0.044090,0.035712,1.004232
2011-09-26T15:05:45.492908,12000,-0.661445,1.564866,-1.182519,0.042825,0.034061,1.008631
2011-09-26T15:05:45.502908,12010,-0.488008,1.620586,-1.167773,0.043316,0.032213,1.005738
2011-09-26T15:05:45.512908,12020,-0.303724,1.678006,-1.153714,0.043910,0.030354,1.002415
2011-09-26T15:05:45.522908,12030,-0.119439,1.735426,-1.139655,0.044505,0.028495,0.999092
2011-09-26T15:05:45.532908,12040,0.064845,1.792846,-1.125595,0.045099,0.026635,0.995769
2011-09-26T15:05:45.542908,12050,0.249129,1.850266,-1.111536,0.045694,0.024776,0.992447
2011-09-26T15:05:45.552908,12060,0.433414,1.907686,-1.097477,0.046289,0.022917,0.989124
2011-09-26T15:05:45.562908,12070,0.617698,1.965106,-1.083418,0.046883,0.021057,0.985801
2011-09-26T15:05:45.572908,12080,0.801983,2.022526,-1.069359,0.047478,0.019198,0.982478
2011-09-26T15:05:45.582908,12090,0.986267,2.079946,-1.055300,0.048072,0.017339,0.979155
2011-09-26T15:05:45.592908,12100,1.170551,2.137366,-1.041241,0.048667,0.015480,0.975833
2011-09-26T15:05:45.602908,12110,1.354836,2.194786,-1.027181,0.049261,0.013620,0.972510
2011-09-26T15:05:45.612908,12120,1.225860,2.158796,-1.042362,0.050479,0.019838,0.968117
2011-09-26T15:05:45.622908,12130,1.070787,2.115025,-1.059978,0.051749,0.026728,0.963634
2011-09-26T15:05:45.632908,12140,0.915713,2.071253,-1.077595,0.053019,0.033618,0.959152
2011-09-26T15:05:45.642908,12150,0.760639,2.027481,-1.095211,0.054288,0.040508,0.954669
2011-09-26T15:05:45.652908,12160,0.605566,1.983710,-1.112827,0.055558,0.047398,0.950187
2011-09-26T15:05:45.662908,12170,0.450492,1.939938,-1.130444,0.056828,0.054289,0.945705
2011-09-26T15:05:45.672908,12180,0.295419,1.896166,-1.148060,0.058098,0.061179,0.941222
2011-09-26T15:05:45.682908,12190,0.140345,1.852395,-1.165676,0.059367,0.068069,0.936740
2011-09-26T15:05:45.692908,12200,-0.014729,1.808623,-1.183293,0.060637,0.074959,0.932257
2011-09-26T15:05:45.702908,12210,-0.169802,1.764851,-1.200909,0.061907,0.081850,0.927775
2011-09-26T15:05:45.712908,12220,-0.307147,1.779932,-1.206029,0.061486,0.078452,0.932783
2011-09-26T15:05:45.722908,12230,-0.443367,1.798749,-1.210355,0.060957,0.074402,0.938393
2011-09-26T15:05:45.732908,12240,-0.579586,1.817567,-1.214680,0.060428,0.070351,0.944004
2011-09-26T15:05:45.742908,12250,-0.715805,1.836385,-1.219006,0.059900,0.066300,0.949614
2011-09-26T15:05:45.752908,12260,-0.852024,1.855203,-1.223332,0.059371,0.062250,0.955224
2011-09-26T15:05:45.762908,12270,-0.988244,1.874021,-1.227658,0.058842,0.058199,0.960835
2011-09-26T15:05:45.772908,12280,-1.124463,1.892839,-1.231984,0.058314,0.054148,0.966445
2011-09-26T15:05:45.782908,12290,-1.260682,1.911657,-1.236310,0.057785,0.050098,0.972056
2011-09-26T15:05:45.792908,12300,-1.396901,1.930475,-1.240636,0.057256,0.046047,0.977666
2011-09-26T15:05:45.802908,12310,-1.533121,1.949292,-1.244962,0.056728,0.041996,0.983277
2011-09-26T15:05:45.812908,12320,-1.523412,2.055836,-1.219911,0.056112,0.045246,0.987570
2011-09-26T15:05:45.822908,12330,-1.504718,2.167782,-1.193051,0.055490,0.048945,0.991783
2011-09-26T15:05:45.832908,12340,-1.486024,2.279727,-1.166192,0.054869,0.052644,0.995995
2011-09-26T15:05:45.842908,12350,-1.467329,2.391673,-1.139332,0.054248,0.056343,1.000208
2011-09-26T15:05:45.852908,12360,-1.448635,2.503619,-1.112472,0.053627,0.060043,1.004420
2011-09-26T15:05:45.862908,12370,-1.429940,2.615564,-1.085612,0.053005,0.063742,1.008633
2011-09-26T15:05:45.872908,12380,-1.411246,2.727510,-1.058753,0.052384,0.067441,1.012845
2011-09-26T15:05:45.882908,12390,-1.392552,2.839456,-1.031893,0.051763,0.071140,1.017058
2011-09-26T15:05:45.892908,12400,-1.373857,2.951401,-1.005033,0.051142,0.074839,1.021270
2011-09-26T15:05:45.902908,12410,-1.355163,3.063347,-0.978174,0.050520,0.078539,1.025483
2011-09-26T15:05:45.912908,12420,-1.336468,3.175293,-0.951314,0.049899,0.082238,1.029695
2011-09-26T15:05:45.922908,12430,-1.482067,3.234665,-0.924636,0.049885,0.078545,1.024673
2011-09-26T15:05:45.932908,12440,-1.639145,3.290364,-0.897971,0.049912,0.074336,1.019005
2011-09-26T15:05:45.942908,12450,-1.796222,3.346063,-0.871306,0.049940,0.070127,1.013337
2011-09-26T15:05:45.952908,12460,-1.953300,3.401762,-0.844641,0.049967,0.065918,1.007669
2011-09-26T15:05:45.962908,12470,-2.110378,3.457460,-0.817976,0.049995,0.061709,1.002001
2011-09-26T15:05:45.972908,12480,-2.267455,3.513159,-0.791310,0.050023,0.057499,0.996333
2011-09-26T15:05:45.982908,12490,-2.424533,3.568858,-0.764645,0.050050,0.053290,0.990665
2011-09-26T15:05:45.992908,12500,-2.581611,3.624557,-0.737980,0.050078,0.049081,0.984997
2011-09-26T15:05:46.002908,12510,-2.738689,3.680256,-0.711315,0.050106,0.044872,0.979329
2011-09-26T15:05:46.012908,12520,-2.895766,3.735955,-0.684650,0.050133,0.040663,0.973662
2011-09-26T15:05:46.022908,12530,-2.795767,3.604739,-0.699495,0.049376,0.042326,0.967996
2011-09-26T15:05:46.032908,12540,-2.679562,3.461741,-0.716956,0.048569,0.044360,0.962331
2011-09-26T15:05:46.042908,12550,-2.563357,3.318742,-0.734418,0.047762,0.046393,0.956666
2011-09-26T15:05:46.052908,12560,-2.447152,3.175744,-0.751879,0.046955,0.048427,0.951001
2011-09-26T15:05:46.062908,12570,-2.330947,3.032745,-0.769340,0.046149,0.050460,0.945336
2011-09-26T15:05:46.072908,12580,-2.214742,2.889746,-0.786802,0.045342,0.052494,0.939671
2011-09-26T15:05:46.082908,12590,-2.098537,2.746748,-0.804263,0.044535,0.054527,0.934006
2011-09-26T15:05:46.092908,12600,-1.982331,2.603749,-0.821725,0.043728,0.056560,0.928341
2011-09-26T15:05:46.102908,12610,-1.866126,2.460750,-0.839186,0.042921,0.058594,0.922676
2011-09-26T15:05:46.112908,12620,-1.749921,2.317752,-0.856648,0.042114,0.060627,0.917011
2011-09-26T15:05:46.122908,12630,-1.794679,2.125413,-0.843439,0.043022,0.061691,0.918629
2011-09-26T15:05:46.132908,12640,-1.852737,1.928997,-0.827696,0.044072,0.062674,0.920848
2011-09-26T15:05:46.142908,12650,-1.910794,1.732581,-0.811953,0.045122,0.063658,0.923068
2011-09-26T15:05:46.152908,12660,-1.968852,1.536166,-0.796211,0.046172,0.064641,0.925288
2011-09-26T15:05:46.162908,12670,-2.026909,1.339750,-0.780468,0.047222,0.065624,0.927507
2011-09-26T15:05:46.172908,12680,-2.084967,1.143335,-0.764725,0.048271,0.066608,0.929727
2011-09-26T15:05:46.182908,12690,-2.143024,0.946919,-0.748982,0.049321,0.067591,0.931946
2011-09-26T15:05:46.192908,12700,-2.201082,0.750503,-0.733240,0.050371,0.068574,0.934166
2011-09-26T15:05:46.202908,12710,-2.259140,0.554088,-0.717497,0.051421,0.069558,0.936386
2011-09-26T15:05:46.212908,12720,-2.317197,0.357672,-0.701754,0.052471,0.070541,0.938605
2011-09-26T15:05:46.222908,12730,-2.375255,0.161256,-0.686011,0.053521,0.071524,0.940825
2011-09-26T15:05:46.232908,12740,-2.438387,0.092345,-0.656487,0.055766,0.070422,0.942645
2011-09-26T15:05:46.242908,12750,-2.501813,0.030810,-0.626165,0.058080,0.069199,0.944441
2011-09-26T15:05:46.252908,12760,-2.565240,-0.030724,-0.595844,0.060394,0.067976,0.946238
2011-09-26T15:05:46.262908,12770,-2.628666,-0.092259,-0.565522,0.062708,0.066753,0.948034
2011-09-26T15:05:46.272908,12780,-2.692092,-0.153794,-0.535200,0.065022,0.065530,0.949830
2011-09-26T15:05:46.282908,12790,-2.755519,-0.215329,-0.504878,0.067336,0.064308,0.951627
2011-09-26T15:05:46.292908,12800,-2.818945,-0.276864,-0.474557,0.069650,0.063085,0.953423
2011-09-26T15:05:46.302908,12810,-2.882371,-0.338398,-0.444235,0.071964,0.061862,0.955220
2011-09-26T15:05:46.312908,12820,-2.945797,-0.399933,-0.413913,0.074278,0.060639,0.957016
2011-09-26T15:05:46.322908,12830,-3.009224,-0.461468,-0.383592,0.076592,0.059416,0.958813
2011-09-26T15:05:46.332908,12840,-3.117061,-0.489375,-0.382938,0.073350,0.055655,0.964207
2011-09-26T15:05:46.342908,12850,-3.227793,-0.515089,-0.384219,0.069746,0.051729,0.969837
2011-09-26T15:05:46.352908,12860,-3.338526,-0.540803,-0.385501,0.066142,0.047803,0.975466
2011-09-26T15:05:46.362908,12870,-3.449258,-0.566517,-0.386782,0.062538,0.043877,0.981095
2011-09-26T15:05:46.372908,12880,-3.559991,-0.592232,-0.388063,0.058934,0.039951,0.986725
2011-09-26T15:05:46.382908,12890,-3.670723,-0.617946,-0.389344,0.055330,0.036025,0.992354
2011-09-26T15:05:46.392908,12900,-3.781456,-0.643660,-0.390625,0.051726,0.032099,0.997983
2011-09-26T15:05:46.402908,12910,-3.892188,-0.669374,-0.391906,0.048122,0.028172,1.003612
2011-09-26T15:05:46.412908,12920,-4.002921,-0.695088,-0.393187,0.044518,0.024246,1.009242
2011-09-26T15:05:46.422908,12930,-4.113653,-0.720803,-0.394468,0.040914,0.020320,1.014871
2011-09-26T15:05:46.432908,12940,-4.030283,-0.758839,-0.349279,0.040638,0.020752,1.013884
2011-09-26T15:05:46.442908,12950,-3.934633,-0.797656,-0.301151,0.040573,0.021460,1.012477
2011-09-26T15:05:46.452908,12960,-3.838984,-0.836472,-0.253023,0.040508,0.022168,1.011071
2011-09-26T15:05:46.462908,12970,-3.743335,-0.875289,-0.204894,0.040443,0.022876,1.009665
2011-09-26T15:05:46.472908,12980,-3.647685,-0.914105,-0.156766,0.040377,0.023584,1.008259
2011-09-26T15:05:46.482908,12990,-3.552036,-0.952921,-0.108638,0.040312,0.024292,1.006853
2011-09-26T15:05:46.492908,13000,-3.456386,-0.991738,-0.060509,0.040247,0.025000,1.005447
2011-09-26T15:05:46.502908,13010,-3.360737,-1.030554,-0.012381,0.040182,0.025708,1.004041
2011-09-26T15:05:46.512908,13020,-3.265087,-1.069371,0.035748,0.040116,0.026415,1.002635
2011-09-26T15:05:46.522908,13030,-3.169438,-1.108187,0.083876,0.040051,0.027123,1.001229
2011-09-26T15:05:46.532908,13040,-3.073788,-1.147003,0.132004,0.039986,0.027831,0.999823
2011-09-26T15:05:46.542908,13050,-2.916428,-1.351749,0.164514,0.041962,0.026340,1.003192
2011-09-26T15:05:46.552908,13060,-2.755031,-1.567349,0.196002,0.044071,0.024704,1.006874
2011-09-26T15:05:46.562908,13070,-2.593634,-1.782949,0.227489,0.046181,0.023069,1.010556
2011-09-26T15:05:46.572908,13080,-2.432236,-1.998550,0.258977,0.048290,0.021433,1.014238
2011-09-26T15:05:46.582908,13090,-2.270839,-2.214150,0.290465,0.050399,0.019798,1.017920
2011-09-26T15:05:46.592908,13100,-2.109442,-2.429750,0.321953,0.052509,0.018162,1.021602
2011-09-26T15:05:46.602908,13110,-1.948044,-2.645351,0.353440,0.054618,0.016527,1.025284
2011-09-26T15:05:46.612908,13120,-1.786647,-2.860951,0.384928,0.056727,0.014891,1.028966
2011-09-26T15:05:46.622908,13130,-1.625250,-3.076551,0.416416,0.058837,0.013256,1.032648
2011-09-26T15:05:46.632908,13140,-1.463852,-3.292151,0.447904,0.060946,0.011620,1.036330
2011-09-26T15:05:46.642908,13150,-1.204724,-3.397880,0.447272,0.061078,0.008472,1.028594
2011-09-26T15:05:46.652908,13160,-0.938284,-3.495389,0.444238,0.061062,0.005211,1.020004
2011-09-26T15:05:46.662908,13170,-0.671844,-3.592899,0.441204,0.061046,0.001950,1.011414
2011-09-26T15:05:46.672908,13180,-0.405404,-3.690408,0.438170,0.061030,-0.001311,1.002824
2011-09-26T15:05:46.682908,13190,-0.138964,-3.787917,0.435135,0.061014,-0.004572,0.994234
2011-09-26T15:05:46.692908,13200,0.127477,-3.885426,0.432101,0.060998,-0.007833,0.985644
2011-09-26T15:05:46.702908,13210,0.393917,-3.982936,0.429067,0.060982,-0.011094,0.977054
2011-09-26T15:05:46.712908,13220,0.660357,-4.080445,0.426033,0.060966,-0.014356,0.968464
2011-09-26T15:05:46.722908,13230,0.926797,-4.177954,0.422999,0.060950,-0.017617,0.959874
2011-09-26T15:05:46.732908,13240,1.193237,-4.275463,0.419964,0.060934,-0.020878,0.951284
2011-09-26T15:05:46.742908,13250,1.142562,-4.301259,0.483474,0.061909,-0.016985,0.961666
2011-09-26T15:05:46.752908,13260,1.070058,-4.322119,0.551563,0.062952,-0.012599,0.973353
2011-09-26T15:05:46.762908,13270,0.997553,-4.342978,0.619653,0.063996,-0.008213,0.985041
2011-09-26T15:05:46.772908,13280,0.925049,-4.363838,0.687743,0.065039,-0.003828,0.996728
2011-09-26T15:05:46.782908,13290,0.852545,-4.384697,0.755833,0.066083,0.000558,1.008415
2011-09-26T15:05:46.792908,13300,0.780040,-4.405557,0.823923,0.067126,0.004944,1.020103
2011-09-26T15:05:46.802908,13310,0.707536,-4.426416,0.892013,0.068170,0.009329,1.031790
2011-09-26T15:05:46.812908,13320,0.635032,-4.447276,0.960103,0.069213,0.013715,1.043478
2011-09-26T15:05:46.822908,13330,0.562528,-4.468135,1.028193,0.070256,0.018101,1.055165
2011-09-26T15:05:46.832908,13340,0.490023,-4.488994,1.096283,0.071300,0.022487,1.066853
2011-09-26T15:05:46.842908,13350,0.417519,-4.509854,1.164373,0.072343,0.026872,1.078540
2011-09-26T15:05:46.852908,13360,0.398107,-4.207241,1.156055,0.074167,0.032439,1.084434
2011-09-26T15:05:46.862908,13370,0.382144,-3.883611,1.142773,0.076041,0.038082,1.089951
2011-09-26T15:05:46.872908,13380,0.366181,-3.559980,1.129490,0.077915,0.043726,1.095469
2011-09-26T15:05:46.882908,13390,0.350218,-3.236350,1.116208,0.079789,0.049369,1.100986
2011-09-26T15:05:46.892908,13400,0.334256,-2.912719,1.102925,0.081663,0.055013,1.106504
2011-09-26T15:05:46.902908,13410,0.318293,-2.589089,1.089643,0.083537,0.060656,1.112021
2011-09-26T15:05:46.912908,13420,0.302330,-2.265458,1.076360,0.085411,0.066299,1.117539
2011-09-26T15:05:46.922908,13430,0.286367,-1.941828,1.063078,0.087286,0.071943,1.123056
2011-09-26T15:05:46.932908,13440,0.270404,-1.618198,1.049795,0.089160,0.077586,1.128573
2011-09-26T15:05:46.942908,13450,0.254442,-1.294567,1.036513,0.091034,0.083230,1.134091
2011-09-26T15:05:46.952908,13460,0.190640,-1.106927,1.099530,0.088557,0.075801,1.124126
2011-09-26T15:05:46.962908,13470,0.123757,-0.928043,1.167460,0.085800,0.067530,1.113164
2011-09-26T15:05:46.972908,13480,0.056874,-0.749160,1.235390,0.083044,0.059259,1.102203
2011-09-26T15:05:46.982908,13490,-0.010008,-0.570276,1.303321,0.080287,0.050988,1.091241
2011-09-26T15:05:46.992908,13500,-0.076891,-0.391393,1.371251,0.077530,0.042717,1.080279
2011-09-26T15:05:47.002908,13510,-0.143773,-0.212510,1.439181,0.074774,0.034446,1.069317
2011-09-26T15:05:47.012908,13520,-0.210656,-0.033626,1.507112,0.072017,0.026175,1.058356
2011-09-26T15:05:47.022908,13530,-0.277539,0.145257,1.575042,0.069260,0.017904,1.047394
2011-09-26T15:05:47.032908,13540,-0.344421,0.324141,1.642972,0.066504,0.009633,1.036432
2011-09-26T15:05:47.042908,13550,-0.411304,0.503024,1.710903,0.063747,0.001362,1.025470
2011-09-26T15:05:47.052908,13560,-0.478186,0.681908,1.778833,0.060990,-0.006909,1.014509
2011-09-26T15:05:47.062908,13570,-0.273727,0.636646,1.826408,0.061672,-0.003557,1.007514
2011-09-26T15:05:47.072908,13580,-0.051178,0.576442,1.872627,0.062582,0.000570,1.000784
