pc_time,ts_ms,gyroX,gyroY,gyroZ,accelX,accelY,accelZ
2011-09-30T12:08:26.521831,0,-1.590827,0.488367,2.746566,-0.025049,0.234511,0.979336
2011-09-30T12:08:26.531831,10,-1.578853,0.485388,2.728094,-0.024924,0.233009,0.979460
2011-09-30T12:08:26.541831,20,-1.566879,0.482408,2.709622,-0.024798,0.231507,0.979584
2011-09-30T12:08:26.551831,30,-1.554905,0.479428,2.691151,-0.024673,0.230005,0.979709
2011-09-30T12:08:26.561831,40,-1.542931,0.476448,2.672679,-0.024547,0.228503,0.979833
2011-09-30T12:08:26.571831,50,-1.530957,0.473469,2.654207,-0.024422,0.227001,0.979957
2011-09-30T12:08:26.581831,60,-1.518984,0.470489,2.635735,-0.024296,0.225499,0.980081
2011-09-30T12:08:26.591831,70,-1.507010,0.467509,2.617263,-0.024171,0.223997,0.980205
2011-09-30T12:08:26.601831,80,-1.495036,0.464529,2.598792,-0.024045,0.222494,0.980329
2011-09-30T12:08:26.611831,90,-1.483062,0.461550,2.580320,-0.023920,0.220992,0.980453
2011-09-30T12:08:26.621831,100,-1.471088,0.458570,2.561848,-0.023794,0.219490,0.980578
2011-09-30T12:08:26.631831,110,-1.459114,0.455590,2.543376,-0.023669,0.217988,0.980702
2011-09-30T12:08:26.641831,120,-1.447140,0.452610,2.524904,-0.023543,0.216486,0.980826
2011-09-30T12:08:26.651831,130,-1.435166,0.449631,2.506432,-0.023418,0.214984,0.980950
2011-09-30T12:08:26.661831,140,-1.423192,0.446651,2.487960,-0.023292,0.213482,0.981074
2011-09-30T12:08:26.671831,150,-1.411218,0.443671,2.469489,-0.023167,0.211980,0.981198
2011-09-30T12:08:26.681831,160,-1.399244,0.440691,2.451017,-0.023041,0.210478,0.981323
2011-09-30T12:08:26.691831,170,-1.387270,0.437712,2.432545,-0.022916,0.208976,0.981447
2011-09-30T12:08:26.701831,180,-1.375296,0.434732,2.414073,-0.022790,0.207474,0.981571
2011-09-30T12:08:26.711831,190,-1.363322,0.431752,2.395601,-0.022665,0.205972,0.981695
2011-09-30T12:08:26.721831,200,-1.351348,0.428772,2.377129,-0.022540,0.204470,0.981819
2011-09-30T12:08:26.731831,210,-1.339374,0.425792,2.358657,-0.022414,0.202968,0.981943
2011-09-30T12:08:26.741831,220,-1.327400,0.422813,2.340185,-0.022289,0.201466,0.982067
2011-09-30T12:08:26.751831,230,-1.315426,0.419833,2.321713,-0.022163,0.199963,0.982192
2011-09-30T12:08:26.761831,240,-1.303452,0.416853,2.303241,-0.022038,0.198461,0.982316
2011-09-30T12:08:26.771831,250,-1.291478,0.413873,2.284769,-0.021912,0.196959,0.982440
2011-09-30T12:08:26.781831,260,-1.279504,0.410894,2.266297,-0.021787,0.195457,0.982564
2011-09-30T12:08:26.791831,270,-1.267530,0.407914,2.247825,-0.021661,0.193955,0.982688
2011-09-30T12:08:26.801831,280,-1.255556,0.404934,2.229353,-0.021536,0.192453,0.982812
2011-09-30T12:08:26.811831,290,-1.243582,0.401954,2.210881,-0.021410,0.190951,0.982937
2011-09-30T12:08:26.821831,300,-1.231608,0.398974,2.192409,-0.021285,0.189449,0.983061
2011-09-30T12:08:26.831831,310,-1.219634,0.395995,2.173937,-0.021159,0.187947,0.983185
2011-09-30T12:08:26.841831,320,-1.207660,0.393015,2.155465,-0.021034,0.186445,0.983309
2011-09-30T12:08:26.851831,330,-1.195686,0.390035,2.136993,-0.020908,0.184943,0.983433
2011-09-30T12:08:26.861831,340,-1.183712,0.387055,2.118521,-0.020783,0.183441,0.983557
2011-09-30T12:08:26.871831,350,-1.171738,0.384076,2.100049,-0.020657,0.181939,0.983681
2011-09-30T12:08:26.881831,360,-1.159764,0.381096,2.081577,-0.020532,0.180437,0.983806
2011-09-30T12:08:26.891831,370,-1.147790,0.378116,2.063105,-0.020406,0.178934,0.983930
2011-09-30T12:08:26.901831,380,-1.135816,0.375136,2.044633,-0.020281,0.177432,0.984054
2011-09-30T12:08:26.911831,390,-1.123842,0.372157,2.026161,-0.020155,0.175930,0.984178
2011-09-30T12:08:26.921831,400,-1.111868,0.369177,2.007689,-0.020030,0.174428,0.984302
2011-09-30T12:08:26.931831,410,-1.099894,0.366197,1.989217,-0.019904,0.172926,0.984426
2011-09-30T12:08:26.941831,420,-1.087920,0.363217,1.970745,-0.019779,0.171424,0.984551
2011-09-30T12:08:26.951831,430,-1.075946,0.360237,1.952274,-0.019653,0.169922,0.984675
2011-09-30T12:08:26.961831,440,-1.063972,0.357258,1.933802,-0.019528,0.168420,0.984799
2011-09-30T12:08:26.971831,450,-1.051998,0.354278,1.915330,-0.019402,0.166918,0.984923
2011-09-30T12:08:26.981831,460,-1.040024,0.351298,1.896858,-0.019277,0.165416,0.985047
2011-09-30T12:08:26.991831,470,-1.028050,0.348318,1.878386,-0.019151,0.163914,0.985171
2011-09-30T12:08:27.001831,480,-1.016076,0.345339,1.859914,-0.019026,0.162412,0.985295
2011-09-30T12:08:27.011831,490,-1.004102,0.342359,1.841442,-0.018900,0.160910,0.985420
2011-09-30T12:08:27.021831,500,-0.992128,0.339379,1.822970,-0.018775,0.159408,0.985544
2011-09-30T12:08:27.031831,510,-0.980154,0.336399,1.804498,-0.018649,0.157905,0.985668
2011-09-30T12:08:27.041831,520,-0.968180,0.333419,1.786026,-0.018524,0.156403,0.985792
2011-09-30T12:08:27.051831,530,-0.956206,0.330440,1.767554,-0.018398,0.154901,0.985916
2011-09-30T12:08:27.061831,540,-0.944232,0.327460,1.749082,-0.018273,0.153399,0.986040
2011-09-30T12:08:27.071831,550,-0.932258,0.324480,1.730610,-0.018147,0.151897,0.986165
2011-09-30T12:08:27.081831,560,-0.920284,0.321500,1.712138,-0.018022,0.150395,0.986289
2011-09-30T12:08:27.091831,570,-0.908310,0.318521,1.693666,-0.017896,0.148893,0.986413
2011-09-30T12:08:27.101831,580,-0.896336,0.315541,1.675194,-0.017771,0.147391,0.986537
2011-09-30T12:08:27.111831,590,-0.884362,0.312561,1.656722,-0.017645,0.145889,0.986661
2011-09-30T12:08:27.121831,600,-0.872388,0.309581,1.638251,-0.017520,0.144387,0.986785
2011-09-30T12:08:27.131831,610,-0.860414,0.306602,1.619779,-0.017394,0.142885,0.986909
2011-09-30T12:08:27.141831,620,-0.848440,0.303622,1.601307,-0.017269,0.141383,0.987034
2011-09-30T12:08:27.151831,630,-0.836467,0.300642,1.582835,-0.017143,0.139881,0.987158
2011-09-30T12:08:27.161831,640,-0.824493,0.297662,1.564364,-0.017018,0.138379,0.987282
2011-09-30T12:08:27.171831,650,-0.812519,0.294683,1.545892,-0.016892,0.136877,0.987406
2011-09-30T12:08:27.181831,660,-0.800545,0.291703,1.527420,-0.016767,0.135375,0.987530
2011-09-30T12:08:27.191831,670,-0.788571,0.288723,1.508948,-0.016642,0.133872,0.987654
2011-09-30T12:08:27.201831,680,-0.776597,0.285743,1.490476,-0.016516,0.132370,0.987779
2011-09-30T12:08:27.211831,690,-0.764623,0.282764,1.472005,-0.016391,0.130868,0.987903
2011-09-30T12:08:27.221831,700,-0.752649,0.279784,1.453533,-0.016265,0.129366,0.988027
2011-09-30T12:08:27.231831,710,-0.740675,0.276804,1.435061,-0.016140,0.127864,0.988151
2011-09-30T12:08:27.241831,720,-0.728701,0.273824,1.416589,-0.016014,0.126362,0.988275
2011-09-30T12:08:27.251831,730,-0.716727,0.270845,1.398117,-0.015889,0.124860,0.988399
2011-09-30T12:08:27.261831,740,-0.704753,0.267865,1.379645,-0.015763,0.123358,0.988523
2011-09-30T12:08:27.271831,750,-0.692779,0.264885,1.361173,-0.015638,0.121856,0.988648
2011-09-30T12:08:27.281831,760,-0.680805,0.261905,1.342701,-0.015512,0.120354,0.988772
2011-09-30T12:08:27.291831,770,-0.668831,0.258925,1.324229,-0.015387,0.118852,0.988896
2011-09-30T12:08:27.301831,780,-0.656857,0.255946,1.305757,-0.015261,0.117350,0.989020
2011-09-30T12:08:27.311831,790,-0.644883,0.252966,1.287285,-0.015136,0.115848,0.989144
2011-09-30T12:08:27.321831,800,-0.632909,0.249986,1.268813,-0.015010,0.114346,0.989268
2011-09-30T12:08:27.331831,810,-0.620935,0.247006,1.250341,-0.014885,0.112843,0.989393
2011-09-30T12:08:27.341831,820,-0.608961,0.244027,1.231869,-0.014759,0.111341,0.989517
2011-09-30T12:08:27.351831,830,-0.596987,0.241047,1.213397,-0.014634,0.109839,0.989641
2011-09-30T12:08:27.361831,840,-0.585013,0.238067,1.194925,-0.014508,0.108337,0.989765
2011-09-30T12:08:27.371831,850,-0.573039,0.235087,1.176453,-0.014383,0.106835,0.989889
2011-09-30T12:08:27.381831,860,-0.561065,0.232107,1.157981,-0.014257,0.105333,0.990013
2011-09-30T12:08:27.391831,870,-0.549091,0.229128,1.139509,-0.014132,0.103831,0.990137
2011-09-30T12:08:27.401831,880,-0.537117,0.226148,1.121037,-0.014006,0.102329,0.990262
2011-09-30T12:08:27.411831,890,-0.525143,0.223168,1.102565,-0.013881,0.100827,0.990386
2011-09-30T12:08:27.421831,900,-0.513169,0.220188,1.084093,-0.013755,0.099325,0.990510
2011-09-30T12:08:27.431831,910,-0.501195,0.217209,1.065621,-0.013630,0.097823,0.990634
2011-09-30T12:08:27.441831,920,-0.489221,0.214229,1.047149,-0.013504,0.096321,0.990758
2011-09-30T12:08:27.451831,930,-0.477247,0.211249,1.028678,-0.013379,0.094819,0.990882
2011-09-30T12:08:27.461831,940,-0.465273,0.208269,1.010206,-0.013253,0.093317,0.991007
2011-09-30T12:08:27.471831,950,-0.453299,0.205290,0.991734,-0.013128,0.091814,0.991131
2011-09-30T12:08:27.481831,960,-0.441325,0.202310,0.973262,-0.013002,0.090312,0.991255
2011-09-30T12:08:27.491831,970,-0.429351,0.199330,0.954790,-0.012877,0.088810,0.991379
2011-09-30T12:08:27.501831,980,-0.417377,0.196350,0.936318,-0.012751,0.087308,0.991503
2011-09-30T12:08:27.511831,990,-0.405403,0.193370,0.917846,-0.012626,0.085806,0.991627
2011-09-30T12:08:27.521831,1000,-0.393429,0.190391,0.899374,-0.012500,0.084304,0.991751
2011-09-30T12:08:27.531831,1010,-0.381455,0.187411,0.880902,-0.012375,0.082802,0.991876
2011-09-30T12:08:27.541831,1020,-0.369481,0.184431,0.862430,-0.012249,0.081300,0.992000
2011-09-30T12:08:27.551831,1030,-0.357507,0.181451,0.843958,-0.012124,0.079798,0.992124
2011-09-30T12:08:27.561831,1040,-0.345533,0.178472,0.825486,-0.011998,0.078296,0.992248
2011-09-30T12:08:27.571831,1050,-0.333559,0.175492,0.807014,-0.011873,0.076794,0.992372
2011-09-30T12:08:27.581831,1060,-0.321585,0.172512,0.788542,-0.011747,0.075292,0.992496
2011-09-30T12:08:27.591831,1070,-0.309611,0.169532,0.770070,-0.011622,0.073790,0.992621
2011-09-30T12:08:27.601831,1080,-0.297637,0.166552,0.751598,-0.011496,0.072288,0.992745
2011-09-30T12:08:27.611831,1090,-0.285663,0.163573,0.733126,-0.011371,0.070785,0.992869
2011-09-30T12:08:27.621831,1100,-0.273689,0.160593,0.714654,-0.011245,0.069283,0.992993
2011-09-30T12:08:27.631831,1110,-0.261715,0.157613,0.696182,-0.011120,0.067781,0.993117
2011-09-30T12:08:27.641831,1120,-0.249741,0.154633,0.677710,-0.010995,0.066279,0.993241
2011-09-30T12:08:27.651831,1130,-0.237767,0.151654,0.659238,-0.010869,0.064777,0.993365
2011-09-30T12:08:27.661831,1140,-0.225793,0.148674,0.640766,-0.010744,0.063275,0.993490
2011-09-30T12:08:27.671831,1150,-0.281425,0.135629,0.627374,-0.010156,0.062392,0.994613
2011-09-30T12:08:27.681831,1160,-0.344153,0.121528,0.614516,-0.009520,0.061573,0.995842
2011-09-30T12:08:27.691831,1170,-0.406881,0.107426,0.601657,-0.008884,0.060754,0.997070
2011-09-30T12:08:27.701831,1180,-0.469610,0.093325,0.588798,-0.008248,0.059936,0.998299
2011-09-30T12:08:27.711831,1190,-0.532338,0.079223,0.575940,-0.007612,0.059117,0.999527
2011-09-30T12:08:27.721831,1200,-0.595066,0.065122,0.563081,-0.006976,0.058298,1.000756
2011-09-30T12:08:27.731831,1210,-0.657795,0.051021,0.550222,-0.006340,0.057480,1.001984
2011-09-30T12:08:27.741831,1220,-0.720523,0.036919,0.537364,-0.005704,0.056661,1.003213
2011-09-30T12:08:27.751831,1230,-0.783251,0.022818,0.524505,-0.005068,0.055842,1.004441
2011-09-30T12:08:27.761831,1240,-0.717559,0.027836,0.501997,-0.005309,0.053849,1.003771
2011-09-30T12:08:27.771831,1250,-0.638467,0.034848,0.478482,-0.005643,0.051733,1.002903
2011-09-30T12:08:27.781831,1260,-0.559375,0.041861,0.454967,-0.005976,0.049617,1.002035
2011-09-30T12:08:27.791831,1270,-0.480284,0.048874,0.431451,-0.006309,0.047501,1.001167
2011-09-30T12:08:27.801831,1280,-0.401192,0.055887,0.407936,-0.006642,0.045384,1.000299
2011-09-30T12:08:27.811831,1290,-0.322100,0.062899,0.384421,-0.006975,0.043268,0.999431
2011-09-30T12:08:27.821831,1300,-0.243008,0.069912,0.360906,-0.007309,0.041152,0.998563
2011-09-30T12:08:27.831831,1310,-0.163916,0.076925,0.337391,-0.007642,0.039036,0.997695
2011-09-30T12:08:27.841831,1320,-0.084824,0.083937,0.313876,-0.007975,0.036920,0.996827
2011-09-30T12:08:27.851831,1330,-0.005732,0.090950,0.290361,-0.008308,0.034804,0.995959
2011-09-30T12:08:27.861831,1340,0.016593,0.103476,0.285623,-0.007961,0.035611,0.996202
2011-09-30T12:08:27.871831,1350,0.031836,0.116691,0.283229,-0.007529,0.036782,0.996583
2011-09-30T12:08:27.881831,1360,0.047080,0.129905,0.280834,-0.007098,0.037954,0.996965
2011-09-30T12:08:27.891831,1370,0.062324,0.143119,0.278439,-0.006666,0.039126,0.997347
2011-09-30T12:08:27.901831,1380,0.077567,0.156333,0.276044,-0.006234,0.040297,0.997728
2011-09-30T12:08:27.911831,1390,0.092811,0.169547,0.273649,-0.005802,0.041469,0.998110
2011-09-30T12:08:27.921831,1400,0.108055,0.182761,0.271255,-0.005370,0.042640,0.998492
2011-09-30T12:08:27.931831,1410,0.123298,0.195975,0.268860,-0.004938,0.043812,0.998873
2011-09-30T12:08:27.941831,1420,0.138542,0.209189,0.266465,-0.004506,0.044983,0.999255
2011-09-30T12:08:27.951831,1430,0.153785,0.222403,0.264070,-0.004075,0.046155,0.999637
2011-09-30T12:08:27.961831,1440,0.169029,0.235617,0.261675,-0.003643,0.047326,1.000018
2011-09-30T12:08:27.971831,1450,0.174740,0.233085,0.257265,-0.004327,0.046875,0.999906
2011-09-30T12:08:27.981831,1460,0.179229,0.228536,0.252597,-0.005154,0.046216,0.999731
2011-09-30T12:08:27.991831,1470,0.183718,0.223986,0.247929,-0.005981,0.045556,0.999556
2011-09-30T12:08:28.001831,1480,0.188207,0.219437,0.243260,-0.006808,0.044897,0.999381
2011-09-30T12:08:28.011831,1490,0.192696,0.214888,0.238592,-0.007635,0.044238,0.999206
2011-09-30T12:08:28.021831,1500,0.197185,0.210338,0.233924,-0.008463,0.043578,0.999031
2011-09-30T12:08:28.031831,1510,0.201674,0.205789,0.229255,-0.009290,0.042919,0.998856
2011-09-30T12:08:28.041831,1520,0.206163,0.201239,0.224587,-0.010117,0.042260,0.998681
2011-09-30T12:08:28.051831,1530,0.210652,0.196690,0.219918,-0.010944,0.041601,0.998506
2011-09-30T12:08:28.061831,1540,0.215141,0.192141,0.215250,-0.011771,0.040941,0.998331
2011-09-30T12:08:28.071831,1550,0.181936,0.139807,0.228620,-0.011347,0.041559,0.997203
2011-09-30T12:08:28.081831,1560,0.144649,0.082299,0.243943,-0.010786,0.042316,0.995971
2011-09-30T12:08:28.091831,1570,0.107362,0.024792,0.259266,-0.010226,0.043072,0.994739
2011-09-30T12:08:28.101831,1580,0.070076,-0.032716,0.274589,-0.009666,0.043829,0.993507
2011-09-30T12:08:28.111831,1590,0.032789,-0.090224,0.289912,-0.009106,0.044585,0.992275
2011-09-30T12:08:28.121831,1600,-0.004498,-0.147731,0.305235,-0.008546,0.045342,0.991043
2011-09-30T12:08:28.131831,1610,-0.041784,-0.205239,0.320558,-0.007985,0.046098,0.989811
2011-09-30T12:08:28.141831,1620,-0.079071,-0.262747,0.335881,-0.007425,0.046855,0.988580
2011-09-30T12:08:28.151831,1630,-0.116358,-0.320255,0.351204,-0.006865,0.047611,0.987348
2011-09-30T12:08:28.161831,1640,-0.153644,-0.377762,0.366527,-0.006305,0.048368,0.986116
2011-09-30T12:08:28.171831,1650,-0.190931,-0.435270,0.381850,-0.005745,0.049124,0.984884
2011-09-30T12:08:28.181831,1660,-0.165461,-0.444830,0.373433,-0.005426,0.048564,0.987657
2011-09-30T12:08:28.191831,1670,-0.133513,-0.449440,0.362565,-0.005133,0.047868,0.990843
2011-09-30T12:08:28.201831,1680,-0.101565,-0.454050,0.351697,-0.004839,0.047172,0.994029
2011-09-30T12:08:28.211831,1690,-0.069616,-0.458660,0.340829,-0.004546,0.046476,0.997214
2011-09-30T12:08:28.221831,1700,-0.037668,-0.463270,0.329961,-0.004252,0.045780,1.000400
2011-09-30T12:08:28.231831,1710,-0.005719,-0.467880,0.319093,-0.003959,0.045084,1.003586
2011-09-30T12:08:28.241831,1720,0.026229,-0.472490,0.308226,-0.003665,0.044388,1.006772
2011-09-30T12:08:28.251831,1730,0.058177,-0.477100,0.297358,-0.003372,0.043692,1.009958
2011-09-30T12:08:28.261831,1740,0.090126,-0.481710,0.286490,-0.003078,0.042996,1.013144
2011-09-30T12:08:28.271831,1750,0.122074,-0.486320,0.275622,-0.002784,0.042300,1.016330
2011-09-30T12:08:28.281831,1760,0.076822,-0.419416,0.286964,-0.002726,0.043148,1.016075
2011-09-30T12:08:28.291831,1770,0.023597,-0.345127,0.300599,-0.002692,0.044155,1.015464
2011-09-30T12:08:28.301831,1780,-0.029627,-0.270838,0.314235,-0.002658,0.045163,1.014854
2011-09-30T12:08:28.311831,1790,-0.082852,-0.196549,0.327870,-0.002623,0.046170,1.014243
2011-09-30T12:08:28.321831,1800,-0.136077,-0.122260,0.341506,-0.002589,0.047178,1.013633
2011-09-30T12:08:28.331831,1810,-0.189302,-0.047971,0.355141,-0.002555,0.048185,1.013022
2011-09-30T12:08:28.341831,1820,-0.242526,0.026318,0.368777,-0.002521,0.049193,1.012411
2011-09-30T12:08:28.351831,1830,-0.295751,0.100607,0.382412,-0.002487,0.050200,1.011801
2011-09-30T12:08:28.361831,1840,-0.348976,0.174896,0.396048,-0.002452,0.051208,1.011190
2011-09-30T12:08:28.371831,1850,-0.402200,0.249185,0.409683,-0.002418,0.052215,1.010579
2011-09-30T12:08:28.381831,1860,-0.378706,0.240188,0.408822,-0.003115,0.051676,1.009004
2011-09-30T12:08:28.391831,1870,-0.347188,0.222481,0.406444,-0.003889,0.050974,1.007328
2011-09-30T12:08:28.401831,1880,-0.315671,0.204774,0.404067,-0.004662,0.050273,1.005653
2011-09-30T12:08:28.411831,1890,-0.284153,0.187067,0.401689,-0.005436,0.049572,1.003977
2011-09-30T12:08:28.421831,1900,-0.252636,0.169361,0.399311,-0.006209,0.048870,1.002301
2011-09-30T12:08:28.431831,1910,-0.221118,0.151654,0.396934,-0.006983,0.048169,1.000625
2011-09-30T12:08:28.441831,1920,-0.189601,0.133947,0.394556,-0.007756,0.047468,0.998949
2011-09-30T12:08:28.451831,1930,-0.158083,0.116240,0.392178,-0.008529,0.046767,0.997273
2011-09-30T12:08:28.461831,1940,-0.126566,0.098533,0.389801,-0.009303,0.046065,0.995597
2011-09-30T12:08:28.471831,1950,-0.095048,0.080826,0.387423,-0.010076,0.045364,0.993921
2011-09-30T12:08:28.481831,1960,-0.063531,0.063119,0.385045,-0.010850,0.044663,0.992245
2011-09-30T12:08:28.491831,1970,-0.057337,0.033713,0.391789,-0.009970,0.044797,0.992416
2011-09-30T12:08:28.501831,1980,-0.054127,0.002928,0.399607,-0.008896,0.045030,0.992805
2011-09-30T12:08:28.511831,1990,-0.050916,-0.027856,0.407425,-0.007821,0.045262,0.993193
2011-09-30T12:08:28.521831,2000,-0.047705,-0.058641,0.415243,-0.006746,0.045495,0.993581
2011-09-30T12:08:28.531831,2010,-0.044494,-0.089426,0.423061,-0.005672,0.045728,0.993970
2011-09-30T12:08:28.541831,2020,-0.041284,-0.120210,0.430879,-0.004597,0.045961,0.994358
2011-09-30T12:08:28.551831,2030,-0.038073,-0.150995,0.438696,-0.003523,0.046193,0.994746
2011-09-30T12:08:28.561831,2040,-0.034862,-0.181780,0.446514,-0.002448,0.046426,0.995135
2011-09-30T12:08:28.571831,2050,-0.031651,-0.212564,0.454332,-0.001374,0.046659,0.995523
2011-09-30T12:08:28.581831,2060,-0.028441,-0.243349,0.462150,-0.000299,0.046892,0.995912
2011-09-30T12:08:28.591831,2070,-0.035990,-0.199898,0.460508,-0.000152,0.046903,0.997365
2011-09-30T12:08:28.601831,2080,-0.044780,-0.147887,0.457774,-0.000112,0.046889,0.998940
2011-09-30T12:08:28.611831,2090,-0.053569,-0.095875,0.455041,-0.000072,0.046875,1.000516
2011-09-30T12:08:28.621831,2100,-0.062359,-0.043864,0.452308,-0.000032,0.046861,1.002092
2011-09-30T12:08:28.631831,2110,-0.071149,0.008148,0.449574,0.000008,0.046847,1.003668
2011-09-30T12:08:28.641831,2120,-0.079939,0.060159,0.446841,0.000048,0.046833,1.005243
2011-09-30T12:08:28.651831,2130,-0.088729,0.112171,0.444108,0.000088,0.046818,1.006819
2011-09-30T12:08:28.661831,2140,-0.097518,0.164182,0.441374,0.000129,0.046804,1.008395
2011-09-30T12:08:28.671831,2150,-0.106308,0.216194,0.438641,0.000169,0.046790,1.009971
2011-09-30T12:08:28.681831,2160,-0.115098,0.268205,0.435907,0.000209,0.046776,1.011546
2011-09-30T12:08:28.691831,2170,-0.123888,0.320217,0.433174,0.000249,0.046762,1.013122
2011-09-30T12:08:28.701831,2180,-0.072622,0.392569,0.428902,-0.000550,0.045519,1.011446
2011-09-30T12:08:28.711831,2190,-0.015120,0.467034,0.424471,-0.001436,0.044149,1.009432
2011-09-30T12:08:28.721831,2200,0.042383,0.541499,0.420039,-0.002323,0.042778,1.007417
2011-09-30T12:08:28.731831,2210,0.099886,0.615964,0.415608,-0.003209,0.041408,1.005403
2011-09-30T12:08:28.741831,2220,0.157389,0.690429,0.411177,-0.004095,0.040037,1.003389
2011-09-30T12:08:28.751831,2230,0.214892,0.764894,0.406745,-0.004981,0.038667,1.001375
2011-09-30T12:08:28.761831,2240,0.272395,0.839359,0.402314,-0.005867,0.037296,0.999361
2011-09-30T12:08:28.771831,2250,0.329898,0.913824,0.397882,-0.006754,0.035925,0.997347
2011-09-30T12:08:28.781831,2260,0.387401,0.988289,0.393451,-0.007640,0.034555,0.995333
2011-09-30T12:08:28.791831,2270,0.444903,1.062754,0.389019,-0.008526,0.033184,0.993319
2011-09-30T12:08:28.801831,2280,0.427183,0.998195,0.394455,-0.009300,0.034668,0.991052
2011-09-30T12:08:28.811831,2290,0.401732,0.919350,0.400905,-0.010062,0.036444,0.988759
2011-09-30T12:08:28.821831,2300,0.376281,0.840504,0.407355,-0.010825,0.038221,0.986467
2011-09-30T12:08:28.831831,2310,0.350831,0.761658,0.413805,-0.011587,0.039997,0.984174
2011-09-30T12:08:28.841831,2320,0.325380,0.682812,0.420255,-0.012350,0.041774,0.981882
2011-09-30T12:08:28.851831,2330,0.299929,0.603966,0.426705,-0.013112,0.043550,0.979589
2011-09-30T12:08:28.861831,2340,0.274478,0.525121,0.433155,-0.013874,0.045327,0.977296
2011-09-30T12:08:28.871831,2350,0.249028,0.446275,0.439605,-0.014637,0.047104,0.975004
2011-09-30T12:08:28.881831,2360,0.223577,0.367429,0.446054,-0.015399,0.048880,0.972711
2011-09-30T12:08:28.891831,2370,0.198126,0.288583,0.452504,-0.016161,0.050657,0.970419
2011-09-30T12:08:28.901831,2380,0.207919,0.200876,0.451810,-0.015449,0.050054,0.972717
2011-09-30T12:08:28.911831,2390,0.221325,0.112260,0.450382,-0.014586,0.049207,0.975485
2011-09-30T12:08:28.921831,2400,0.234732,0.023644,0.448955,-0.013723,0.048361,0.978254
2011-09-30T12:08:28.931831,2410,0.248138,-0.064972,0.447528,-0.012860,0.047514,0.981023
2011-09-30T12:08:28.941831,2420,0.261545,-0.153587,0.446100,-0.011996,0.046667,0.983792
2011-09-30T12:08:28.951831,2430,0.274951,-0.242203,0.444673,-0.011133,0.045821,0.986560
2011-09-30T12:08:28.961831,2440,0.288358,-0.330819,0.443246,-0.010270,0.044974,0.989329
2011-09-30T12:08:28.971831,2450,0.301764,-0.419435,0.441818,-0.009407,0.044127,0.992098
2011-09-30T12:08:28.981831,2460,0.315171,-0.508051,0.440391,-0.008544,0.043280,0.994867
2011-09-30T12:08:28.991831,2470,0.328577,-0.596666,0.438963,-0.007680,0.042434,0.997635
2011-09-30T12:08:29.001831,2480,0.341984,-0.685282,0.437536,-0.006817,0.041587,1.000404
2011-09-30T12:08:29.011831,2490,0.333120,-0.685556,0.443298,-0.006492,0.042364,1.001962
2011-09-30T12:08:29.021831,2500,0.321262,-0.673954,0.450025,-0.006239,0.043358,1.003357
2011-09-30T12:08:29.031831,2510,0.309404,-0.662351,0.456753,-0.005986,0.044353,1.004752
2011-09-30T12:08:29.041831,2520,0.297546,-0.650749,0.463481,-0.005733,0.045348,1.006147
2011-09-30T12:08:29.051831,2530,0.285688,-0.639146,0.470209,-0.005480,0.046342,1.007542
2011-09-30T12:08:29.061831,2540,0.273830,-0.627544,0.476937,-0.005227,0.047337,1.008937
2011-09-30T12:08:29.071831,2550,0.261972,-0.615941,0.483664,-0.004973,0.048332,1.010332
2011-09-30T12:08:29.081831,2560,0.250115,-0.604339,0.490392,-0.004720,0.049327,1.011727
2011-09-30T12:08:29.091831,2570,0.238257,-0.592736,0.497120,-0.004467,0.050321,1.013122
2011-09-30T12:08:29.101831,2580,0.226399,-0.581134,0.503848,-0.004214,0.051316,1.014517
2011-09-30T12:08:29.111831,2590,0.192439,-0.535555,0.495423,-0.003956,0.051426,1.014109
2011-09-30T12:08:29.121831,2600,0.156214,-0.486493,0.485445,-0.003697,0.051445,1.013516
2011-09-30T12:08:29.131831,2610,0.119988,-0.437430,0.475467,-0.003439,0.051464,1.012923
2011-09-30T12:08:29.141831,2620,0.083763,-0.388368,0.465489,-0.003180,0.051482,1.012330
2011-09-30T12:08:29.151831,2630,0.047537,-0.339305,0.455511,-0.002921,0.051501,1.011737
2011-09-30T12:08:29.161831,2640,0.011312,-0.290243,0.445533,-0.002663,0.051520,1.011144
2011-09-30T12:08:29.171831,2650,-0.024914,-0.241180,0.435555,-0.002404,0.051539,1.010551
2011-09-30T12:08:29.181831,2660,-0.061139,-0.192118,0.425577,-0.002145,0.051558,1.009958
2011-09-30T12:08:29.191831,2670,-0.097365,-0.143055,0.415599,-0.001887,0.051577,1.009365
2011-09-30T12:08:29.201831,2680,-0.133591,-0.093993,0.405621,-0.001628,0.051596,1.008772
2011-09-30T12:08:29.211831,2690,-0.169816,-0.044930,0.395643,-0.001369,0.051615,1.008179
2011-09-30T12:08:29.221831,2700,-0.139344,-0.010367,0.391772,-0.001630,0.051153,1.008281
2011-09-30T12:08:29.231831,2710,-0.102009,0.022705,0.388529,-0.001945,0.050643,1.008454
2011-09-30T12:08:29.241831,2720,-0.064675,0.055777,0.385287,-0.002259,0.050132,1.008627
2011-09-30T12:08:29.251831,2730,-0.027340,0.088849,0.382044,-0.002574,0.049621,1.008800
2011-09-30T12:08:29.261831,2740,0.009994,0.121921,0.378801,-0.002888,0.049110,1.008973
2011-09-30T12:08:29.271831,2750,0.047328,0.154993,0.375559,-0.003203,0.048599,1.009146
2011-09-30T12:08:29.281831,2760,0.084663,0.188065,0.372316,-0.003517,0.048089,1.009319
2011-09-30T12:08:29.291831,2770,0.121997,0.221137,0.369073,-0.003832,0.047578,1.009492
2011-09-30T12:08:29.301831,2780,0.159332,0.254209,0.365830,-0.004146,0.047067,1.009665
2011-09-30T12:08:29.311831,2790,0.196666,0.287281,0.362588,-0.004461,0.046556,1.009839
2011-09-30T12:08:29.321831,2800,0.199420,0.270655,0.362403,-0.004578,0.046095,1.008571
2011-09-30T12:08:29.331831,2810,0.198653,0.248970,0.362530,-0.004675,0.045639,1.007156
2011-09-30T12:08:29.341831,2820,0.197885,0.227284,0.362657,-0.004772,0.045183,1.005741
2011-09-30T12:08:29.351831,2830,0.197118,0.205598,0.362784,-0.004869,0.044727,1.004327
2011-09-30T12:08:29.361831,2840,0.196351,0.183913,0.362911,-0.004966,0.044271,1.002912
2011-09-30T12:08:29.371831,2850,0.195583,0.162227,0.363038,-0.005064,0.043815,1.001498
2011-09-30T12:08:29.381831,2860,0.194816,0.140541,0.363165,-0.005161,0.043359,1.000083
2011-09-30T12:08:29.391831,2870,0.194049,0.118856,0.363292,-0.005258,0.042903,0.998668
2011-09-30T12:08:29.401831,2880,0.193282,0.097170,0.363419,-0.005355,0.042447,0.997254
2011-09-30T12:08:29.411831,2890,0.192514,0.075484,0.363546,-0.005452,0.041991,0.995839
2011-09-30T12:08:29.421831,2900,0.193599,0.076105,0.354323,-0.005443,0.042714,0.995042
2011-09-30T12:08:29.431831,2910,0.194877,0.079051,0.344125,-0.005422,0.043560,0.994309
2011-09-30T12:08:29.441831,2920,0.196155,0.081997,0.333927,-0.005402,0.044405,0.993577
2011-09-30T12:08:29.451831,2930,0.197432,0.084944,0.323729,-0.005381,0.045251,0.992844
2011-09-30T12:08:29.461831,2940,0.198710,0.087890,0.313531,-0.005361,0.046097,0.992111
2011-09-30T12:08:29.471831,2950,0.199988,0.090836,0.303333,-0.005340,0.046943,0.991379
2011-09-30T12:08:29.481831,2960,0.201265,0.093782,0.293135,-0.005320,0.047789,0.990646
2011-09-30T12:08:29.491831,2970,0.202543,0.096728,0.282937,-0.005299,0.048635,0.989913
2011-09-30T12:08:29.501831,2980,0.203821,0.099674,0.272740,-0.005279,0.049481,0.989181
2011-09-30T12:08:29.511831,2990,0.205099,0.102620,0.262542,-0.005258,0.050327,0.988448
2011-09-30T12:08:29.521831,3000,0.206376,0.105567,0.252344,-0.005238,0.051172,0.987715
2011-09-30T12:08:29.531831,3010,0.201539,0.108170,0.250452,-0.005333,0.050446,0.988845
2011-09-30T12:08:29.541831,3020,0.196047,0.110738,0.249450,-0.005441,0.049551,0.990173
2011-09-30T12:08:29.551831,3030,0.190555,0.113305,0.248448,-0.005549,0.048655,0.991502
2011-09-30T12:08:29.561831,3040,0.185064,0.115872,0.247446,-0.005657,0.047760,0.992830
2011-09-30T12:08:29.571831,3050,0.179572,0.118440,0.246444,-0.005765,0.046865,0.994159
2011-09-30T12:08:29.581831,3060,0.174080,0.121007,0.245442,-0.005873,0.045970,0.995487
2011-09-30T12:08:29.591831,3070,0.168588,0.123574,0.244441,-0.005982,0.045075,0.996816
2011-09-30T12:08:29.601831,3080,0.163096,0.126142,0.243439,-0.006090,0.044180,0.998144
2011-09-30T12:08:29.611831,3090,0.157604,0.128709,0.242437,-0.006198,0.043284,0.999472
2011-09-30T12:08:29.621831,3100,0.152113,0.131276,0.241435,-0.006306,0.042389,1.000801
2011-09-30T12:08:29.631831,3110,0.160100,0.148710,0.231379,-0.006198,0.042331,1.000000
2011-09-30T12:08:29.641831,3120,0.169462,0.167659,0.220401,-0.006069,0.042359,0.998982
2011-09-30T12:08:29.651831,3130,0.178823,0.186608,0.209422,-0.005940,0.042387,0.997963
2011-09-30T12:08:29.661831,3140,0.188184,0.205557,0.198444,-0.005811,0.042414,0.996945
2011-09-30T12:08:29.671831,3150,0.197546,0.224506,0.187466,-0.005682,0.042442,0.995927
2011-09-30T12:08:29.681831,3160,0.206907,0.243455,0.176488,-0.005553,0.042469,0.994909
2011-09-30T12:08:29.691831,3170,0.216269,0.262404,0.165509,-0.005424,0.042497,0.993890
2011-09-30T12:08:29.701831,3180,0.225630,0.281353,0.154531,-0.005295,0.042524,0.992872
2011-09-30T12:08:29.711831,3190,0.234992,0.300302,0.143553,-0.005165,0.042552,0.991854
2011-09-30T12:08:29.721831,3200,0.244353,0.319251,0.132574,-0.005036,0.042580,0.990836
2011-09-30T12:08:29.731831,3210,0.253715,0.338200,0.121596,-0.004907,0.042607,0.989817
2011-09-30T12:08:29.741831,3220,0.231847,0.369647,0.107888,-0.005165,0.043110,0.990853
2011-09-30T12:08:29.751831,3230,0.206751,0.402385,0.093897,-0.005463,0.043662,0.992100
2011-09-30T12:08:29.761831,3240,0.181655,0.435123,0.079906,-0.005761,0.044215,0.993348
2011-09-30T12:08:29.771831,3250,0.156559,0.467862,0.065915,-0.006059,0.044767,0.994596
2011-09-30T12:08:29.781831,3260,0.131463,0.500600,0.051925,-0.006356,0.045319,0.995843
2011-09-30T12:08:29.791831,3270,0.106367,0.533338,0.037934,-0.006654,0.045872,0.997091
2011-09-30T12:08:29.801831,3280,0.081271,0.566076,0.023943,-0.006952,0.046424,0.998339
2011-09-30T12:08:29.811831,3290,0.056176,0.598815,0.009952,-0.007250,0.046976,0.999586
2011-09-30T12:08:29.821831,3300,0.031080,0.631553,-0.004038,-0.007548,0.047528,1.000834
2011-09-30T12:08:29.831831,3310,0.005984,0.664291,-0.018029,-0.007846,0.048081,1.002081
2011-09-30T12:08:29.841831,3320,-0.011341,0.654162,-0.021750,-0.008356,0.047904,1.001003
2011-09-30T12:08:29.851831,3330,-0.027861,0.639596,-0.024407,-0.008888,0.047652,0.999684
2011-09-30T12:08:29.861831,3340,-0.044382,0.625031,-0.027065,-0.009420,0.047400,0.998364
2011-09-30T12:08:29.871831,3350,-0.060902,0.610465,-0.029723,-0.009952,0.047148,0.997045
2011-09-30T12:08:29.881831,3360,-0.077422,0.595900,-0.032381,-0.010484,0.046896,0.995726
2011-09-30T12:08:29.891831,3370,-0.093942,0.581334,-0.035039,-0.011015,0.046644,0.994407
2011-09-30T12:08:29.901831,3380,-0.110463,0.566769,-0.037697,-0.011547,0.046391,0.993087
2011-09-30T12:08:29.911831,3390,-0.126983,0.552204,-0.040354,-0.012079,0.046139,0.991768
2011-09-30T12:08:29.921831,3400,-0.143503,0.537638,-0.043012,-0.012611,0.045887,0.990449
2011-09-30T12:08:29.931831,3410,-0.160024,0.523073,-0.045670,-0.013143,0.045635,0.989130
2011-09-30T12:08:29.941831,3420,-0.183672,0.463104,-0.047004,-0.013178,0.044942,0.987933
2011-09-30T12:08:29.951831,3430,-0.208212,0.397460,-0.048172,-0.013151,0.044195,0.986752
2011-09-30T12:08:29.961831,3440,-0.232752,0.331817,-0.049340,-0.013125,0.043447,0.985571
2011-09-30T12:08:29.971831,3450,-0.257292,0.266174,-0.050508,-0.013098,0.042699,0.984390
2011-09-30T12:08:29.981831,3460,-0.281831,0.200531,-0.051675,-0.013071,0.041951,0.983209
2011-09-30T12:08:29.991831,3470,-0.306371,0.134888,-0.052843,-0.013044,0.041204,0.982028
2011-09-30T12:08:30.001831,3480,-0.330911,0.069244,-0.054011,-0.013017,0.040456,0.980847
2011-09-30T12:08:30.011831,3490,-0.355450,0.003601,-0.055179,-0.012990,0.039708,0.979666
2011-09-30T12:08:30.021831,3500,-0.379990,-0.062042,-0.056347,-0.012963,0.038961,0.978484
2011-09-30T12:08:30.031831,3510,-0.404530,-0.127685,-0.057515,-0.012936,0.038213,0.977303
2011-09-30T12:08:30.041831,3520,-0.429069,-0.193328,-0.058683,-0.012909,0.037465,0.976122
2011-09-30T12:08:30.051831,3530,-0.440392,-0.178359,-0.060930,-0.012335,0.038710,0.977942
2011-09-30T12:08:30.061831,3540,-0.450293,-0.154721,-0.063293,-0.011702,0.040169,0.980085
2011-09-30T12:08:30.071831,3550,-0.460194,-0.131083,-0.065655,-0.011068,0.041628,0.982228
2011-09-30T12:08:30.081831,3560,-0.470094,-0.107445,-0.068018,-0.010435,0.043086,0.984370
2011-09-30T12:08:30.091831,3570,-0.479995,-0.083807,-0.070381,-0.009802,0.044545,0.986513
2011-09-30T12:08:30.101831,3580,-0.489896,-0.060168,-0.072744,-0.009169,0.046004,0.988656
2011-09-30T12:08:30.111831,3590,-0.499797,-0.036530,-0.075106,-0.008535,0.047463,0.990798
2011-09-30T12:08:30.121831,3600,-0.509698,-0.012892,-0.077469,-0.007902,0.048922,0.992941
2011-09-30T12:08:30.131831,3610,-0.519599,0.010746,-0.079832,-0.007269,0.050381,0.995084
2011-09-30T12:08:30.141831,3620,-0.529500,0.034384,-0.082195,-0.006635,0.051840,0.997226
2011-09-30T12:08:30.151831,3630,-0.593454,0.101292,-0.101617,-0.005868,0.051210,0.998622
2011-09-30T12:08:30.161831,3640,-0.663288,0.172905,-0.122895,-0.005087,0.050353,0.999936
2011-09-30T12:08:30.171831,3650,-0.733121,0.244519,-0.144173,-0.004305,0.049496,1.001250
2011-09-30T12:08:30.181831,3660,-0.802955,0.316133,-0.165451,-0.003523,0.048639,1.002564
2011-09-30T12:08:30.191831,3670,-0.872788,0.387747,-0.186729,-0.002741,0.047782,1.003878
2011-09-30T12:08:30.201831,3680,-0.942622,0.459360,-0.208007,-0.001960,0.046925,1.005192
2011-09-30T12:08:30.211831,3690,-1.012455,0.530974,-0.229285,-0.001178,0.046069,1.006506
2011-09-30T12:08:30.221831,3700,-1.082288,0.602588,-0.250563,-0.000396,0.045212,1.007821
2011-09-30T12:08:30.231831,3710,-1.152122,0.674202,-0.271841,0.000385,0.044355,1.009135
2011-09-30T12:08:30.241831,3720,-1.221955,0.745816,-0.293119,0.001167,0.043498,1.010449
2011-09-30T12:08:30.251831,3730,-1.291789,0.817429,-0.314397,0.001949,0.042641,1.011763
2011-09-30T12:08:30.261831,3740,-1.212329,0.878724,-0.360030,0.001352,0.039790,1.009367
2011-09-30T12:08:30.271831,3750,-1.117197,0.938935,-0.408219,0.000610,0.036731,1.006582
2011-09-30T12:08:30.281831,3760,-1.022066,0.999147,-0.456407,-0.000132,0.033671,1.003796
2011-09-30T12:08:30.291831,3770,-0.926935,1.059358,-0.504596,-0.000873,0.030612,1.001011
2011-09-30T12:08:30.301831,3780,-0.831804,1.119569,-0.552785,-0.001615,0.027552,0.998226
2011-09-30T12:08:30.311831,3790,-0.736672,1.179781,-0.600974,-0.002357,0.024492,0.995440
2011-09-30T12:08:30.321831,3800,-0.641541,1.239992,-0.649163,-0.003099,0.021433,0.992655
2011-09-30T12:08:30.331831,3810,-0.546410,1.300203,-0.697352,-0.003840,0.018373,0.989870
2011-09-30T12:08:30.341831,3820,-0.451279,1.360415,-0.745540,-0.004582,0.015314,0.987084
2011-09-30T12:08:30.351831,3830,-0.356147,1.420626,-0.793729,-0.005324,0.012254,0.984299
2011-09-30T12:08:30.361831,3840,-0.328829,1.425726,-0.813277,-0.005133,0.012745,0.982193
2011-09-30T12:08:30.371831,3850,-0.309652,1.424209,-0.829386,-0.004830,0.013662,0.980168
2011-09-30T12:08:30.381831,3860,-0.290474,1.422693,-0.845496,-0.004527,0.014580,0.978143
2011-09-30T12:08:30.391831,3870,-0.271297,1.421177,-0.861605,-0.004224,0.015497,0.976118
2011-09-30T12:08:30.401831,3880,-0.252119,1.419661,-0.877715,-0.003921,0.016414,0.974094
2011-09-30T12:08:30.411831,3890,-0.232942,1.418145,-0.893824,-0.003618,0.017331,0.972069
2011-09-30T12:08:30.421831,3900,-0.213764,1.416629,-0.909933,-0.003315,0.018249,0.970044
2011-09-30T12:08:30.431831,3910,-0.194587,1.415112,-0.926043,-0.003012,0.019166,0.968019
2011-09-30T12:08:30.441831,3920,-0.175409,1.413596,-0.942152,-0.002709,0.020083,0.965994
2011-09-30T12:08:30.451831,3930,-0.156232,1.412080,-0.958262,-0.002406,0.021001,0.963969
2011-09-30T12:08:30.461831,3940,-0.149144,1.430662,-0.958067,-0.002999,0.019543,0.965199
2011-09-30T12:08:30.471831,3950,-0.143493,1.451633,-0.955935,-0.003699,0.017804,0.966815
2011-09-30T12:08:30.481831,3960,-0.137842,1.472603,-0.953804,-0.004398,0.016065,0.968431
2011-09-30T12:08:30.491831,3970,-0.132192,1.493574,-0.951672,-0.005098,0.014325,0.970047
2011-09-30T12:08:30.501831,3980,-0.126541,1.514544,-0.949541,-0.005798,0.012586,0.971663
2011-09-30T12:08:30.511831,3990,-0.120890,1.535515,-0.947409,-0.006497,0.010846,0.973279
2011-09-30T12:08:30.521831,4000,-0.115239,1.556485,-0.945277,-0.007197,0.009107,0.974895
2011-09-30T12:08:30.531831,4010,-0.109588,1.577456,-0.943146,-0.007897,0.007368,0.976511
2011-09-30T12:08:30.541831,4020,-0.103937,1.598426,-0.941014,-0.008596,0.005628,0.978127
2011-09-30T12:08:30.551831,4030,-0.098286,1.619397,-0.938882,-0.009296,0.003889,0.979743
2011-09-30T12:08:30.561831,4040,-0.092635,1.640367,-0.936751,-0.009996,0.002150,0.981359
2011-09-30T12:08:30.571831,4050,-0.077718,1.602059,-0.923395,-0.011310,0.003162,0.978797
2011-09-30T12:08:30.581831,4060,-0.061900,1.557995,-0.908950,-0.012683,0.004442,0.975831
2011-09-30T12:08:30.591831,4070,-0.046083,1.513930,-0.894505,-0.014057,0.005722,0.972864
2011-09-30T12:08:30.601831,4080,-0.030266,1.469866,-0.880060,-0.015431,0.007002,0.969897
2011-09-30T12:08:30.611831,4090,-0.014449,1.425802,-0.865615,-0.016804,0.008282,0.966930
2011-09-30T12:08:30.621831,4100,0.001369,1.381738,-0.851170,-0.018178,0.009562,0.963963
2011-09-30T12:08:30.631831,4110,0.017186,1.337673,-0.836725,-0.019552,0.010842,0.960997
2011-09-30T12:08:30.641831,4120,0.033003,1.293609,-0.822279,-0.020925,0.012122,0.958030
2011-09-30T12:08:30.651831,4130,0.048820,1.249545,-0.807834,-0.022299,0.013402,0.955063
2011-09-30T12:08:30.661831,4140,0.064638,1.205481,-0.793389,-0.023672,0.014682,0.952096
2011-09-30T12:08:30.671831,4150,0.151156,1.046968,-0.798714,-0.023222,0.015153,0.953366
2011-09-30T12:08:30.681831,4160,0.244591,0.877259,-0.805973,-0.022594,0.015544,0.955051
2011-09-30T12:08:30.691831,4170,0.338026,0.707550,-0.813231,-0.021965,0.015935,0.956736
2011-09-30T12:08:30.701831,4180,0.431461,0.537841,-0.820490,-0.021337,0.016326,0.958420
2011-09-30T12:08:30.711831,4190,0.524896,0.368132,-0.827749,-0.020708,0.016717,0.960105
2011-09-30T12:08:30.721831,4200,0.618331,0.198423,-0.835007,-0.020079,0.017108,0.961789
2011-09-30T12:08:30.731831,4210,0.711767,0.028715,-0.842266,-0.019451,0.017499,0.963474
2011-09-30T12:08:30.741831,4220,0.805202,-0.140994,-0.849525,-0.018822,0.017890,0.965159
2011-09-30T12:08:30.751831,4230,0.898637,-0.310703,-0.856784,-0.018194,0.018282,0.966843
2011-09-30T12:08:30.761831,4240,0.992072,-0.480412,-0.864042,-0.017565,0.018673,0.968528
2011-09-30T12:08:30.771831,4250,0.877676,-0.543437,-0.839855,-0.016379,0.018877,0.973262
2011-09-30T12:08:30.781831,4260,0.742629,-0.595862,-0.812543,-0.015137,0.019063,0.978300
2011-09-30T12:08:30.791831,4270,0.607583,-0.648287,-0.785231,-0.013895,0.019248,0.983337
2011-09-30T12:08:30.801831,4280,0.472537,-0.700712,-0.757919,-0.012654,0.019434,0.988374
2011-09-30T12:08:30.811831,4290,0.337491,-0.753137,-0.730607,-0.011412,0.019620,0.993412
2011-09-30T12:08:30.821831,4300,0.202444,-0.805562,-0.703294,-0.010170,0.019806,0.998449
2011-09-30T12:08:30.831831,4310,0.067398,-0.857987,-0.675982,-0.008928,0.019991,1.003486
2011-09-30T12:08:30.841831,4320,-0.067648,-0.910412,-0.648670,-0.007687,0.020177,1.008524
2011-09-30T12:08:30.851831,4330,-0.202694,-0.962837,-0.621358,-0.006445,0.020363,1.013561
2011-09-30T12:08:30.861831,4340,-0.337741,-1.015262,-0.594046,-0.005203,0.020549,1.018598
2011-09-30T12:08:30.871831,4350,-0.472787,-1.067687,-0.566734,-0.003962,0.020734,1.023636
2011-09-30T12:08:30.881831,4360,-0.475527,-1.012370,-0.556875,-0.004097,0.019529,1.022225
2011-09-30T12:08:30.891831,4370,-0.465467,-0.946629,-0.548704,-0.004366,0.018189,1.020191
2011-09-30T12:08:30.901831,4380,-0.455407,-0.880889,-0.540533,-0.004635,0.016850,1.018157
2011-09-30T12:08:30.911831,4390,-0.445347,-0.815148,-0.532362,-0.004904,0.015510,1.016123
2011-09-30T12:08:30.921831,4400,-0.435287,-0.749408,-0.524190,-0.005173,0.014170,1.014089
2011-09-30T12:08:30.931831,4410,-0.425227,-0.683667,-0.516019,-0.005442,0.012830,1.012055
2011-09-30T12:08:30.941831,4420,-0.415167,-0.617927,-0.507848,-0.005711,0.011491,1.010021
2011-09-30T12:08:30.951831,4430,-0.405107,-0.552186,-0.499677,-0.005980,0.010151,1.007987
2011-09-30T12:08:30.961831,4440,-0.395047,-0.486446,-0.491506,-0.006249,0.008811,1.005953
2011-09-30T12:08:30.971831,4450,-0.384987,-0.420705,-0.483335,-0.006518,0.007471,1.003919
2011-09-30T12:08:30.981831,4460,-0.352969,-0.399546,-0.445013,-0.006770,0.008839,1.005902
2011-09-30T12:08:30.991831,4470,-0.318233,-0.383903,-0.402960,-0.007020,0.010542,1.008382
2011-09-30T12:08:31.001831,4480,-0.283498,-0.368260,-0.360907,-0.007270,0.012245,1.010863
2011-09-30T12:08:31.011831,4490,-0.248763,-0.352617,-0.318854,-0.007520,0.013948,1.013343
2011-09-30T12:08:31.021831,4500,-0.214027,-0.336974,-0.276802,-0.007770,0.015651,1.015823
2011-09-30T12:08:31.031831,4510,-0.179292,-0.321331,-0.234749,-0.008020,0.017354,1.018304
2011-09-30T12:08:31.041831,4520,-0.144556,-0.305688,-0.192696,-0.008270,0.019057,1.020784
2011-09-30T12:08:31.051831,4530,-0.109821,-0.290046,-0.150643,-0.008520,0.020760,1.023264
2011-09-30T12:08:31.061831,4540,-0.075086,-0.274403,-0.108590,-0.008770,0.022463,1.025745
2011-09-30T12:08:31.071831,4550,-0.040350,-0.258760,-0.066538,-0.009020,0.024166,1.028225
2011-09-30T12:08:31.081831,4560,-0.005615,-0.243117,-0.024485,-0.009270,0.025869,1.030706
2011-09-30T12:08:31.091831,4570,0.027530,-0.251655,0.013504,-0.009541,0.028217,1.027597
2011-09-30T12:08:31.101831,4580,0.060516,-0.262620,0.051086,-0.009813,0.030629,1.023928
2011-09-30T12:08:31.111831,4590,0.093502,-0.273585,0.088667,-0.010086,0.033041,1.020258
2011-09-30T12:08:31.121831,4600,0.126487,-0.284550,0.126249,-0.010358,0.035453,1.016589
2011-09-30T12:08:31.131831,4610,0.159473,-0.295515,0.163830,-0.010631,0.037865,1.012920
2011-09-30T12:08:31.141831,4620,0.192459,-0.306480,0.201412,-0.010904,0.040277,1.009250
2011-09-30T12:08:31.151831,4630,0.225444,-0.317445,0.238993,-0.011176,0.042689,1.005581
2011-09-30T12:08:31.161831,4640,0.258430,-0.328410,0.276574,-0.011449,0.045101,1.001912
2011-09-30T12:08:31.171831,4650,0.291415,-0.339375,0.314156,-0.011721,0.047513,0.998242
2011-09-30T12:08:31.181831,4660,0.324401,-0.350340,0.351737,-0.011994,0.049925,0.994573
2011-09-30T12:08:31.191831,4670,0.296900,-0.308521,0.388300,-0.011480,0.049993,0.997403
2011-09-30T12:08:31.201831,4680,0.263351,-0.261424,0.424762,-0.010888,0.049826,1.000883
2011-09-30T12:08:31.211831,4690,0.229802,-0.214328,0.461223,-0.010296,0.049660,1.004363
2011-09-30T12:08:31.221831,4700,0.196253,-0.167231,0.497684,-0.009704,0.049493,1.007844
2011-09-30T12:08:31.231831,4710,0.162704,-0.120134,0.534146,-0.009112,0.049327,1.011324
2011-09-30T12:08:31.241831,4720,0.129155,-0.073037,0.570607,-0.008520,0.049160,1.014804
2011-09-30T12:08:31.251831,4730,0.095606,-0.025940,0.607068,-0.007928,0.048993,1.018284
2011-09-30T12:08:31.261831,4740,0.062057,0.021156,0.643530,-0.007336,0.048827,1.021764
2011-09-30T12:08:31.271831,4750,0.028508,0.068253,0.679991,-0.006744,0.048660,1.025244
2011-09-30T12:08:31.281831,4760,-0.005041,0.115350,0.716452,-0.006152,0.048494,1.028724
2011-09-30T12:08:31.291831,4770,-0.007726,0.169932,0.726891,-0.007351,0.049790,1.025643
2011-09-30T12:08:31.301831,4780,-0.007307,0.225266,0.734713,-0.008731,0.051234,1.021902
2011-09-30T12:08:31.311831,4790,-0.006887,0.280600,0.742535,-0.010111,0.052677,1.018160
2011-09-30T12:08:31.321831,4800,-0.006468,0.335935,0.750357,-0.011490,0.054120,1.014419
2011-09-30T12:08:31.331831,4810,-0.006049,0.391269,0.758179,-0.012870,0.055564,1.010678
2011-09-30T12:08:31.341831,4820,-0.005629,0.446604,0.766001,-0.014250,0.057007,1.006937
2011-09-30T12:08:31.351831,4830,-0.005210,0.501938,0.773823,-0.015629,0.058451,1.003195
2011-09-30T12:08:31.361831,4840,-0.004791,0.557273,0.781645,-0.017009,0.059894,0.999454
2011-09-30T12:08:31.371831,4850,-0.004371,0.612607,0.789466,-0.018388,0.061338,0.995713
2011-09-30T12:08:31.381831,4860,-0.003952,0.667942,0.797288,-0.019768,0.062781,0.991972
2011-09-30T12:08:31.391831,4870,-0.003533,0.723276,0.805110,-0.021148,0.064225,0.988230
2011-09-30T12:08:31.401831,4880,0.008483,0.688603,0.786007,-0.021614,0.063952,0.987438
2011-09-30T12:08:31.411831,4890,0.021601,0.645375,0.764344,-0.021994,0.063516,0.986927
2011-09-30T12:08:31.421831,4900,0.034719,0.602147,0.742682,-0.022374,0.063080,0.986415
2011-09-30T12:08:31.431831,4910,0.047837,0.558919,0.721019,-0.022754,0.062644,0.985903
2011-09-30T12:08:31.441831,4920,0.060954,0.515691,0.699356,-0.023134,0.062207,0.985391
2011-09-30T12:08:31.451831,4930,0.074072,0.472463,0.677694,-0.023514,0.061771,0.984880
2011-09-30T12:08:31.461831,4940,0.087190,0.429235,0.656031,-0.023894,0.061335,0.984368
2011-09-30T12:08:31.471831,4950,0.100308,0.386007,0.634369,-0.024274,0.060899,0.983856
2011-09-30T12:08:31.481831,4960,0.113426,0.342779,0.612706,-0.024654,0.060463,0.983344
2011-09-30T12:08:31.491831,4970,0.126544,0.299552,0.591044,-0.025034,0.060027,0.982833
2011-09-30T12:08:31.501831,4980,0.082751,0.267615,0.578440,-0.025107,0.059913,0.983845
2011-09-30T12:08:31.511831,4990,0.032963,0.236867,0.566791,-0.025148,0.059832,0.985017
2011-09-30T12:08:31.521831,5000,-0.016824,0.206119,0.555142,-0.025189,0.059752,0.986190
2011-09-30T12:08:31.531831,5010,-0.066611,0.175371,0.543493,-0.025229,0.059672,0.987363
2011-09-30T12:08:31.541831,5020,-0.116398,0.144624,0.531844,-0.025270,0.059592,0.988535
2011-09-30T12:08:31.551831,5030,-0.166185,0.113876,0.520194,-0.025311,0.059511,0.989708
2011-09-30T12:08:31.561831,5040,-0.215973,0.083128,0.508545,-0.025352,0.059431,0.990881
2011-09-30T12:08:31.571831,5050,-0.265760,0.052380,0.496896,-0.025393,0.059351,0.992053
2011-09-30T12:08:31.581831,5060,-0.315547,0.021633,0.485247,-0.025434,0.059270,0.993226
2011-09-30T12:08:31.591831,5070,-0.365334,-0.009115,0.473598,-0.025475,0.059190,0.994399
2011-09-30T12:08:31.601831,5080,-0.415121,-0.039863,0.461949,-0.025516,0.059110,0.995571
2011-09-30T12:08:31.611831,5090,-0.405919,-0.038142,0.454228,-0.025584,0.057642,0.996103
2011-09-30T12:08:31.621831,5100,-0.390669,-0.033092,0.446911,-0.025655,0.056032,0.996568
2011-09-30T12:08:31.631831,5110,-0.375419,-0.028041,0.439593,-0.025726,0.054422,0.997034
2011-09-30T12:08:31.641831,5120,-0.360169,-0.022991,0.432275,-0.025797,0.052812,0.997500
2011-09-30T12:08:31.651831,5130,-0.344918,-0.017941,0.424958,-0.025868,0.051202,0.997965
2011-09-30T12:08:31.661831,5140,-0.329668,-0.012891,0.417640,-0.025939,0.049592,0.998431
2011-09-30T12:08:31.671831,5150,-0.314418,-0.007841,0.410323,-0.026010,0.047983,0.998897
2011-09-30T12:08:31.681831,5160,-0.299168,-0.002791,0.403005,-0.026081,0.046373,0.999362
2011-09-30T12:08:31.691831,5170,-0.283918,0.002259,0.395687,-0.026152,0.044763,0.999828
2011-09-30T12:08:31.701831,5180,-0.268668,0.007309,0.388370,-0.026222,0.043153,1.000293
2011-09-30T12:08:31.711831,5190,-0.206853,-0.013186,0.363442,-0.026534,0.042237,1.000571
2011-09-30T12:08:31.721831,5200,-0.139962,-0.036467,0.336595,-0.026871,0.041396,1.000829
2011-09-30T12:08:31.731831,5210,-0.073071,-0.059748,0.309747,-0.027209,0.040556,1.001086
2011-09-30T12:08:31.741831,5220,-0.006179,-0.083029,0.282900,-0.027546,0.039715,1.001344
2011-09-30T12:08:31.751831,5230,0.060712,-0.106310,0.256052,-0.027884,0.038875,1.001601
2011-09-30T12:08:31.761831,5240,0.127603,-0.129591,0.229205,-0.028221,0.038035,1.001859
2011-09-30T12:08:31.771831,5250,0.194495,-0.152872,0.202357,-0.028559,0.037194,1.002116
2011-09-30T12:08:31.781831,5260,0.261386,-0.176153,0.175510,-0.028896,0.036354,1.002374
2011-09-30T12:08:31.791831,5270,0.328277,-0.199434,0.148662,-0.029233,0.035513,1.002631
2011-09-30T12:08:31.801831,5280,0.395169,-0.222715,0.121815,-0.029571,0.034673,1.002889
2011-09-30T12:08:31.811831,5290,0.412345,-0.241515,0.118617,-0.029258,0.035279,1.002569
2011-09-30T12:08:31.821831,5300,0.424934,-0.259903,0.117602,-0.028885,0.036018,1.002196
2011-09-30T12:08:31.831831,5310,0.437522,-0.278290,0.116587,-0.028512,0.036757,1.001824
2011-09-30T12:08:31.841831,5320,0.450110,-0.296678,0.115573,-0.028139,0.037496,1.001451
2011-09-30T12:08:31.851831,5330,0.462699,-0.315065,0.114558,-0.027766,0.038235,1.001078
2011-09-30T12:08:31.861831,5340,0.475287,-0.333453,0.113543,-0.027394,0.038974,1.000705
2011-09-30T12:08:31.871831,5350,0.487875,-0.351840,0.112528,-0.027021,0.039714,1.000332
2011-09-30T12:08:31.881831,5360,0.500464,-0.370228,0.111513,-0.026648,0.040453,0.999959
2011-09-30T12:08:31.891831,5370,0.513052,-0.388615,0.110498,-0.026275,0.041192,0.999586
2011-09-30T12:08:31.901831,5380,0.525640,-0.407002,0.109483,-0.025902,0.041931,0.999213
2011-09-30T12:08:31.911831,5390,0.538229,-0.425390,0.108468,-0.025529,0.042670,0.998840
2011-09-30T12:08:31.921831,5400,0.516139,-0.343760,0.117218,-0.025802,0.042630,1.000236
2011-09-30T12:08:31.931831,5410,0.490620,-0.252239,0.126933,-0.026140,0.042512,1.001807
2011-09-30T12:08:31.941831,5420,0.465101,-0.160718,0.136648,-0.026477,0.042395,1.003378
2011-09-30T12:08:31.951831,5430,0.439581,-0.069197,0.146364,-0.026814,0.042277,1.004949
2011-09-30T12:08:31.961831,5440,0.414062,0.022324,0.156079,-0.027151,0.042159,1.006519
2011-09-30T12:08:31.971831,5450,0.388543,0.113845,0.165794,-0.027489,0.042042,1.008090
2011-09-30T12:08:31.981831,5460,0.363024,0.205366,0.175509,-0.027826,0.041924,1.009661
2011-09-30T12:08:31.991831,5470,0.337505,0.296887,0.185225,-0.028163,0.041807,1.011232
2011-09-30T12:08:32.001831,5480,0.311985,0.388408,0.194940,-0.028500,0.041689,1.012802
2011-09-30T12:08:32.011831,5490,0.286466,0.479929,0.204655,-0.028838,0.041571,1.014373
2011-09-30T12:08:32.021831,5500,0.270301,0.525455,0.198561,-0.029617,0.042186,1.011942
2011-09-30T12:08:32.031831,5510,0.255216,0.565667,0.190640,-0.030447,0.042885,1.009048
2011-09-30T12:08:32.041831,5520,0.240132,0.605879,0.182718,-0.031277,0.043584,1.006154
2011-09-30T12:08:32.051831,5530,0.225047,0.646090,0.174797,-0.032107,0.044283,1.003261
2011-09-30T12:08:32.061831,5540,0.209963,0.686302,0.166876,-0.032937,0.044982,1.000367
2011-09-30T12:08:32.071831,5550,0.194878,0.726513,0.158955,-0.033767,0.045681,0.997473
2011-09-30T12:08:32.081831,5560,0.179794,0.766725,0.151033,-0.034597,0.046381,0.994580
2011-09-30T12:08:32.091831,5570,0.164709,0.806937,0.143112,-0.035427,0.047080,0.991686
2011-09-30T12:08:32.101831,5580,0.149625,0.847148,0.135191,-0.036257,0.047779,0.988792
2011-09-30T12:08:32.111831,5590,0.134540,0.887360,0.127270,-0.037087,0.048478,0.985898
2011-09-30T12:08:32.121831,5600,0.119456,0.927571,0.119349,-0.037917,0.049177,0.983005
2011-09-30T12:08:32.131831,5610,0.079265,0.788429,0.120626,-0.038693,0.048470,0.979204
2011-09-30T12:08:32.141831,5620,0.036714,0.632414,0.122769,-0.039462,0.047631,0.975318
2011-09-30T12:08:32.151831,5630,-0.005838,0.476399,0.124912,-0.040232,0.046791,0.971432
2011-09-30T12:08:32.161831,5640,-0.048390,0.320384,0.127055,-0.041002,0.045952,0.967546
2011-09-30T12:08:32.171831,5650,-0.090942,0.164368,0.129198,-0.041772,0.045112,0.963660
2011-09-30T12:08:32.181831,5660,-0.133494,0.008353,0.131340,-0.042542,0.044273,0.959774
2011-09-30T12:08:32.191831,5670,-0.176046,-0.147662,0.133483,-0.043312,0.043434,0.955888
2011-09-30T12:08:32.201831,5680,-0.218598,-0.303677,0.135626,-0.044082,0.042594,0.952001
2011-09-30T12:08:32.211831,5690,-0.261150,-0.459692,0.137769,-0.044852,0.041755,0.948115
2011-09-30T12:08:32.221831,5700,-0.303702,-0.615707,0.139912,-0.045622,0.040916,0.944229
2011-09-30T12:08:32.231831,5710,-0.358821,-0.638167,0.131569,-0.044442,0.041817,0.950399
2011-09-30T12:08:32.241831,5720,-0.415153,-0.647738,0.122215,-0.043075,0.042887,0.957540
2011-09-30T12:08:32.251831,5730,-0.471485,-0.657308,0.112860,-0.041708,0.043957,0.964681
2011-09-30T12:08:32.261831,5740,-0.527817,-0.666879,0.103506,-0.040341,0.045027,0.971821
2011-09-30T12:08:32.271831,5750,-0.584148,-0.676450,0.094151,-0.038974,0.046097,0.978962
2011-09-30T12:08:32.281831,5760,-0.640480,-0.686021,0.084797,-0.037606,0.047166,0.986102
2011-09-30T12:08:32.291831,5770,-0.696812,-0.695591,0.075443,-0.036239,0.048236,0.993243
2011-09-30T12:08:32.301831,5780,-0.753144,-0.705162,0.066088,-0.034872,0.049306,1.000384
2011-09-30T12:08:32.311831,5790,-0.809476,-0.714733,0.056734,-0.033505,0.050376,1.007524
2011-09-30T12:08:32.321831,5800,-0.865807,-0.724304,0.047379,-0.032137,0.051446,1.014665
2011-09-30T12:08:32.331831,5810,-0.897880,-0.666598,0.047640,-0.032534,0.050114,1.017328
2011-09-30T12:08:32.341831,5820,-0.927571,-0.602288,0.048845,-0.033104,0.048546,1.019552
2011-09-30T12:08:32.351831,5830,-0.957261,-0.537977,0.050049,-0.033674,0.046978,1.021776
2011-09-30T12:08:32.361831,5840,-0.986952,-0.473666,0.051254,-0.034244,0.045410,1.024000
2011-09-30T12:08:32.371831,5850,-1.016642,-0.409356,0.052459,-0.034813,0.043842,1.026223
2011-09-30T12:08:32.381831,5860,-1.046333,-0.345045,0.053663,-0.035383,0.042274,1.028447
2011-09-30T12:08:32.391831,5870,-1.076024,-0.280734,0.054868,-0.035953,0.040706,1.030671
2011-09-30T12:08:32.401831,5880,-1.105714,-0.216423,0.056073,-0.036523,0.039138,1.032895
2011-09-30T12:08:32.411831,5890,-1.135405,-0.152113,0.057278,-0.037093,0.037570,1.035118
2011-09-30T12:08:32.421831,5900,-1.165096,-0.087802,0.058482,-0.037663,0.036002,1.037342
2011-09-30T12:08:32.431831,5910,-1.194786,-0.023491,0.059687,-0.038233,0.034434,1.039566
2011-09-30T12:08:32.441831,5920,-1.181910,-0.036289,0.054242,-0.037957,0.033810,1.033711
2011-09-30T12:08:32.451831,5930,-1.164369,-0.057539,0.048069,-0.037589,0.033289,1.026970
2011-09-30T12:08:32.461831,5940,-1.146827,-0.078788,0.041896,-0.037221,0.032769,1.020229
2011-09-30T12:08:32.471831,5950,-1.129285,-0.100038,0.035722,-0.036853,0.032248,1.013488
2011-09-30T12:08:32.481831,5960,-1.111744,-0.121287,0.029549,-0.036484,0.031727,1.006747
2011-09-30T12:08:32.491831,5970,-1.094202,-0.142537,0.023376,-0.036116,0.031206,1.000006
2011-09-30T12:08:32.501831,5980,-1.076661,-0.163786,0.017202,-0.035748,0.030686,0.993265
2011-09-30T12:08:32.511831,5990,-1.059119,-0.185036,0.011029,-0.035380,0.030165,0.986524
2011-09-30T12:08:32.521831,6000,-1.041577,-0.206285,0.004856,-0.035012,0.029644,0.979784
2011-09-30T12:08:32.531831,6010,-1.024036,-0.227535,-0.001318,-0.034644,0.029123,0.973043
2011-09-30T12:08:32.541831,6020,-1.001808,-0.191553,-0.010029,-0.034414,0.028527,0.976594
2011-09-30T12:08:32.551831,6030,-0.979086,-0.149537,-0.019009,-0.034200,0.027923,0.981230
2011-09-30T12:08:32.561831,6040,-0.956364,-0.107520,-0.027988,-0.033985,0.027319,0.985866
2011-09-30T12:08:32.571831,6050,-0.933642,-0.065504,-0.036968,-0.033770,0.026715,0.990503
2011-09-30T12:08:32.581831,6060,-0.910920,-0.023487,-0.045947,-0.033555,0.026110,0.995139
2011-09-30T12:08:32.591831,6070,-0.888198,0.018529,-0.054927,-0.033340,0.025506,0.999775
2011-09-30T12:08:32.601831,6080,-0.865476,0.060545,-0.063906,-0.033126,0.024902,1.004411
2011-09-30T12:08:32.611831,6090,-0.842754,0.102562,-0.072886,-0.032911,0.024298,1.009048
2011-09-30T12:08:32.621831,6100,-0.820032,0.144578,-0.081865,-0.032696,0.023693,1.013684
2011-09-30T12:08:32.631831,6110,-0.797310,0.186595,-0.090845,-0.032481,0.023089,1.018320
2011-09-30T12:08:32.641831,6120,-0.774588,0.228611,-0.099824,-0.032266,0.022485,1.022956
2011-09-30T12:08:32.651831,6130,-0.752579,0.248897,-0.138173,-0.033263,0.022229,1.020925
2011-09-30T12:08:32.661831,6140,-0.730639,0.267086,-0.179354,-0.034377,0.022006,1.018251
2011-09-30T12:08:32.671831,6150,-0.708698,0.285275,-0.220536,-0.035491,0.021783,1.015577
2011-09-30T12:08:32.681831,6160,-0.686758,0.303464,-0.261718,-0.036605,0.021560,1.012902
2011-09-30T12:08:32.691831,6170,-0.664818,0.321653,-0.302900,-0.037719,0.021337,1.010228
2011-09-30T12:08:32.701831,6180,-0.642878,0.339842,-0.344082,-0.038833,0.021114,1.007554
2011-09-30T12:08:32.711831,6190,-0.620937,0.358032,-0.385264,-0.039947,0.020891,1.004879
2011-09-30T12:08:32.721831,6200,-0.598997,0.376221,-0.426446,-0.041061,0.020668,1.002205
2011-09-30T12:08:32.731831,6210,-0.577057,0.394410,-0.467628,-0.042175,0.020445,0.999531
2011-09-30T12:08:32.741831,6220,-0.555116,0.412599,-0.508810,-0.043289,0.020222,0.996856
2011-09-30T12:08:32.751831,6230,-0.572411,0.395700,-0.567407,-0.043108,0.021001,0.997311
2011-09-30T12:08:32.761831,6240,-0.593472,0.375432,-0.627676,-0.042803,0.021875,0.998067
2011-09-30T12:08:32.771831,6250,-0.614533,0.355164,-0.687945,-0.042498,0.022750,0.998822
2011-09-30T12:08:32.781831,6260,-0.635594,0.334896,-0.748215,-0.042193,0.023625,0.999577
2011-09-30T12:08:32.791831,6270,-0.656655,0.314628,-0.808484,-0.041888,0.024500,1.000333
2011-09-30T12:08:32.801831,6280,-0.677716,0.294361,-0.868753,-0.041583,0.025374,1.001088
2011-09-30T12:08:32.811831,6290,-0.698777,0.274093,-0.929023,-0.041279,0.026249,1.001843
2011-09-30T12:08:32.821831,6300,-0.719838,0.253825,-0.989292,-0.040974,0.027124,1.002599
2011-09-30T12:08:32.831831,6310,-0.740899,0.233557,-1.049561,-0.040669,0.027999,1.003354
2011-09-30T12:08:32.841831,6320,-0.761960,0.213289,-1.109831,-0.040364,0.028873,1.004109
2011-09-30T12:08:32.851831,6330,-0.670659,0.151871,-1.138452,-0.041537,0.024391,1.001580
2011-09-30T12:08:32.861831,6340,-0.568787,0.086581,-1.164096,-0.042850,0.019404,0.998741
2011-09-30T12:08:32.871831,6350,-0.466915,0.021291,-1.189740,-0.044162,0.014418,0.995903
2011-09-30T12:08:32.881831,6360,-0.365044,-0.043999,-1.215385,-0.045475,0.009431,0.993064
2011-09-30T12:08:32.891831,6370,-0.263172,-0.109288,-1.241029,-0.046787,0.004444,0.990225
2011-09-30T12:08:32.901831,6380,-0.161300,-0.174578,-1.266673,-0.048100,-0.000542,0.987387
2011-09-30T12:08:32.911831,6390,-0.059428,-0.239868,-1.292317,-0.049412,-0.005529,0.984548
2011-09-30T12:08:32.921831,6400,0.042444,-0.305158,-1.317961,-0.050725,-0.010515,0.981710
2011-09-30T12:08:32.931831,6410,0.144316,-0.370448,-1.343605,-0.052037,-0.015502,0.978871
2011-09-30T12:08:32.941831,6420,0.246188,-0.435738,-1.369249,-0.053350,-0.020488,0.976033
2011-09-30T12:08:32.951831,6430,0.348059,-0.501027,-1.394894,-0.054662,-0.025475,0.973194
2011-09-30T12:08:32.961831,6440,0.460736,-0.682578,-1.391384,-0.052614,-0.023963,0.974831
2011-09-30T12:08:32.971831,6450,0.574644,-0.877395,-1.384547,-0.050183,-0.021709,0.976979
2011-09-30T12:08:32.981831,6460,0.688553,-1.072212,-1.377711,-0.047751,-0.019456,0.979127
2011-09-30T12:08:32.991831,6470,0.802462,-1.267029,-1.370874,-0.045319,-0.017202,0.981276
2011-09-30T12:08:33.001831,6480,0.916371,-1.461845,-1.364038,-0.042888,-0.014949,0.983424
2011-09-30T12:08:33.011831,6490,1.030280,-1.656662,-1.357201,-0.040456,-0.012695,0.985572
2011-09-30T12:08:33.021831,6500,1.144189,-1.851479,-1.350365,-0.038025,-0.010442,0.987720
2011-09-30T12:08:33.031831,6510,1.258098,-2.046295,-1.343528,-0.035593,-0.008188,0.989868
2011-09-30T12:08:33.041831,6520,1.372007,-2.241112,-1.336692,-0.033162,-0.005935,0.992016
2011-09-30T12:08:33.051831,6530,1.485916,-2.435929,-1.329856,-0.030730,-0.003681,0.994164
2011-09-30T12:08:33.061831,6540,1.357646,-2.298136,-1.333376,-0.029838,-0.001769,1.000877
2011-09-30T12:08:33.071831,6550,1.206040,-2.128292,-1.337895,-0.029095,0.000110,1.008029
2011-09-30T12:08:33.081831,6560,1.054434,-1.958448,-1.342413,-0.028351,0.001989,1.015181
2011-09-30T12:08:33.091831,6570,0.902829,-1.788605,-1.346932,-0.027607,0.003869,1.022334
2011-09-30T12:08:33.101831,6580,0.751223,-1.618761,-1.351450,-0.026864,0.005748,1.029486
2011-09-30T12:08:33.111831,6590,0.599617,-1.448918,-1.355969,-0.026120,0.007627,1.036638
2011-09-30T12:08:33.121831,6600,0.448011,-1.279074,-1.360487,-0.025376,0.009506,1.043791
2011-09-30T12:08:33.131831,6610,0.296405,-1.109231,-1.365006,-0.024633,0.011386,1.050943
2011-09-30T12:08:33.141831,6620,0.144800,-0.939387,-1.369524,-0.023889,0.013265,1.058095
2011-09-30T12:08:33.151831,6630,-0.006806,-0.769544,-1.374043,-0.023145,0.015144,1.065248
2011-09-30T12:08:33.161831,6640,-0.158412,-0.599700,-1.378561,-0.022401,0.017023,1.072400
2011-09-30T12:08:33.171831,6650,-0.120512,-0.374437,-1.398286,-0.023102,0.015592,1.071533
2011-09-30T12:08:33.181831,6660,-0.064240,-0.143802,-1.419485,-0.023942,0.013840,1.069888
2011-09-30T12:08:33.191831,6670,-0.007967,0.086833,-1.440684,-0.024782,0.012088,1.068243
2011-09-30T12:08:33.201831,6680,0.048305,0.317468,-1.461882,-0.025622,0.010335,1.066598
2011-09-30T12:08:33.211831,6690,0.104577,0.548103,-1.483081,-0.026462,0.008583,1.064953
2011-09-30T12:08:33.221831,6700,0.160849,0.778739,-1.504280,-0.027302,0.006831,1.063308
2011-09-30T12:08:33.231831,6710,0.217121,1.009374,-1.525479,-0.028142,0.005079,1.061663
2011-09-30T12:08:33.241831,6720,0.273394,1.240009,-1.546677,-0.028982,0.003326,1.060019
2011-09-30T12:08:33.251831,6730,0.329666,1.470644,-1.567876,-0.029822,0.001574,1.058374
2011-09-30T12:08:33.261831,6740,0.385938,1.701280,-1.589075,-0.030662,-0.000178,1.056729
2011-09-30T12:08:33.271831,6750,0.351634,1.633782,-1.612529,-0.032872,0.001840,1.042281
2011-09-30T12:08:33.281831,6760,0.308152,1.536072,-1.636212,-0.035220,0.004241,1.026536
2011-09-30T12:08:33.291831,6770,0.264669,1.438362,-1.659895,-0.037568,0.006641,1.010791
2011-09-30T12:08:33.301831,6780,0.221186,1.340651,-1.683578,-0.039917,0.009042,0.995046
2011-09-30T12:08:33.311831,6790,0.177704,1.242941,-1.707261,-0.042265,0.011442,0.979300
2011-09-30T12:08:33.321831,6800,0.134221,1.145231,-1.730944,-0.044613,0.013842,0.963555
2011-09-30T12:08:33.331831,6810,0.090738,1.047521,-1.754627,-0.046961,0.016243,0.947810
2011-09-30T12:08:33.341831,6820,0.047255,0.949810,-1.778310,-0.049310,0.018643,0.932065
2011-09-30T12:08:33.351831,6830,0.003773,0.852100,-1.801993,-0.051658,0.021044,0.916319
2011-09-30T12:08:33.361831,6840,-0.039710,0.754390,-1.825676,-0.054006,0.023444,0.900574
2011-09-30T12:08:33.371831,6850,-0.035227,0.605989,-1.856904,-0.053557,0.020284,0.909199
2011-09-30T12:08:33.381831,6860,-0.026238,0.452826,-1.888841,-0.052846,0.016602,0.920114
2011-09-30T12:08:33.391831,6870,-0.017248,0.299664,-1.920778,-0.052134,0.012920,0.931028
2011-09-30T12:08:33.401831,6880,-0.008258,0.146501,-1.952715,-0.051422,0.009237,0.941943
2011-09-30T12:08:33.411831,6890,0.000731,-0.006662,-1.984653,-0.050710,0.005555,0.952857
2011-09-30T12:08:33.421831,6900,0.009721,-0.159825,-2.016590,-0.049998,0.001872,0.963772
2011-09-30T12:08:33.431831,6910,0.018710,-0.312988,-2.048527,-0.049287,-0.001810,0.974686
2011-09-30T12:08:33.441831,6920,0.027700,-0.466151,-2.080464,-0.048575,-0.005492,0.985601
2011-09-30T12:08:33.451831,6930,0.036690,-0.619314,-2.112401,-0.047863,-0.009175,0.996515
2011-09-30T12:08:33.461831,6940,0.045679,-0.772477,-2.144338,-0.047151,-0.012857,1.007430
2011-09-30T12:08:33.471831,6950,0.054669,-0.925640,-2.176275,-0.046440,-0.016539,1.018344
2011-09-30T12:08:33.481831,6960,0.078760,-0.976945,-2.154674,-0.046999,-0.017235,1.019489
2011-09-30T12:08:33.491831,6970,0.104440,-1.017530,-2.127439,-0.047693,-0.017616,1.019605
2011-09-30T12:08:33.501831,6980,0.130120,-1.058116,-2.100204,-0.048386,-0.017998,1.019722
2011-09-30T12:08:33.511831,6990,0.155801,-1.098701,-2.072969,-0.049079,-0.018379,1.019839
2011-09-30T12:08:33.521831,7000,0.181481,-1.139287,-2.045734,-0.049773,-0.018760,1.019955
2011-09-30T12:08:33.531831,7010,0.207161,-1.179873,-2.018499,-0.050466,-0.019142,1.020072
2011-09-30T12:08:33.541831,7020,0.232841,-1.220458,-1.991264,-0.051159,-0.019523,1.020188
2011-09-30T12:08:33.551831,7030,0.258522,-1.261044,-1.964029,-0.051853,-0.019905,1.020305
2011-09-30T12:08:33.561831,7040,0.284202,-1.301629,-1.936794,-0.052546,-0.020286,1.020422
2011-09-30T12:08:33.571831,7050,0.309882,-1.342215,-1.909559,-0.053239,-0.020667,1.020538
2011-09-30T12:08:33.581831,7060,0.357476,-1.387332,-1.908002,-0.051760,-0.019639,1.021890
2011-09-30T12:08:33.591831,7070,0.407044,-1.432856,-1.908757,-0.050085,-0.018484,1.023354
2011-09-30T12:08:33.601831,7080,0.456611,-1.478380,-1.909512,-0.048409,-0.017329,1.024817
2011-09-30T12:08:33.611831,7090,0.506178,-1.523905,-1.910267,-0.046734,-0.016174,1.026280
2011-09-30T12:08:33.621831,7100,0.555746,-1.569429,-1.911022,-0.045059,-0.015019,1.027744
2011-09-30T12:08:33.631831,7110,0.605313,-1.614954,-1.911777,-0.043383,-0.013864,1.029207
2011-09-30T12:08:33.641831,7120,0.654881,-1.660478,-1.912532,-0.041708,-0.012709,1.030671
2011-09-30T12:08:33.651831,7130,0.704448,-1.706003,-1.913287,-0.040033,-0.011554,1.032134
2011-09-30T12:08:33.661831,7140,0.754015,-1.751527,-1.914042,-0.038357,-0.010399,1.033597
2011-09-30T12:08:33.671831,7150,0.803583,-1.797051,-1.914797,-0.036682,-0.009244,1.035061
2011-09-30T12:08:33.681831,7160,0.853150,-1.842576,-1.915552,-0.035007,-0.008088,1.036524
2011-09-30T12:08:33.691831,7170,0.818097,-1.738144,-1.908450,-0.034242,-0.007297,1.037890
2011-09-30T12:08:33.701831,7180,0.774991,-1.619442,-1.900600,-0.033564,-0.006540,1.039246
2011-09-30T12:08:33.711831,7190,0.731885,-1.500741,-1.892750,-0.032886,-0.005783,1.040603
2011-09-30T12:08:33.721831,7200,0.688779,-1.382039,-1.884900,-0.032207,-0.005026,1.041959
2011-09-30T12:08:33.731831,7210,0.645673,-1.263337,-1.877050,-0.031529,-0.004269,1.043315
2011-09-30T12:08:33.741831,7220,0.602567,-1.144636,-1.869200,-0.030851,-0.003512,1.044672
2011-09-30T12:08:33.751831,7230,0.559462,-1.025934,-1.861350,-0.030173,-0.002755,1.046028
2011-09-30T12:08:33.761831,7240,0.516356,-0.907233,-1.853500,-0.029494,-0.001998,1.047384
2011-09-30T12:08:33.771831,7250,0.473250,-0.788531,-1.845650,-0.028816,-0.001241,1.048741
2011-09-30T12:08:33.781831,7260,0.430144,-0.669829,-1.837800,-0.028138,-0.000485,1.050097
2011-09-30T12:08:33.791831,7270,0.397719,-0.520530,-1.850122,-0.028235,0.001162,1.046655
2011-09-30T12:08:33.801831,7280,0.366291,-0.368374,-1.864328,-0.028405,0.002892,1.042764
2011-09-30T12:08:33.811831,7290,0.334862,-0.216218,-1.878534,-0.028574,0.004622,1.038874
2011-09-30T12:08:33.821831,7300,0.303434,-0.064062,-1.892740,-0.028744,0.006351,1.034984
2011-09-30T12:08:33.831831,7310,0.272006,0.088094,-1.906946,-0.028913,0.008081,1.031093
2011-09-30T12:08:33.841831,7320,0.240578,0.240251,-1.921152,-0.029083,0.009811,1.027203
2011-09-30T12:08:33.851831,7330,0.209150,0.392407,-1.935358,-0.029253,0.011541,1.023312
2011-09-30T12:08:33.861831,7340,0.177722,0.544563,-1.949564,-0.029422,0.013270,1.019422
2011-09-30T12:08:33.871831,7350,0.146294,0.696719,-1.963770,-0.029592,0.015000,1.015531
2011-09-30T12:08:33.881831,7360,0.114866,0.848875,-1.977976,-0.029761,0.016730,1.011641
2011-09-30T12:08:33.891831,7370,0.067526,0.821019,-1.990037,-0.030452,0.016192,1.007592
2011-09-30T12:08:33.901831,7380,0.018700,0.776354,-2.001898,-0.031190,0.015442,1.003527
2011-09-30T12:08:33.911831,7390,-0.030126,0.731689,-2.013758,-0.031929,0.014692,0.999463
2011-09-30T12:08:33.921831,7400,-0.078951,0.687024,-2.025619,-0.032668,0.013943,0.995399
2011-09-30T12:08:33.931831,7410,-0.127777,0.642359,-2.037479,-0.033406,0.013193,0.991334
2011-09-30T12:08:33.941831,7420,-0.176603,0.597694,-2.049340,-0.034145,0.012443,0.987270
2011-09-30T12:08:33.951831,7430,-0.225429,0.553029,-2.061200,-0.034884,0.011693,0.983206
2011-09-30T12:08:33.961831,7440,-0.274255,0.508364,-2.073061,-0.035622,0.010944,0.979142
2011-09-30T12:08:33.971831,7450,-0.323080,0.463699,-2.084922,-0.036361,0.010194,0.975077
2011-09-30T12:08:33.981831,7460,-0.371906,0.419034,-2.096782,-0.037100,0.009444,0.971013
2011-09-30T12:08:33.991831,7470,-0.420732,0.374369,-2.108643,-0.037839,0.008694,0.966949
2011-09-30T12:08:34.001831,7480,-0.375219,0.246837,-2.102617,-0.037903,0.006389,0.967958
2011-09-30T12:08:34.011831,7490,-0.319095,0.109985,-2.094579,-0.037892,0.003909,0.969539
2011-09-30T12:08:34.021831,7500,-0.262971,-0.026867,-2.086541,-0.037881,0.001429,0.971119
2011-09-30T12:08:34.031831,7510,-0.206848,-0.163719,-2.078504,-0.037870,-0.001051,0.972699
2011-09-30T12:08:34.041831,7520,-0.150724,-0.300571,-2.070466,-0.037859,-0.003531,0.974279
2011-09-30T12:08:34.051831,7530,-0.094600,-0.437423,-2.062428,-0.037848,-0.006011,0.975859
2011-09-30T12:08:34.061831,7540,-0.038477,-0.574275,-2.054390,-0.037837,-0.008491,0.977440
2011-09-30T12:08:34.071831,7550,0.017647,-0.711126,-2.046353,-0.037826,-0.010971,0.979020
2011-09-30T12:08:34.081831,7560,0.073771,-0.847978,-2.038315,-0.037815,-0.013452,0.980600
2011-09-30T12:08:34.091831,7570,0.129894,-0.984830,-2.030277,-0.037804,-0.015932,0.982180
2011-09-30T12:08:34.101831,7580,0.146715,-1.010912,-2.010539,-0.035353,-0.014983,0.985526
2011-09-30T12:08:34.111831,7590,0.159908,-1.026770,-1.989721,-0.032676,-0.013719,0.989035
2011-09-30T12:08:34.121831,7600,0.173101,-1.042628,-1.968903,-0.030000,-0.012454,0.992543
2011-09-30T12:08:34.131831,7610,0.186295,-1.058487,-1.948085,-0.027323,-0.011189,0.996052
2011-09-30T12:08:34.141831,7620,0.199488,-1.074345,-1.927267,-0.024647,-0.009924,0.999561
2011-09-30T12:08:34.151831,7630,0.212681,-1.090203,-1.906449,-0.021970,-0.008660,1.003069
2011-09-30T12:08:34.161831,7640,0.225874,-1.106061,-1.885630,-0.019294,-0.007395,1.006578
2011-09-30T12:08:34.171831,7650,0.239067,-1.121919,-1.864812,-0.016618,-0.006130,1.010087
2011-09-30T12:08:34.181831,7660,0.252260,-1.137777,-1.843994,-0.013941,-0.004865,1.013596
2011-09-30T12:08:34.191831,7670,0.265453,-1.153636,-1.823176,-0.011265,-0.003601,1.017104
2011-09-30T12:08:34.201831,7680,0.278647,-1.169494,-1.802358,-0.008588,-0.002336,1.020613
2011-09-30T12:08:34.211831,7690,0.261792,-1.088993,-1.797523,-0.007597,-0.002971,1.021956
2011-09-30T12:08:34.221831,7700,0.242310,-1.000069,-1.794084,-0.006752,-0.003773,1.023109
2011-09-30T12:08:34.231831,7710,0.222828,-0.911145,-1.790646,-0.005908,-0.004574,1.024262
2011-09-30T12:08:34.241831,7720,0.203346,-0.822220,-1.787208,-0.005064,-0.005376,1.025416
2011-09-30T12:08:34.251831,7730,0.183864,-0.733296,-1.783770,-0.004220,-0.006177,1.026569
2011-09-30T12:08:34.261831,7740,0.164382,-0.644371,-1.780332,-0.003375,-0.006979,1.027722
2011-09-30T12:08:34.271831,7750,0.144900,-0.555447,-1.776894,-0.002531,-0.007780,1.028876
2011-09-30T12:08:34.281831,7760,0.125418,-0.466523,-1.773456,-0.001687,-0.008582,1.030029
2011-09-30T12:08:34.291831,7770,0.105936,-0.377598,-1.770018,-0.000843,-0.009383,1.031182
2011-09-30T12:08:34.301831,7780,0.086454,-0.288674,-1.766579,0.000002,-0.010185,1.032335
2011-09-30T12:08:34.311831,7790,0.137361,-0.204435,-1.750590,0.000737,-0.009134,1.029735
2011-09-30T12:08:34.321831,7800,0.194765,-0.120630,-1.733442,0.001462,-0.007913,1.026789
2011-09-30T12:08:34.331831,7810,0.252169,-0.036824,-1.716294,0.002188,-0.006692,1.023842
2011-09-30T12:08:34.341831,7820,0.309572,0.046982,-1.699146,0.002913,-0.005470,1.020895
2011-09-30T12:08:34.351831,7830,0.366976,0.130788,-1.681998,0.003638,-0.004249,1.017949
2011-09-30T12:08:34.361831,7840,0.424380,0.214594,-1.664850,0.004363,-0.003028,1.015002
2011-09-30T12:08:34.371831,7850,0.481784,0.298400,-1.647703,0.005089,-0.001806,1.012056
2011-09-30T12:08:34.381831,7860,0.539187,0.382206,-1.630555,0.005814,-0.000585,1.009109
2011-09-30T12:08:34.391831,7870,0.596591,0.466011,-1.613407,0.006539,0.000636,1.006162
2011-09-30T12:08:34.401831,7880,0.653995,0.549817,-1.596259,0.007265,0.001858,1.003216
2011-09-30T12:08:34.411831,7890,0.646330,0.568334,-1.589820,0.006818,0.003318,1.000975
2011-09-30T12:08:34.421831,7900,0.632436,0.580601,-1.584406,0.006259,0.004801,0.998802
2011-09-30T12:08:34.431831,7910,0.618541,0.592867,-1.578992,0.005700,0.006284,0.996629
2011-09-30T12:08:34.441831,7920,0.604646,0.605133,-1.573579,0.005142,0.007767,0.994457
2011-09-30T12:08:34.451831,7930,0.590752,0.617399,-1.568165,0.004583,0.009250,0.992284
2011-09-30T12:08:34.461831,7940,0.576857,0.629665,-1.562751,0.004024,0.010734,0.990111
2011-09-30T12:08:34.471831,7950,0.562963,0.641932,-1.557338,0.003465,0.012217,0.987938
2011-09-30T12:08:34.481831,7960,0.549068,0.654198,-1.551924,0.002906,0.013700,0.985765
2011-09-30T12:08:34.491831,7970,0.535173,0.666464,-1.546510,0.002348,0.015183,0.983592
2011-09-30T12:08:34.501831,7980,0.521279,0.678730,-1.541096,0.001789,0.016666,0.981419
2011-09-30T12:08:34.511831,7990,0.507384,0.690996,-1.535683,0.001230,0.018149,0.979247
2011-09-30T12:08:34.521831,8000,0.501640,0.727553,-1.537658,0.000390,0.017371,0.980646
2011-09-30T12:08:34.531831,8010,0.496676,0.766433,-1.540339,-0.000476,0.016376,0.982388
2011-09-30T12:08:34.541831,8020,0.491711,0.805312,-1.543021,-0.001343,0.015381,0.984129
2011-09-30T12:08:34.551831,8030,0.486747,0.844192,-1.545703,-0.002209,0.014386,0.985871
2011-09-30T12:08:34.561831,8040,0.481782,0.883072,-1.548384,-0.003076,0.013392,0.987613
2011-09-30T12:08:34.571831,8050,0.476818,0.921951,-1.551066,-0.003943,0.012397,0.989354
2011-09-30T12:08:34.581831,8060,0.471853,0.960831,-1.553748,-0.004809,0.011402,0.991096
2011-09-30T12:08:34.591831,8070,0.466888,0.999711,-1.556429,-0.005676,0.010408,0.992837
2011-09-30T12:08:34.601831,8080,0.461924,1.038590,-1.559111,-0.006542,0.009413,0.994579
2011-09-30T12:08:34.611831,8090,0.456959,1.077470,-1.561793,-0.007409,0.008418,0.996320
2011-09-30T12:08:34.621831,8100,0.466908,1.034996,-1.548941,-0.007356,0.006969,0.994082
2011-09-30T12:08:34.631831,8110,0.478227,0.985042,-1.534660,-0.007218,0.005478,0.991478
2011-09-30T12:08:34.641831,8120,0.489547,0.935088,-1.520380,-0.007081,0.003986,0.988873
2011-09-30T12:08:34.651831,8130,0.500867,0.885134,-1.506100,-0.006943,0.002495,0.986269
2011-09-30T12:08:34.661831,8140,0.512186,0.835179,-1.491819,-0.006806,0.001004,0.983665
2011-09-30T12:08:34.671831,8150,0.523506,0.785225,-1.477539,-0.006668,-0.000487,0.981061
2011-09-30T12:08:34.681831,8160,0.534826,0.735271,-1.463259,-0.006531,-0.001978,0.978456
2011-09-30T12:08:34.691831,8170,0.546146,0.685317,-1.448978,-0.006393,-0.003469,0.975852
2011-09-30T12:08:34.701831,8180,0.557465,0.635363,-1.434698,-0.006256,-0.004960,0.973248
2011-09-30T12:08:34.711831,8190,0.568785,0.585409,-1.420417,-0.006119,-0.006452,0.970644
2011-09-30T12:08:34.721831,8200,0.580105,0.535454,-1.406137,-0.005981,-0.007943,0.968039
2011-09-30T12:08:34.731831,8210,0.585342,0.389307,-1.394042,-0.004678,-0.006537,0.968772
2011-09-30T12:08:34.741831,8220,0.590050,0.234774,-1.382138,-0.003273,-0.004880,0.969796
2011-09-30T12:08:34.751831,8230,0.594757,0.080242,-1.370234,-0.001868,-0.003222,0.970819
2011-09-30T12:08:34.761831,8240,0.599465,-0.074291,-1.358330,-0.000464,-0.001564,0.971843
2011-09-30T12:08:34.771831,8250,0.604172,-0.228823,-1.346425,0.000941,0.000094,0.972866
2011-09-30T12:08:34.781831,8260,0.608880,-0.383355,-1.334521,0.002346,0.001752,0.973890
2011-09-30T12:08:34.791831,8270,0.613587,-0.537888,-1.322617,0.003751,0.003410,0.974914
2011-09-30T12:08:34.801831,8280,0.618294,-0.692420,-1.310713,0.005156,0.005067,0.975937
2011-09-30T12:08:34.811831,8290,0.623002,-0.846953,-1.298809,0.006560,0.006725,0.976961
2011-09-30T12:08:34.821831,8300,0.627709,-1.001485,-1.286904,0.007965,0.008383,0.977984
2011-09-30T12:08:34.831831,8310,0.637988,-1.086400,-1.282655,0.009655,0.009234,0.979640
2011-09-30T12:08:34.841831,8320,0.648822,-1.164380,-1.279168,0.011372,0.010004,0.981359
2011-09-30T12:08:34.851831,8330,0.659656,-1.242359,-1.275681,0.013090,0.010774,0.983078
2011-09-30T12:08:34.861831,8340,0.670489,-1.320338,-1.272193,0.014808,0.011544,0.984797
2011-09-30T12:08:34.871831,8350,0.681323,-1.398318,-1.268706,0.016526,0.012314,0.986517
2011-09-30T12:08:34.881831,8360,0.692157,-1.476297,-1.265219,0.018243,0.013084,0.988236
2011-09-30T12:08:34.891831,8370,0.702991,-1.554276,-1.261732,0.019961,0.013855,0.989955
2011-09-30T12:08:34.901831,8380,0.713825,-1.632256,-1.258245,0.021679,0.014625,0.991674
2011-09-30T12:08:34.911831,8390,0.724658,-1.710235,-1.254758,0.023397,0.015395,0.993393
2011-09-30T12:08:34.921831,8400,0.735492,-1.788214,-1.251271,0.025114,0.016165,0.995112
2011-09-30T12:08:34.931831,8410,0.669379,-1.773611,-1.242323,0.026318,0.017127,0.999728
2011-09-30T12:08:34.941831,8420,0.596720,-1.751131,-1.232910,0.027477,0.018106,1.004591
2011-09-30T12:08:34.951831,8430,0.524061,-1.728652,-1.223498,0.028636,0.019084,1.009453
2011-09-30T12:08:34.961831,8440,0.451403,-1.706173,-1.214085,0.029795,0.020063,1.014316
2011-09-30T12:08:34.971831,8450,0.378744,-1.683694,-1.204673,0.030955,0.021041,1.019178
2011-09-30T12:08:34.981831,8460,0.306085,-1.661214,-1.195260,0.032114,0.022019,1.024041
2011-09-30T12:08:34.991831,8470,0.233427,-1.638735,-1.185848,0.033273,0.022998,1.028903
2011-09-30T12:08:35.001831,8480,0.160768,-1.616256,-1.176435,0.034433,0.023976,1.033766
2011-09-30T12:08:35.011831,8490,0.088109,-1.593777,-1.167022,0.035592,0.024955,1.038629
2011-09-30T12:08:35.021831,8500,0.015451,-1.571297,-1.157610,0.036751,0.025933,1.043491
2011-09-30T12:08:35.031831,8510,-0.057208,-1.548818,-1.148197,0.037911,0.026911,1.048354
2011-09-30T12:08:35.041831,8520,-0.067037,-1.474099,-1.122722,0.038330,0.026107,1.047156
2011-09-30T12:08:35.051831,8530,-0.070324,-1.393941,-1.095574,0.038671,0.025116,1.045326
2011-09-30T12:08:35.061831,8540,-0.073612,-1.313783,-1.068426,0.039013,0.024126,1.043497
2011-09-30T12:08:35.071831,8550,-0.076900,-1.233625,-1.041278,0.039355,0.023135,1.041668
2011-09-30T12:08:35.081831,8560,-0.080187,-1.153468,-1.014131,0.039697,0.022145,1.039839
2011-09-30T12:08:35.091831,8570,-0.083475,-1.073310,-0.986983,0.040039,0.021154,1.038010
2011-09-30T12:08:35.101831,8580,-0.086763,-0.993152,-0.959835,0.040381,0.020164,1.036180
2011-09-30T12:08:35.111831,8590,-0.090050,-0.912994,-0.932687,0.040723,0.019174,1.034351
2011-09-30T12:08:35.121831,8600,-0.093338,-0.832837,-0.905540,0.041064,0.018183,1.032522
2011-09-30T12:08:35.131831,8610,-0.096626,-0.752679,-0.878392,0.041406,0.017193,1.030693
2011-09-30T12:08:35.141831,8620,-0.090905,-0.659510,-0.828868,0.041609,0.018468,1.029789
2011-09-30T12:08:35.151831,8630,-0.084245,-0.564985,-0.777012,0.041798,0.019980,1.028981
2011-09-30T12:08:35.161831,8640,-0.077584,-0.470459,-0.725156,0.041987,0.021492,1.028174
2011-09-30T12:08:35.171831,8650,-0.070924,-0.375934,-0.673300,0.042176,0.023003,1.027366
2011-09-30T12:08:35.181831,8660,-0.064264,-0.281409,-0.621443,0.042364,0.024515,1.026559
2011-09-30T12:08:35.191831,8670,-0.057604,-0.186884,-0.569587,0.042553,0.026027,1.025751
2011-09-30T12:08:35.201831,8680,-0.050943,-0.092358,-0.517731,0.042742,0.027538,1.024943
2011-09-30T12:08:35.211831,8690,-0.044283,0.002167,-0.465875,0.042930,0.029050,1.024136
2011-09-30T12:08:35.221831,8700,-0.037623,0.096692,-0.414019,0.043119,0.030562,1.023328
2011-09-30T12:08:35.231831,8710,-0.030963,0.191218,-0.362162,0.043308,0.032073,1.022521
2011-09-30T12:08:35.241831,8720,-0.024302,0.285743,-0.310306,0.043496,0.033585,1.021713
2011-09-30T12:08:35.251831,8730,-0.035133,0.359958,-0.248700,0.043324,0.034151,1.019212
2011-09-30T12:08:35.261831,8740,-0.047568,0.432310,-0.186200,0.043117,0.034631,1.016556
2011-09-30T12:08:35.271831,8750,-0.060002,0.504662,-0.123700,0.042911,0.035110,1.013899
2011-09-30T12:08:35.281831,8760,-0.072437,0.577015,-0.061199,0.042705,0.035590,1.011243
2011-09-30T12:08:35.291831,8770,-0.084871,0.649367,0.001301,0.042499,0.036069,1.008587
2011-09-30T12:08:35.301831,8780,-0.097305,0.721720,0.063801,0.042293,0.036549,1.005930
2011-09-30T12:08:35.311831,8790,-0.109740,0.794072,0.126301,0.042087,0.037028,1.003274
2011-09-30T12:08:35.321831,8800,-0.122174,0.866425,0.188802,0.041881,0.037508,1.000617
2011-09-30T12:08:35.331831,8810,-0.134609,0.938777,0.251302,0.041675,0.037987,0.997961
2011-09-30T12:08:35.341831,8820,-0.147043,1.011129,0.313802,0.041469,0.038467,0.995305
2011-09-30T12:08:35.351831,8830,-0.114837,1.013524,0.352169,0.042012,0.039809,0.992737
2011-09-30T12:08:35.361831,8840,-0.078665,1.009704,0.388392,0.042622,0.041228,0.990177
2011-09-30T12:08:35.371831,8850,-0.042492,1.005884,0.424615,0.043232,0.042647,0.987617
2011-09-30T12:08:35.381831,8860,-0.006320,1.002063,0.460838,0.043842,0.044065,0.985057
2011-09-30T12:08:35.391831,8870,0.029852,0.998243,0.497061,0.044452,0.045484,0.982497
2011-09-30T12:08:35.401831,8880,0.066024,0.994423,0.533284,0.045062,0.046903,0.979937
2011-09-30T12:08:35.411831,8890,0.102196,0.990603,0.569507,0.045672,0.048322,0.977377
2011-09-30T12:08:35.421831,8900,0.138369,0.986782,0.605730,0.046281,0.049741,0.974817
2011-09-30T12:08:35.431831,8910,0.174541,0.982962,0.641954,0.046891,0.051159,0.972257
2011-09-30T12:08:35.441831,8920,0.210713,0.979142,0.678177,0.047501,0.052578,0.969697
2011-09-30T12:08:35.451831,8930,0.189360,0.934431,0.713375,0.047881,0.053483,0.970682
2011-09-30T12:08:35.461831,8940,0.162380,0.885721,0.748474,0.048238,0.054337,0.972015
2011-09-30T12:08:35.471831,8950,0.135399,0.837010,0.783572,0.048595,0.055191,0.973348
2011-09-30T12:08:35.481831,8960,0.108419,0.788300,0.818671,0.048952,0.056045,0.974681
2011-09-30T12:08:35.491831,8970,0.081438,0.739589,0.853769,0.049309,0.056899,0.976013
2011-09-30T12:08:35.501831,8980,0.054458,0.690878,0.888868,0.049666,0.057753,0.977346
2011-09-30T12:08:35.511831,8990,0.027477,0.642168,0.923966,0.050023,0.058607,0.978679
2011-09-30T12:08:35.521831,9000,0.000497,0.593457,0.959065,0.050380,0.059461,0.980012
2011-09-30T12:08:35.531831,9010,-0.026483,0.544747,0.994163,0.050737,0.060316,0.981344
2011-09-30T12:08:35.541831,9020,-0.053464,0.496036,1.029262,0.051094,0.061170,0.982677
2011-09-30T12:08:35.551831,9030,-0.080444,0.447325,1.064360,0.051451,0.062024,0.984010
2011-09-30T12:08:35.561831,9040,-0.095790,0.429947,1.091329,0.050314,0.062156,0.983566
2011-09-30T12:08:35.571831,9050,-0.110105,0.415341,1.117579,0.049046,0.062224,0.982964
2011-09-30T12:08:35.581831,9060,-0.124421,0.400735,1.143828,0.047777,0.062292,0.982363
2011-09-30T12:08:35.591831,9070,-0.138737,0.386130,1.170078,0.046508,0.062360,0.981761
2011-09-30T12:08:35.601831,9080,-0.153053,0.371524,1.196327,0.045240,0.062429,0.981159
2011-09-30T12:08:35.611831,9090,-0.167368,0.356918,1.222577,0.043971,0.062497,0.980558
2011-09-30T12:08:35.621831,9100,-0.181684,0.342312,1.248826,0.042702,0.062565,0.979956
2011-09-30T12:08:35.631831,9110,-0.196000,0.327706,1.275075,0.041434,0.062633,0.979355
2011-09-30T12:08:35.641831,9120,-0.210316,0.313101,1.301325,0.040165,0.062701,0.978753
2011-09-30T12:08:35.651831,9130,-0.224631,0.298495,1.327574,0.038896,0.062769,0.978151
2011-09-30T12:08:35.661831,9140,-0.222276,0.272202,1.357647,0.037828,0.064111,0.979200
2011-09-30T12:08:35.671831,9150,-0.218532,0.244935,1.388037,0.036777,0.065558,0.980387
2011-09-30T12:08:35.681831,9160,-0.214787,0.217669,1.418428,0.035726,0.067005,0.981573
2011-09-30T12:08:35.691831,9170,-0.211043,0.190402,1.448819,0.034675,0.068453,0.982759
2011-09-30T12:08:35.701831,9180,-0.207299,0.163135,1.479210,0.033624,0.069900,0.983946
2011-09-30T12:08:35.711831,9190,-0.203554,0.135869,1.509600,0.032573,0.071348,0.985132
2011-09-30T12:08:35.721831,9200,-0.199810,0.108602,1.539991,0.031522,0.072795,0.986318
2011-09-30T12:08:35.731831,9210,-0.196066,0.081335,1.570382,0.030471,0.074243,0.987505
2011-09-30T12:08:35.741831,9220,-0.192321,0.054069,1.600772,0.029420,0.075690,0.988691
2011-09-30T12:08:35.751831,9230,-0.188577,0.026802,1.631163,0.028369,0.077137,0.989877
2011-09-30T12:08:35.761831,9240,-0.184833,-0.000465,1.661554,0.027317,0.078585,0.991064
2011-09-30T12:08:35.771831,9250,-0.228759,-0.008517,1.696876,0.027033,0.078644,0.991978
2011-09-30T12:08:35.781831,9260,-0.276846,-0.014892,1.732628,0.026815,0.078582,0.992869
2011-09-30T12:08:35.791831,9270,-0.324934,-0.021267,1.768380,0.026597,0.078519,0.993759
2011-09-30T12:08:35.801831,9280,-0.373022,-0.027642,1.804132,0.026379,0.078457,0.994650
2011-09-30T12:08:35.811831,9290,-0.421110,-0.034016,1.839884,0.026162,0.078395,0.995541
2011-09-30T12:08:35.821831,9300,-0.469198,-0.040391,1.875637,0.025944,0.078333,0.996431
2011-09-30T12:08:35.831831,9310,-0.517286,-0.046766,1.911389,0.025726,0.078271,0.997322
2011-09-30T12:08:35.841831,9320,-0.565374,-0.053141,1.947141,0.025508,0.078208,0.998213
2011-09-30T12:08:35.851831,9330,-0.613462,-0.059516,1.982893,0.025290,0.078146,0.999104
2011-09-30T12:08:35.861831,9340,-0.661550,-0.065890,2.018645,0.025073,0.078084,0.999994
2011-09-30T12:08:35.871831,9350,-0.624355,-0.046935,2.031770,0.024705,0.078495,1.001118
2011-09-30T12:08:35.881831,9360,-0.579503,-0.025704,2.042863,0.024325,0.078949,1.002262
2011-09-30T12:08:35.891831,9370,-0.534651,-0.004473,2.053956,0.023944,0.079403,1.003406
2011-09-30T12:08:35.901831,9380,-0.489798,0.016757,2.065048,0.023564,0.079856,1.004550
2011-09-30T12:08:35.911831,9390,-0.444946,0.037988,2.076141,0.023183,0.080310,1.005694
2011-09-30T12:08:35.921831,9400,-0.400093,0.059218,2.087234,0.022803,0.080764,1.006839
2011-09-30T12:08:35.931831,9410,-0.355241,0.080449,2.098327,0.022422,0.081217,1.007983
2011-09-30T12:08:35.941831,9420,-0.310389,0.101679,2.109420,0.022041,0.081671,1.009127
2011-09-30T12:08:35.951831,9430,-0.265536,0.122910,2.120513,0.021661,0.082125,1.010271
2011-09-30T12:08:35.961831,9440,-0.220684,0.144140,2.131605,0.021280,0.082578,1.011415
2011-09-30T12:08:35.971831,9450,-0.218074,0.180231,2.136813,0.020903,0.082274,1.010920
2011-09-30T12:08:35.981831,9460,-0.220110,0.217956,2.141374,0.020527,0.081887,1.010244
2011-09-30T12:08:35.991831,9470,-0.222147,0.255682,2.145935,0.020150,0.081500,1.009568
2011-09-30T12:08:36.001831,9480,-0.224183,0.293407,2.150496,0.019773,0.081112,1.008892
2011-09-30T12:08:36.011831,9490,-0.226220,0.331132,2.155057,0.019397,0.080725,1.008216
2011-09-30T12:08:36.021831,9500,-0.228256,0.368858,2.159618,0.019020,0.080337,1.007540
2011-09-30T12:08:36.031831,9510,-0.230292,0.406583,2.164178,0.018643,0.079950,1.006864
2011-09-30T12:08:36.041831,9520,-0.232329,0.444308,2.168739,0.018267,0.079563,1.006188
2011-09-30T12:08:36.051831,9530,-0.234365,0.482034,2.173300,0.017890,0.079175,1.005513
2011-09-30T12:08:36.061831,9540,-0.236402,0.519759,2.177861,0.017513,0.078788,1.004837
2011-09-30T12:08:36.071831,9550,-0.238438,0.557484,2.182422,0.017137,0.078401,1.004161
2011-09-30T12:08:36.081831,9560,-0.233353,0.545300,2.201168,0.016921,0.078699,1.003298
2011-09-30T12:08:36.091831,9570,-0.227625,0.528605,2.221197,0.016720,0.079059,1.002418
2011-09-30T12:08:36.101831,9580,-0.221897,0.511910,2.241226,0.016519,0.079419,1.001538
2011-09-30T12:08:36.111831,9590,-0.216168,0.495215,2.261255,0.016318,0.079780,1.000658
2011-09-30T12:08:36.121831,9600,-0.210440,0.478520,2.281284,0.016117,0.080140,0.999778
2011-09-30T12:08:36.131831,9610,-0.204711,0.461825,2.301313,0.015916,0.080500,0.998898
2011-09-30T12:08:36.141831,9620,-0.198983,0.445130,2.321342,0.015714,0.080861,0.998018
2011-09-30T12:08:36.151831,9630,-0.193255,0.428435,2.341371,0.015513,0.081221,0.997138
2011-09-30T12:08:36.161831,9640,-0.187526,0.411740,2.361400,0.015312,0.081581,0.996258
2011-09-30T12:08:36.171831,9650,-0.181798,0.395045,2.381429,0.015111,0.081942,0.995378
2011-09-30T12:08:36.181831,9660,-0.179875,0.386734,2.389851,0.014810,0.082008,0.993433
2011-09-30T12:08:36.191831,9670,-0.178272,0.379127,2.397298,0.014500,0.082049,0.991398
2011-09-30T12:08:36.201831,9680,-0.176668,0.371520,2.404745,0.014190,0.082091,0.989364
2011-09-30T12:08:36.211831,9690,-0.175065,0.363913,2.412192,0.013880,0.082132,0.987330
2011-09-30T12:08:36.221831,9700,-0.173462,0.356306,2.419639,0.013570,0.082174,0.985296
2011-09-30T12:08:36.231831,9710,-0.171859,0.348698,2.427086,0.013260,0.082215,0.983261
2011-09-30T12:08:36.241831,9720,-0.170255,0.341091,2.434533,0.012950,0.082257,0.981227
2011-09-30T12:08:36.251831,9730,-0.168652,0.333484,2.441980,0.012640,0.082298,0.979193
2011-09-30T12:08:36.261831,9740,-0.167049,0.325877,2.449426,0.012330,0.082339,0.977159
2011-09-30T12:08:36.271831,9750,-0.165445,0.318270,2.456873,0.012020,0.082381,0.975124
2011-09-30T12:08:36.281831,9760,-0.163842,0.310663,2.464320,0.011710,0.082422,0.973090
2011-09-30T12:08:36.291831,9770,-0.172853,0.296647,2.478432,0.011633,0.084390,0.975176
2011-09-30T12:08:36.301831,9780,-0.182729,0.282109,2.493087,0.011576,0.086515,0.977599
2011-09-30T12:08:36.311831,9790,-0.192605,0.267571,2.507742,0.011518,0.088640,0.980021
2011-09-30T12:08:36.321831,9800,-0.202480,0.253033,2.522397,0.011460,0.090765,0.982444
2011-09-30T12:08:36.331831,9810,-0.212356,0.238495,2.537052,0.011403,0.092890,0.984866
2011-09-30T12:08:36.341831,9820,-0.222232,0.223957,2.551707,0.011345,0.095014,0.987288
2011-09-30T12:08:36.351831,9830,-0.232108,0.209419,2.566361,0.011288,0.097139,0.989711
2011-09-30T12:08:36.361831,9840,-0.241984,0.194880,2.581016,0.011230,0.099264,0.992133
2011-09-30T12:08:36.371831,9850,-0.251860,0.180342,2.595671,0.011173,0.101389,0.994555
2011-09-30T12:08:36.381831,9860,-0.261736,0.165804,2.610326,0.011115,0.103514,0.996978
2011-09-30T12:08:36.391831,9870,-0.278424,0.157187,2.621156,0.011000,0.103208,0.995975
2011-09-30T12:08:36.401831,9880,-0.295741,0.149117,2.631631,0.010880,0.102678,0.994655
2011-09-30T12:08:36.411831,9890,-0.313058,0.141047,2.642107,0.010759,0.102148,0.993335
2011-09-30T12:08:36.421831,9900,-0.330375,0.132977,2.652583,0.010639,0.101618,0.992016
2011-09-30T12:08:36.431831,9910,-0.347692,0.124907,2.663058,0.010519,0.101088,0.990696
2011-09-30T12:08:36.441831,9920,-0.365010,0.116837,2.673534,0.010398,0.100558,0.989377
2011-09-30T12:08:36.451831,9930,-0.382327,0.108767,2.684010,0.010278,0.100028,0.988057
2011-09-30T12:08:36.461831,9940,-0.399644,0.100697,2.694485,0.010158,0.099498,0.986737
2011-09-30T12:08:36.471831,9950,-0.416961,0.092627,2.704961,0.010037,0.098968,0.985418
2011-09-30T12:08:36.481831,9960,-0.434278,0.084557,2.715437,0.009917,0.098437,0.984098
2011-09-30T12:08:36.491831,9970,-0.423996,0.078991,2.717191,0.009921,0.098421,0.986230
2011-09-30T12:08:36.501831,9980,-0.410868,0.073683,2.718045,0.009938,0.098457,0.988718
2011-09-30T12:08:36.511831,9990,-0.397740,0.068374,2.718900,0.009954,0.098493,0.991206
2011-09-30T12:08:36.521831,10000,-0.384612,0.063066,2.719755,0.009971,0.098529,0.993695
2011-09-30T12:08:36.531831,10010,-0.371484,0.057758,2.720609,0.009987,0.098565,0.996183
2011-09-30T12:08:36.541831,10020,-0.358356,0.052450,2.721464,0.010004,0.098602,0.998671
2011-09-30T12:08:36.551831,10030,-0.345228,0.047141,2.722319,0.010021,0.098638,1.001159
2011-09-30T12:08:36.561831,10040,-0.332100,0.041833,2.723173,0.010037,0.098674,1.003647
2011-09-30T12:08:36.571831,10050,-0.318972,0.036525,2.724028,0.010054,0.098710,1.006135
2011-09-30T12:08:36.581831,10060,-0.305844,0.031217,2.724882,0.010070,0.098746,1.008624
2011-09-30T12:08:36.591831,10070,-0.292716,0.025909,2.725737,0.010087,0.098782,1.011112
2011-09-30T12:08:36.601831,10080,-0.309720,0.004796,2.713609,0.010835,0.099310,1.009751
2011-09-30T12:08:36.611831,10090,-0.329329,-0.017684,2.700359,0.011646,0.099880,1.008057
2011-09-30T12:08:36.621831,10100,-0.348939,-0.040164,2.687109,0.012457,0.100451,1.006364
2011-09-30T12:08:36.631831,10110,-0.368548,-0.062644,2.673858,0.013268,0.101021,1.004670
2011-09-30T12:08:36.641831,10120,-0.388158,-0.085123,2.660608,0.014080,0.101591,1.002976
2011-09-30T12:08:36.651831,10130,-0.407767,-0.107603,2.647358,0.014891,0.102161,1.001283
2011-09-30T12:08:36.661831,10140,-0.427377,-0.130083,2.634107,0.015702,0.102731,0.999589
2011-09-30T12:08:36.671831,10150,-0.446986,-0.152563,2.620857,0.016513,0.103302,0.997895
2011-09-30T12:08:36.681831,10160,-0.466596,-0.175042,2.607607,0.017324,0.103872,0.996202
2011-09-30T12:08:36.691831,10170,-0.486206,-0.197522,2.594356,0.018135,0.104442,0.994508
2011-09-30T12:08:36.701831,10180,-0.529323,-0.189965,2.545865,0.018358,0.103362,0.994728
2011-09-30T12:08:36.711831,10190,-0.574409,-0.179892,2.494422,0.018532,0.102143,0.995108
2011-09-30T12:08:36.721831,10200,-0.619496,-0.169820,2.442979,0.018705,0.100925,0.995488
2011-09-30T12:08:36.731831,10210,-0.664582,-0.159747,2.391535,0.018879,0.099706,0.995868
2011-09-30T12:08:36.741831,10220,-0.709669,-0.149674,2.340092,0.019052,0.098487,0.996248
2011-09-30T12:08:36.751831,10230,-0.754755,-0.139601,2.288649,0.019226,0.097269,0.996628
2011-09-30T12:08:36.761831,10240,-0.799841,-0.129528,2.237205,0.019399,0.096050,0.997008
2011-09-30T12:08:36.771831,10250,-0.844928,-0.119455,2.185762,0.019573,0.094832,0.997388
2011-09-30T12:08:36.781831,10260,-0.890014,-0.109382,2.134319,0.019746,0.093613,0.997768
2011-09-30T12:08:36.791831,10270,-0.935101,-0.099309,2.082875,0.019920,0.092395,0.998148
2011-09-30T12:08:36.801831,10280,-0.980187,-0.089236,2.031432,0.020093,0.091176,0.998528
2011-09-30T12:08:36.811831,10290,-0.997141,-0.074492,1.959429,0.019995,0.089321,0.999207
2011-09-30T12:08:36.821831,10300,-1.011693,-0.059349,1.885673,0.019873,0.087411,0.999913
2011-09-30T12:08:36.831831,10310,-1.026246,-0.044206,1.811916,0.019751,0.085502,1.000619
2011-09-30T12:08:36.841831,10320,-1.040799,-0.029063,1.738160,0.019629,0.083592,1.001324
2011-09-30T12:08:36.851831,10330,-1.055352,-0.013920,1.664403,0.019507,0.081683,1.002030
2011-09-30T12:08:36.861831,10340,-1.069905,0.001223,1.590646,0.019385,0.079773,1.002735
2011-09-30T12:08:36.871831,10350,-1.084458,0.016366,1.516890,0.019264,0.077864,1.003441
2011-09-30T12:08:36.881831,10360,-1.099011,0.031509,1.443133,0.019142,0.075954,1.004146
2011-09-30T12:08:36.891831,10370,-1.113564,0.046652,1.369377,0.019020,0.074045,1.004852
2011-09-30T12:08:36.901831,10380,-1.128117,0.061795,1.295620,0.018898,0.072135,1.005557
2011-09-30T12:08:36.911831,10390,-1.083692,0.037354,1.232515,0.018706,0.069635,1.004770
2011-09-30T12:08:36.921831,10400,-1.034207,0.009517,1.170324,0.018507,0.067084,1.003854
2011-09-30T12:08:36.931831,10410,-0.984723,-0.018319,1.108132,0.018309,0.064533,1.002938
2011-09-30T12:08:36.941831,10420,-0.935238,-0.046156,1.045941,0.018110,0.061983,1.002023
2011-09-30T12:08:36.951831,10430,-0.885754,-0.073993,0.983750,0.017912,0.059432,1.001107
2011-09-30T12:08:36.961831,10440,-0.836269,-0.101829,0.921558,0.017714,0.056881,1.000192
2011-09-30T12:08:36.971831,10450,-0.786785,-0.129666,0.859367,0.017515,0.054330,0.999276
2011-09-30T12:08:36.981831,10460,-0.737300,-0.157502,0.797176,0.017317,0.051780,0.998361
2011-09-30T12:08:36.991831,10470,-0.687816,-0.185339,0.734984,0.017118,0.049229,0.997445
2011-09-30T12:08:37.001831,10480,-0.638331,-0.213176,0.672793,0.016920,0.046678,0.996529
2011-09-30T12:08:37.011831,10490,-0.678165,-0.172032,0.655834,0.016803,0.046534,0.996014
2011-09-30T12:08:37.021831,10500,-0.728713,-0.122613,0.644300,0.016695,0.046678,0.995546
2011-09-30T12:08:37.031831,10510,-0.779262,-0.073195,0.632766,0.016587,0.046822,0.995078
2011-09-30T12:08:37.041831,10520,-0.829810,-0.023777,0.621232,0.016479,0.046967,0.994611
2011-09-30T12:08:37.051831,10530,-0.880358,0.025641,0.609698,0.016371,0.047111,0.994143
2011-09-30T12:08:37.061831,10540,-0.930906,0.075060,0.598164,0.016263,0.047255,0.993675
2011-09-30T12:08:37.071831,10550,-0.981454,0.124478,0.586630,0.016155,0.047400,0.993207
2011-09-30T12:08:37.081831,10560,-1.032002,0.173896,0.575096,0.016047,0.047544,0.992740
2011-09-30T12:08:37.091831,10570,-1.082550,0.223314,0.563562,0.015939,0.047688,0.992272
2011-09-30T12:08:37.101831,10580,-1.133098,0.272733,0.552028,0.015831,0.047832,0.991804
2011-09-30T12:08:37.111831,10590,-1.183646,0.322151,0.540495,0.015723,0.047977,0.991337
2011-09-30T12:08:37.121831,10600,-1.144639,0.383229,0.535747,0.015282,0.047907,0.991699
2011-09-30T12:08:37.131831,10610,-1.097909,0.445313,0.531584,0.014812,0.047818,0.992133
2011-09-30T12:08:37.141831,10620,-1.051179,0.507397,0.527422,0.014342,0.047730,0.992567
2011-09-30T12:08:37.151831,10630,-1.004449,0.569481,0.523260,0.013872,0.047641,0.993000
2011-09-30T12:08:37.161831,10640,-0.957719,0.631565,0.519097,0.013401,0.047553,0.993434
2011-09-30T12:08:37.171831,10650,-0.910989,0.693649,0.514935,0.012931,0.047464,0.993868
2011-09-30T12:08:37.181831,10660,-0.864259,0.755732,0.510772,0.012461,0.047376,0.994302
2011-09-30T12:08:37.191831,10670,-0.817529,0.817816,0.506610,0.011991,0.047287,0.994736
2011-09-30T12:08:37.201831,10680,-0.770799,0.879900,0.502447,0.011521,0.047199,0.995170
2011-09-30T12:08:37.211831,10690,-0.724068,0.941984,0.498285,0.011051,0.047110,0.995604
2011-09-30T12:08:37.221831,10700,-0.670987,0.882052,0.485593,0.011776,0.045016,0.994889
2011-09-30T12:08:37.231831,10710,-0.617381,0.812042,0.472197,0.012599,0.042756,0.994080
2011-09-30T12:08:37.241831,10720,-0.563776,0.742032,0.458800,0.013423,0.040496,0.993271
2011-09-30T12:08:37.251831,10730,-0.510170,0.672022,0.445404,0.014246,0.038237,0.992462
2011-09-30T12:08:37.261831,10740,-0.456564,0.602012,0.432008,0.015070,0.035977,0.991653
2011-09-30T12:08:37.271831,10750,-0.402958,0.532002,0.418611,0.015894,0.033717,0.990844
2011-09-30T12:08:37.281831,10760,-0.349352,0.461991,0.405215,0.016717,0.031457,0.990035
2011-09-30T12:08:37.291831,10770,-0.295746,0.391981,0.391819,0.017541,0.029197,0.989226
2011-09-30T12:08:37.301831,10780,-0.242141,0.321971,0.378422,0.018364,0.026937,0.988416
2011-09-30T12:08:37.311831,10790,-0.188535,0.251961,0.365026,0.019188,0.024677,0.987607
2011-09-30T12:08:37.321831,10800,-0.134929,0.181951,0.351630,0.020012,0.022417,0.986798
2011-09-30T12:08:37.331831,10810,-0.270404,0.235190,0.361065,0.020517,0.024985,0.987759
2011-09-30T12:08:37.341831,10820,-0.420941,0.298246,0.372319,0.020998,0.027937,0.988860
2011-09-30T12:08:37.351831,10830,-0.571478,0.361301,0.383573,0.021479,0.030890,0.989961
2011-09-30T12:08:37.361831,10840,-0.722014,0.424357,0.394828,0.021960,0.033842,0.991062
2011-09-30T12:08:37.371831,10850,-0.872551,0.487413,0.406082,0.022440,0.036795,0.992163
2011-09-30T12:08:37.381831,10860,-1.023087,0.550469,0.417336,0.022921,0.039747,0.993265
2011-09-30T12:08:37.391831,10870,-1.173624,0.613525,0.428590,0.023402,0.042699,0.994366
2011-09-30T12:08:37.401831,10880,-1.324161,0.676581,0.439845,0.023882,0.045652,0.995467
2011-09-30T12:08:37.411831,10890,-1.474697,0.739637,0.451099,0.024363,0.048604,0.996568
2011-09-30T12:08:37.421831,10900,-1.625234,0.802693,0.462353,0.024844,0.051557,0.997670
2011-09-30T12:08:37.431831,10910,-1.550618,0.861328,0.457055,0.024064,0.047638,1.000378
2011-09-30T12:08:37.441831,10920,-1.457064,0.919591,0.450365,0.023178,0.043141,1.003221
2011-09-30T12:08:37.451831,10930,-1.363510,0.977854,0.443675,0.022292,0.038644,1.006065
2011-09-30T12:08:37.461831,10940,-1.269956,1.036117,0.436984,0.021407,0.034147,1.008908
2011-09-30T12:08:37.471831,10950,-1.176401,1.094381,0.430294,0.020521,0.029650,1.011752
2011-09-30T12:08:37.481831,10960,-1.082847,1.152644,0.423604,0.019635,0.025153,1.014595
2011-09-30T12:08:37.491831,10970,-0.989293,1.210907,0.416914,0.018750,0.020656,1.017438
2011-09-30T12:08:37.501831,10980,-0.895739,1.269170,0.410223,0.017864,0.016159,1.020282
2011-09-30T12:08:37.511831,10990,-0.802184,1.327433,0.403533,0.016978,0.011662,1.023125
2011-09-30T12:08:37.521831,11000,-0.708630,1.385696,0.396843,0.016093,0.007165,1.025969
2011-09-30T12:08:37.531831,11010,-0.602522,1.252278,0.391068,0.014745,0.008078,1.018251
2011-09-30T12:08:37.541831,11020,-0.495340,1.102466,0.385372,0.013358,0.009454,1.009631
2011-09-30T12:08:37.551831,11030,-0.388157,0.952655,0.379676,0.011971,0.010831,1.001011
2011-09-30T12:08:37.561831,11040,-0.280975,0.802843,0.373979,0.010584,0.012207,0.992390
2011-09-30T12:08:37.571831,11050,-0.173793,0.653032,0.368283,0.009197,0.013583,0.983770
2011-09-30T12:08:37.581831,11060,-0.066611,0.503220,0.362587,0.007810,0.014959,0.975149
2011-09-30T12:08:37.591831,11070,0.040571,0.353409,0.356890,0.006423,0.016335,0.966529
2011-09-30T12:08:37.601831,11080,0.147753,0.203598,0.351194,0.005036,0.017711,0.957908
2011-09-30T12:08:37.611831,11090,0.254935,0.053786,0.345498,0.003649,0.019087,0.949288
2011-09-30T12:08:37.621831,11100,0.362118,-0.096025,0.339801,0.002262,0.020463,0.940668
2011-09-30T12:08:37.631831,11110,0.469300,-0.245837,0.334105,0.000876,0.021839,0.932047
2011-09-30T12:08:37.641831,11120,0.428126,-0.309005,0.334407,0.001980,0.022225,0.938703
2011-09-30T12:08:37.651831,11130,0.373506,-0.364321,0.335254,0.003311,0.022520,0.946743
2011-09-30T12:08:37.661831,11140,0.318886,-0.419636,0.336100,0.004641,0.022816,0.954784
2011-09-30T12:08:37.671831,11150,0.264266,-0.474951,0.336946,0.005971,0.023112,0.962824
2011-09-30T12:08:37.681831,11160,0.209645,-0.530267,0.337792,0.007302,0.023408,0.970864
2011-09-30T12:08:37.691831,11170,0.155025,-0.585582,0.338638,0.008632,0.023703,0.978905
2011-09-30T12:08:37.701831,11180,0.100405,-0.640897,0.339484,0.009963,0.023999,0.986945
2011-09-30T12:08:37.711831,11190,0.045785,-0.696213,0.340330,0.011293,0.024295,0.994985
2011-09-30T12:08:37.721831,11200,-0.008835,-0.751528,0.341176,0.012623,0.024590,1.003026
2011-09-30T12:08:37.731831,11210,-0.063455,-0.806843,0.342022,0.013954,0.024886,1.011066
2011-09-30T12:08:37.741831,11220,0.076083,-0.713976,0.347307,0.014243,0.022873,1.015997
2011-09-30T12:08:37.751831,11230,0.235011,-0.606311,0.353035,0.014428,0.020629,1.020618
2011-09-30T12:08:37.761831,11240,0.393939,-0.498646,0.358763,0.014614,0.018386,1.025239
2011-09-30T12:08:37.771831,11250,0.552866,-0.390982,0.364491,0.014799,0.016142,1.029860
2011-09-30T12:08:37.781831,11260,0.711794,-0.283317,0.370219,0.014984,0.013898,1.034480
2011-09-30T12:08:37.791831,11270,0.870722,-0.175652,0.375946,0.015169,0.011655,1.039101
2011-09-30T12:08:37.801831,11280,1.029650,-0.067987,0.381674,0.015354,0.009411,1.043722
2011-09-30T12:08:37.811831,11290,1.188578,0.039678,0.387402,0.015540,0.007167,1.048342
2011-09-30T12:08:37.821831,11300,1.347505,0.147343,0.393130,0.015725,0.004923,1.052963
2011-09-30T12:08:37.831831,11310,1.506433,0.255008,0.398858,0.015910,0.002680,1.057584
2011-09-30T12:08:37.841831,11320,1.665361,0.362673,0.404586,0.016095,0.000436,1.062205
2011-09-30T12:08:37.851831,11330,1.634433,0.393937,0.413311,0.015653,0.004689,1.052902
2011-09-30T12:08:37.861831,11340,1.587667,0.418828,0.422286,0.015159,0.009485,1.042437
2011-09-30T12:08:37.871831,11350,1.540900,0.443718,0.431261,0.014664,0.014280,1.031972
2011-09-30T12:08:37.881831,11360,1.494134,0.468609,0.440236,0.014170,0.019076,1.021507
2011-09-30T12:08:37.891831,11370,1.447367,0.493499,0.449211,0.013676,0.023871,1.011043
2011-09-30T12:08:37.901831,11380,1.400601,0.518389,0.458186,0.013181,0.028666,1.000578
2011-09-30T12:08:37.911831,11390,1.353834,0.543280,0.467161,0.012687,0.033462,0.990113
2011-09-30T12:08:37.921831,11400,1.307068,0.568170,0.476136,0.012192,0.038257,0.979648
2011-09-30T12:08:37.931831,11410,1.260301,0.593060,0.485111,0.011698,0.043053,0.969184
2011-09-30T12:08:37.941831,11420,1.213535,0.617951,0.494086,0.011203,0.047848,0.958719
2011-09-30T12:08:37.951831,11430,1.248143,0.644056,0.468189,0.010443,0.047171,0.962493
2011-09-30T12:08:37.961831,11440,1.290615,0.670278,0.438924,0.009656,0.045965,0.967642
2011-09-30T12:08:37.971831,11450,1.333087,0.696500,0.409658,0.008869,0.044758,0.972792
2011-09-30T12:08:37.981831,11460,1.375559,0.722722,0.380392,0.008083,0.043552,0.977942
2011-09-30T12:08:37.991831,11470,1.418030,0.748944,0.351126,0.007296,0.042346,0.983092
2011-09-30T12:08:38.001831,11480,1.460502,0.775166,0.321860,0.006510,0.041140,0.988242
2011-09-30T12:08:38.011831,11490,1.502974,0.801389,0.292595,0.005723,0.039934,0.993391
2011-09-30T12:08:38.021831,11500,1.545445,0.827611,0.263329,0.004937,0.038728,0.998541
2011-09-30T12:08:38.031831,11510,1.587917,0.853833,0.234063,0.004150,0.037522,1.003691
2011-09-30T12:08:38.041831,11520,1.630389,0.880055,0.204797,0.003363,0.036316,1.008841
2011-09-30T12:08:38.051831,11530,1.583742,0.876170,0.203900,0.003063,0.036265,1.005228
2011-09-30T12:08:38.061831,11540,1.529453,0.869704,0.205436,0.002803,0.036313,1.000864
2011-09-30T12:08:38.071831,11550,1.475165,0.863238,0.206972,0.002544,0.036361,0.996500
2011-09-30T12:08:38.081831,11560,1.420876,0.856771,0.208508,0.002285,0.036409,0.992136
2011-09-30T12:08:38.091831,11570,1.366587,0.850305,0.210043,0.002025,0.036457,0.987771
2011-09-30T12:08:38.101831,11580,1.312298,0.843838,0.211579,0.001766,0.036505,0.983407
2011-09-30T12:08:38.111831,11590,1.258010,0.837372,0.213115,0.001507,0.036554,0.979043
2011-09-30T12:08:38.121831,11600,1.203721,0.830906,0.214651,0.001248,0.036602,0.974679
2011-09-30T12:08:38.131831,11610,1.149432,0.824439,0.216186,0.000988,0.036650,0.970315
2011-09-30T12:08:38.141831,11620,1.095143,0.817973,0.217722,0.000729,0.036698,0.965951
2011-09-30T12:08:38.151831,11630,1.040854,0.811506,0.219258,0.000470,0.036746,0.961587
2011-09-30T12:08:38.161831,11640,1.140959,0.675157,0.194924,0.001147,0.035642,0.962746
2011-09-30T12:08:38.171831,11650,1.254196,0.527759,0.168390,0.001904,0.034440,0.964375
2011-09-30T12:08:38.181831,11660,1.367433,0.380361,0.141856,0.002661,0.033238,0.966004
2011-09-30T12:08:38.191831,11670,1.480670,0.232964,0.115322,0.003418,0.032036,0.967633
2011-09-30T12:08:38.201831,11680,1.593908,0.085566,0.088788,0.004175,0.030835,0.969261
2011-09-30T12:08:38.211831,11690,1.707145,-0.061832,0.062254,0.004932,0.029633,0.970890
2011-09-30T12:08:38.221831,11700,1.820382,-0.209230,0.035720,0.005689,0.028431,0.972519
2011-09-30T12:08:38.231831,11710,1.933619,-0.356627,0.009186,0.006446,0.027229,0.974148
2011-09-30T12:08:38.241831,11720,2.046857,-0.504025,-0.017349,0.007203,0.026027,0.975777
2011-09-30T12:08:38.251831,11730,2.160094,-0.651423,-0.043883,0.007960,0.024825,0.977406
2011-09-30T12:08:38.261831,11740,2.122133,-0.673315,-0.043787,0.009007,0.025489,0.982272
2011-09-30T12:08:38.271831,11750,2.071758,-0.684903,-0.041505,0.010077,0.026308,0.987404
2011-09-30T12:08:38.281831,11760,2.021382,-0.696491,-0.039223,0.011147,0.027126,0.992537
2011-09-30T12:08:38.291831,11770,1.971007,-0.708078,-0.036941,0.012218,0.027944,0.997669
2011-09-30T12:08:38.301831,11780,1.920631,-0.719666,-0.034659,0.013288,0.028762,1.002801
2011-09-30T12:08:38.311831,11790,1.870256,-0.731253,-0.032377,0.014358,0.029580,1.007933
2011-09-30T12:08:38.321831,11800,1.819881,-0.742841,-0.030095,0.015429,0.030398,1.013065
2011-09-30T12:08:38.331831,11810,1.769505,-0.754428,-0.027813,0.016499,0.031216,1.018197
2011-09-30T12:08:38.341831,11820,1.719130,-0.766016,-0.025531,0.017569,0.032034,1.023329
2011-09-30T12:08:38.351831,11830,1.668754,-0.777603,-0.023249,0.018639,0.032852,1.028462
2011-09-30T12:08:38.361831,11840,1.618379,-0.789191,-0.020967,0.019710,0.033670,1.033594
2011-09-30T12:08:38.371831,11850,1.541695,-0.744324,-0.025672,0.018766,0.035520,1.032991
2011-09-30T12:08:38.381831,11860,1.462961,-0.695059,-0.030922,0.017665,0.037449,1.031941
2011-09-30T12:08:38.391831,11870,1.384227,-0.645793,-0.036171,0.016564,0.039379,1.030891
2011-09-30T12:08:38.401831,11880,1.305493,-0.596528,-0.041420,0.015463,0.041309,1.029841
2011-09-30T12:08:38.411831,11890,1.226760,-0.547262,-0.046670,0.014362,0.043239,1.028791
2011-09-30T12:08:38.421831,11900,1.148026,-0.497997,-0.051919,0.013261,0.045169,1.027741
2011-09-30T12:08:38.431831,11910,1.069292,-0.448731,-0.057168,0.012160,0.047099,1.026691
2011-09-30T12:08:38.441831,11920,0.990558,-0.399466,-0.062418,0.011059,0.049029,1.025641
2011-09-30T12:08:38.451831,11930,0.911824,-0.350200,-0.067667,0.009958,0.050959,1.024591
2011-09-30T12:08:38.461831,11940,0.833090,-0.300935,-0.072917,0.008857,0.052889,1.023542
2011-09-30T12:08:38.471831,11950,0.767252,-0.264431,-0.082437,0.008285,0.051991,1.021820
2011-09-30T12:08:38.481831,11960,0.702621,-0.229122,-0.092358,0.007762,0.050829,1.020036
2011-09-30T12:08:38.491831,11970,0.637990,-0.193813,-0.102278,0.007239,0.049667,1.018251
2011-09-30T12:08:38.501831,11980,0.573358,-0.158504,-0.112199,0.006716,0.048505,1.016467
2011-09-30T12:08:38.511831,11990,0.508727,-0.123195,-0.122120,0.006193,0.047343,1.014682
2011-09-30T12:08:38.521831,12000,0.444096,-0.087886,-0.132040,0.005670,0.046181,1.012898
2011-09-30T12:08:38.531831,12010,0.379465,-0.052577,-0.141961,0.005147,0.045019,1.011113
2011-09-30T12:08:38.541831,12020,0.314834,-0.017268,-0.151881,0.004624,0.043857,1.009329
2011-09-30T12:08:38.551831,12030,0.250203,0.018041,-0.161802,0.004101,0.042695,1.007545
2011-09-30T12:08:38.561831,12040,0.185572,0.053350,-0.171723,0.003578,0.041533,1.005760
2011-09-30T12:08:38.571831,12050,0.139028,0.133680,-0.185147,0.003352,0.042367,1.006390
2011-09-30T12:08:38.581831,12060,0.093969,0.217706,-0.198859,0.003152,0.043364,1.007218
2011-09-30T12:08:38.591831,12070,0.048910,0.301732,-0.212572,0.002951,0.044361,1.008046
2011-09-30T12:08:38.601831,12080,0.003851,0.385758,-0.226284,0.002750,0.045358,1.008875
2011-09-30T12:08:38.611831,12090,-0.041208,0.469784,-0.239997,0.002550,0.046355,1.009703
2011-09-30T12:08:38.621831,12100,-0.086267,0.553810,-0.253709,0.002349,0.047352,1.010531
2011-09-30T12:08:38.631831,12110,-0.131325,0.637836,-0.267421,0.002148,0.048349,1.011359
2011-09-30T12:08:38.641831,12120,-0.176384,0.721862,-0.281134,0.001948,0.049345,1.012187
2011-09-30T12:08:38.651831,12130,-0.221443,0.805888,-0.294846,0.001747,0.050342,1.013015
2011-09-30T12:08:38.661831,12140,-0.266502,0.889914,-0.308558,0.001546,0.051339,1.013844
2011-09-30T12:08:38.671831,12150,-0.311561,0.973941,-0.322271,0.001346,0.052336,1.014672
2011-09-30T12:08:38.681831,12160,-0.394725,0.953085,-0.330379,-0.000658,0.050154,1.011846
2011-09-30T12:08:38.691831,12170,-0.480947,0.923812,-0.338037,-0.002805,0.047716,1.008728
2011-09-30T12:08:38.701831,12180,-0.567168,0.894539,-0.345695,-0.004953,0.045278,1.005609
2011-09-30T12:08:38.711831,12190,-0.653390,0.865266,-0.353353,-0.007101,0.042840,1.002491
2011-09-30T12:08:38.721831,12200,-0.739612,0.835994,-0.361011,-0.009249,0.040402,0.999372
2011-09-30T12:08:38.731831,12210,-0.825834,0.806721,-0.368669,-0.011397,0.037964,0.996254
2011-09-30T12:08:38.741831,12220,-0.912056,0.777448,-0.376328,-0.013545,0.035526,0.993135
2011-09-30T12:08:38.751831,12230,-0.998278,0.748175,-0.383986,-0.015692,0.033088,0.990016
2011-09-30T12:08:38.761831,12240,-1.084500,0.718902,-0.391644,-0.017840,0.030650,0.986898
2011-09-30T12:08:38.771831,12250,-1.170722,0.689629,-0.399302,-0.019988,0.028212,0.983779
2011-09-30T12:08:38.781831,12260,-1.094102,0.599982,-0.390050,-0.021081,0.027972,0.980972
2011-09-30T12:08:38.791831,12270,-1.004432,0.505495,-0.379443,-0.022089,0.027908,0.978190
2011-09-30T12:08:38.801831,12280,-0.914763,0.411009,-0.368836,-0.023097,0.027844,0.975407
2011-09-30T12:08:38.811831,12290,-0.825093,0.316523,-0.358229,-0.024106,0.027780,0.972625
2011-09-30T12:08:38.821831,12300,-0.735423,0.222036,-0.347622,-0.025114,0.027716,0.969843
2011-09-30T12:08:38.831831,12310,-0.645754,0.127550,-0.337015,-0.026122,0.027653,0.967061
2011-09-30T12:08:38.841831,12320,-0.556084,0.033064,-0.326409,-0.027130,0.027589,0.964278
2011-09-30T12:08:38.851831,12330,-0.466414,-0.061422,-0.315802,-0.028138,0.027525,0.961496
2011-09-30T12:08:38.861831,12340,-0.376745,-0.155909,-0.305195,-0.029147,0.027461,0.958714
2011-09-30T12:08:38.871831,12350,-0.287075,-0.250395,-0.294588,-0.030155,0.027397,0.955931
2011-09-30T12:08:38.881831,12360,-0.272344,-0.320165,-0.285906,-0.030205,0.027681,0.961068
2011-09-30T12:08:38.891831,12370,-0.263900,-0.387863,-0.277385,-0.030174,0.027993,0.966868
2011-09-30T12:08:38.901831,12380,-0.255455,-0.455560,-0.268864,-0.030144,0.028305,0.972668
2011-09-30T12:08:38.911831,12390,-0.247011,-0.523257,-0.260344,-0.030113,0.028617,0.978468
2011-09-30T12:08:38.921831,12400,-0.238566,-0.590954,-0.251823,-0.030082,0.028930,0.984269
2011-09-30T12:08:38.931831,12410,-0.230122,-0.658651,-0.243302,-0.030052,0.029242,0.990069
2011-09-30T12:08:38.941831,12420,-0.221678,-0.726348,-0.234782,-0.030021,0.029554,0.995869
2011-09-30T12:08:38.951831,12430,-0.213233,-0.794045,-0.226261,-0.029991,0.029866,1.001670
2011-09-30T12:08:38.961831,12440,-0.204789,-0.861742,-0.217741,-0.029960,0.030179,1.007470
2011-09-30T12:08:38.971831,12450,-0.196344,-0.929440,-0.209220,-0.029930,0.030491,1.013270
2011-09-30T12:08:38.981831,12460,-0.187900,-0.997137,-0.200699,-0.029899,0.030803,1.019070
2011-09-30T12:08:38.991831,12470,-0.171714,-1.010877,-0.205383,-0.030314,0.029803,1.020947
2011-09-30T12:08:39.001831,12480,-0.154858,-1.019952,-0.211208,-0.030767,0.028689,1.022485
2011-09-30T12:08:39.011831,12490,-0.138002,-1.029026,-0.217033,-0.031221,0.027575,1.024023
2011-09-30T12:08:39.021831,12500,-0.121147,-1.038101,-0.222859,-0.031674,0.026461,1.025560
2011-09-30T12:08:39.031831,12510,-0.104291,-1.047176,-0.228684,-0.032128,0.025346,1.027098
2011-09-30T12:08:39.041831,12520,-0.087435,-1.056250,-0.234509,-0.032581,0.024232,1.028636
2011-09-30T12:08:39.051831,12530,-0.070580,-1.065325,-0.240335,-0.033035,0.023118,1.030173
2011-09-30T12:08:39.061831,12540,-0.053724,-1.074399,-0.246160,-0.033488,0.022004,1.031711
2011-09-30T12:08:39.071831,12550,-0.036869,-1.083474,-0.251985,-0.033942,0.020890,1.033249
2011-09-30T12:08:39.081831,12560,-0.020013,-1.092549,-0.257811,-0.034395,0.019776,1.034786
2011-09-30T12:08:39.091831,12570,0.023631,-1.186006,-0.249813,-0.034182,0.020635,1.033211
2011-09-30T12:08:39.101831,12580,0.069435,-1.286265,-0.240702,-0.033916,0.021653,1.031385
2011-09-30T12:08:39.111831,12590,0.115238,-1.386524,-0.231590,-0.033650,0.022671,1.029559
2011-09-30T12:08:39.121831,12600,0.161042,-1.486782,-0.222479,-0.033383,0.023689,1.027733
2011-09-30T12:08:39.131831,12610,0.206845,-1.587041,-0.213367,-0.033117,0.024707,1.025907
2011-09-30T12:08:39.141831,12620,0.252649,-1.687300,-0.204256,-0.032851,0.025725,1.024081
2011-09-30T12:08:39.151831,12630,0.298452,-1.787558,-0.195144,-0.032584,0.026743,1.022254
2011-09-30T12:08:39.161831,12640,0.344255,-1.887817,-0.186033,-0.032318,0.027761,1.020428
2011-09-30T12:08:39.171831,12650,0.390059,-1.988076,-0.176921,-0.032052,0.028779,1.018602
2011-09-30T12:08:39.181831,12660,0.435862,-2.088334,-0.167810,-0.031785,0.029797,1.016776
2011-09-30T12:08:39.191831,12670,0.481666,-2.188593,-0.158699,-0.031519,0.030815,1.014950
2011-09-30T12:08:39.201831,12680,0.453640,-2.154005,-0.166038,-0.030503,0.031971,1.017644
2011-09-30T12:08:39.211831,12690,0.419963,-2.109096,-0.174637,-0.029429,0.033138,1.020683
2011-09-30T12:08:39.221831,12700,0.386287,-2.064186,-0.183236,-0.028356,0.034304,1.023723
2011-09-30T12:08:39.231831,12710,0.352610,-2.019277,-0.191835,-0.027282,0.035471,1.026763
2011-09-30T12:08:39.241831,12720,0.318934,-1.974368,-0.200433,-0.026209,0.036637,1.029802
2011-09-30T12:08:39.251831,12730,0.285258,-1.929459,-0.209032,-0.025135,0.037804,1.032842
2011-09-30T12:08:39.261831,12740,0.251581,-1.884550,-0.217631,-0.024062,0.038971,1.035882
2011-09-30T12:08:39.271831,12750,0.217905,-1.839641,-0.226230,-0.022988,0.040137,1.038921
2011-09-30T12:08:39.281831,12760,0.184228,-1.794732,-0.234829,-0.021915,0.041304,1.041961
2011-09-30T12:08:39.291831,12770,0.150552,-1.749823,-0.243427,-0.020841,0.042471,1.045001
2011-09-30T12:08:39.301831,12780,0.136353,-1.643887,-0.235477,-0.020319,0.041071,1.045752
2011-09-30T12:08:39.311831,12790,0.123708,-1.533082,-0.226206,-0.019840,0.039466,1.046322
2011-09-30T12:08:39.321831,12800,0.111063,-1.422277,-0.216936,-0.019362,0.037861,1.046891
2011-09-30T12:08:39.331831,12810,0.098418,-1.311471,-0.207665,-0.018884,0.036256,1.047460
2011-09-30T12:08:39.341831,12820,0.085773,-1.200666,-0.198394,-0.018405,0.034652,1.048029
2011-09-30T12:08:39.351831,12830,0.073128,-1.089860,-0.189123,-0.017927,0.033047,1.048598
2011-09-30T12:08:39.361831,12840,0.060484,-0.979055,-0.179852,-0.017448,0.031442,1.049168
2011-09-30T12:08:39.371831,12850,0.047839,-0.868249,-0.170582,-0.016970,0.029837,1.049737
2011-09-30T12:08:39.381831,12860,0.035194,-0.757444,-0.161311,-0.016491,0.028233,1.050306
2011-09-30T12:08:39.391831,12870,0.022549,-0.646639,-0.152040,-0.016013,0.026628,1.050875
2011-09-30T12:08:39.401831,12880,0.023903,-0.580117,-0.136725,-0.016653,0.027675,1.046585
2011-09-30T12:08:39.411831,12890,0.026374,-0.517130,-0.120926,-0.017383,0.028934,1.041907
2011-09-30T12:08:39.421831,12900,0.028846,-0.454142,-0.105128,-0.018113,0.030193,1.037228
2011-09-30T12:08:39.431831,12910,0.031317,-0.391155,-0.089330,-0.018843,0.031451,1.032550
2011-09-30T12:08:39.441831,12920,0.033788,-0.328168,-0.073532,-0.019572,0.032710,1.027872
2011-09-30T12:08:39.451831,12930,0.036259,-0.265180,-0.057734,-0.020302,0.033969,1.023194
2011-09-30T12:08:39.461831,12940,0.038731,-0.202193,-0.041936,-0.021032,0.035228,1.018516
2011-09-30T12:08:39.471831,12950,0.041202,-0.139205,-0.026138,-0.021762,0.036487,1.013838
2011-09-30T12:08:39.481831,12960,0.043673,-0.076218,-0.010340,-0.022491,0.037746,1.009159
2011-09-30T12:08:39.491831,12970,0.046144,-0.013230,0.005458,-0.023221,0.039004,1.004481
2011-09-30T12:08:39.501831,12980,0.048616,0.049757,0.021256,-0.023951,0.040263,0.999803
2011-09-30T12:08:39.511831,12990,0.020294,0.068298,0.018193,-0.023477,0.040600,1.000154
2011-09-30T12:08:39.521831,13000,-0.011369,0.082015,0.013084,-0.022872,0.040836,1.001050
2011-09-30T12:08:39.531831,13010,-0.043032,0.095731,0.007974,-0.022267,0.041072,1.001946
2011-09-30T12:08:39.541831,13020,-0.074695,0.109448,0.002865,-0.021662,0.041309,1.002843
2011-09-30T12:08:39.551831,13030,-0.106358,0.123165,-0.002244,-0.021057,0.041545,1.003739
2011-09-30T12:08:39.561831,13040,-0.138021,0.136882,-0.007354,-0.020453,0.041781,1.004635
2011-09-30T12:08:39.571831,13050,-0.169685,0.150599,-0.012463,-0.019848,0.042017,1.005532
2011-09-30T12:08:39.581831,13060,-0.201348,0.164316,-0.017573,-0.019243,0.042254,1.006428
2011-09-30T12:08:39.591831,13070,-0.233011,0.178033,-0.022682,-0.018638,0.042490,1.007324
2011-09-30T12:08:39.601831,13080,-0.264674,0.191750,-0.027791,-0.018033,0.042726,1.008221
2011-09-30T12:08:39.611831,13090,-0.290033,0.225200,-0.015974,-0.017912,0.042641,1.006300
2011-09-30T12:08:39.621831,13100,-0.314901,0.260188,-0.002837,-0.017829,0.042530,1.004159
2011-09-30T12:08:39.631831,13110,-0.339769,0.295177,0.010299,-0.017746,0.042419,1.002019
2011-09-30T12:08:39.641831,13120,-0.364637,0.330165,0.023436,-0.017663,0.042309,0.999879
2011-09-30T12:08:39.651831,13130,-0.389504,0.365154,0.036573,-0.017580,0.042198,0.997738
2011-09-30T12:08:39.661831,13140,-0.414372,0.400142,0.049710,-0.017497,0.042087,0.995598
2011-09-30T12:08:39.671831,13150,-0.439240,0.435130,0.062847,-0.017414,0.041976,0.993457
2011-09-30T12:08:39.681831,13160,-0.464108,0.470119,0.075983,-0.017331,0.041866,0.991317
2011-09-30T12:08:39.691831,13170,-0.488976,0.505107,0.089120,-0.017247,0.041755,0.989177
2011-09-30T12:08:39.701831,13180,-0.513844,0.540096,0.102257,-0.017164,0.041644,0.987036
2011-09-30T12:08:39.711831,13190,-0.538711,0.575084,0.115394,-0.017081,0.041533,0.984896
2011-09-30T12:08:39.721831,13200,-0.513311,0.560260,0.120303,-0.017035,0.041281,0.985160
2011-09-30T12:08:39.731831,13210,-0.483741,0.541304,0.124530,-0.016991,0.041018,0.985625
2011-09-30T12:08:39.741831,13220,-0.454170,0.522348,0.128757,-0.016947,0.040754,0.986089
2011-09-30T12:08:39.751831,13230,-0.424600,0.503392,0.132984,-0.016904,0.040490,0.986553
2011-09-30T12:08:39.761831,13240,-0.395030,0.484436,0.137211,-0.016860,0.040226,0.987017
2011-09-30T12:08:39.771831,13250,-0.365460,0.465480,0.141438,-0.016817,0.039963,0.987481
2011-09-30T12:08:39.781831,13260,-0.335890,0.446524,0.145665,-0.016773,0.039699,0.987945
2011-09-30T12:08:39.791831,13270,-0.306320,0.427568,0.149892,-0.016729,0.039435,0.988409
2011-09-30T12:08:39.801831,13280,-0.276750,0.408612,0.154119,-0.016686,0.039171,0.988874
2011-09-30T12:08:39.811831,13290,-0.247180,0.389656,0.158346,-0.016642,0.038908,0.989338
2011-09-30T12:08:39.821831,13300,-0.232580,0.346593,0.173105,-0.016556,0.038247,0.989688
2011-09-30T12:08:39.831831,13310,-0.219146,0.301652,0.188685,-0.016468,0.037555,0.990030
2011-09-30T12:08:39.841831,13320,-0.205712,0.256711,0.204265,-0.016379,0.036863,0.990371
2011-09-30T12:08:39.851831,13330,-0.192279,0.211770,0.219845,-0.016290,0.036171,0.990713
2011-09-30T12:08:39.861831,13340,-0.178845,0.166828,0.235426,-0.016201,0.035479,0.991054
2011-09-30T12:08:39.871831,13350,-0.165412,0.121887,0.251006,-0.016112,0.034787,0.991396
2011-09-30T12:08:39.881831,13360,-0.151978,0.076946,0.266586,-0.016023,0.034095,0.991737
2011-09-30T12:08:39.891831,13370,-0.138544,0.032005,0.282166,-0.015934,0.033403,0.992079
2011-09-30T12:08:39.901831,13380,-0.125111,-0.012937,0.297746,-0.015845,0.032711,0.992421
2011-09-30T12:08:39.911831,13390,-0.111677,-0.057878,0.313326,-0.015756,0.032019,0.992762
2011-09-30T12:08:39.921831,13400,-0.118271,-0.041004,0.315989,-0.015101,0.032492,0.993169
2011-09-30T12:08:39.931831,13410,-0.126396,-0.019407,0.317665,-0.014403,0.033054,0.993581
2011-09-30T12:08:39.941831,13420,-0.134521,0.002190,0.319340,-0.013705,0.033616,0.993993
2011-09-30T12:08:39.951831,13430,-0.142646,0.023788,0.321016,-0.013007,0.034177,0.994406
2011-09-30T12:08:39.961831,13440,-0.150771,0.045385,0.322691,-0.012308,0.034739,0.994818
2011-09-30T12:08:39.971831,13450,-0.158896,0.066983,0.324367,-0.011610,0.035301,0.995230
2011-09-30T12:08:39.981831,13460,-0.167021,0.088580,0.326042,-0.010912,0.035863,0.995642
2011-09-30T12:08:39.991831,13470,-0.175146,0.110177,0.327718,-0.010214,0.036425,0.996054
2011-09-30T12:08:40.001831,13480,-0.183271,0.131775,0.329393,-0.009516,0.036986,0.996466
2011-09-30T12:08:40.011831,13490,-0.191396,0.153372,0.331069,-0.008817,0.037548,0.996878
2011-09-30T12:08:40.021831,13500,-0.199521,0.174970,0.332744,-0.008119,0.038110,0.997290
2011-09-30T12:08:40.031831,13510,-0.160682,0.220320,0.333414,-0.008107,0.038714,0.997527
2011-09-30T12:08:40.041831,13520,-0.117965,0.267631,0.334002,-0.008152,0.039322,0.997749
2011-09-30T12:08:40.051831,13530,-0.075247,0.314943,0.334589,-0.008196,0.039930,0.997971
2011-09-30T12:08:40.061831,13540,-0.032529,0.362255,0.335176,-0.008241,0.040538,0.998193
2011-09-30T12:08:40.071831,13550,0.010189,0.409567,0.335763,-0.008285,0.041146,0.998414
2011-09-30T12:08:40.081831,13560,0.052907,0.456879,0.336350,-0.008330,0.041754,0.998636
2011-09-30T12:08:40.091831,13570,0.095625,0.504190,0.336937,-0.008375,0.042362,0.998858
